"participant_id","current_trial_face","pre_trial_face","post_trial_face","current_trial_accuracy","pre_trial_accuracy","post_trial_accuracy","current_trial_congruency","pre_trial_congruency","post_trial_congruency","current_trial_rt","pre_trial_rt","post_trial_rt","current_trial_responded","pre_trial_responded","post_trial_responded","current_trial_legitResponse","pre_trial_legitResponse","post_trial_legitResponse","current_trial_resp_nums","pre_trial_resp_nums","post_trial_resp_nums"
"250021","img/neutralC/CFD-AM-225-102-N.jpg",NA,"img/neutralC/CFD-IM-635-010-N.jpg","1",NA,"0","0",NA,"1","1.49364760000026",NA,"0.636633300047833","1",NA,"1","1",NA,"1","1",NA,"1"
"250021","img/neutralC/CFD-IM-635-010-N.jpg","img/neutralC/CFD-AM-225-102-N.jpg","img/neutralC/CFD-AF-244-168-N.jpg","0","1","1","1","0","0","0.636633300047833","1.49364760000026","1.0463846999919","1","1","1","1","1","1","1","1","1"
"250021","img/neutralC/CFD-AF-244-168-N.jpg","img/neutralC/CFD-IM-635-010-N.jpg","img/neutralC/CFD-AM-245-111-N.jpg","1","0","1","0","1","1","1.0463846999919","0.636633300047833","0.739011400029995","1","1","1","1","1","1","1","1","1"
"250021","img/neutralC/CFD-AM-245-111-N.jpg","img/neutralC/CFD-AF-244-168-N.jpg","img/neutralC/CFD-AF-246-242-N.jpg","1","1","1","1","0","0","0.739011400029995","1.0463846999919","0.802852499997243","1","1","1","1","1","1","1","1","1"
"250021","img/neutralC/CFD-AF-246-242-N.jpg","img/neutralC/CFD-AM-245-111-N.jpg","img/neutralC/CFD-WF-210-086-N.jpg","1","1","1","0","1","0","0.802852499997243","0.739011400029995","0.600300100049935","1","1","1","1","1","1","1","1","1"
"250021","img/neutralC/CFD-WF-210-086-N.jpg","img/neutralC/CFD-AF-246-242-N.jpg","img/neutralC/CFD-WM-253-119-N.jpg","1","1","1","0","0","1","0.600300100049935","0.802852499997243","0.432928099995479","1","1","1","1","1","1","1","1","1"
"250021","img/neutralC/CFD-WM-253-119-N.jpg","img/neutralC/CFD-WF-210-086-N.jpg","img/neutralC/CFD-AM-233-236-N.jpg","1","1","1","1","0","1","0.432928099995479","0.600300100049935","0.504705899977125","1","1","1","1","1","1","1","1","1"
"250021","img/neutralC/CFD-AM-233-236-N.jpg","img/neutralC/CFD-WM-253-119-N.jpg","img/neutralC/CFD-BM-004-002-N.jpg","1","1","1","1","1","0","0.504705899977125","0.432928099995479","0.519102100050077","1","1","1","1","1","1","1","1","1"
"250021","img/neutralC/CFD-BM-004-002-N.jpg","img/neutralC/CFD-AM-233-236-N.jpg","img/neutralC/CFD-IM-669-111-N.jpg","1","1","1","0","1","1","0.519102100050077","0.504705899977125","0.476010499987751","1","1","1","1","1","1","1","1","1"
"250021","img/neutralC/CFD-IM-669-111-N.jpg","img/neutralC/CFD-BM-004-002-N.jpg","img/neutralC/CFD-IM-632-097-N.jpg","1","1","0","1","0","0","0.476010499987751","0.519102100050077","0.547162600036245","1","1","1","1","1","1","1","1","1"
"250021","img/neutralC/CFD-IM-632-097-N.jpg","img/neutralC/CFD-IM-669-111-N.jpg","img/neutralC/CFD-BF-206-143-N.jpg","0","1","1","0","1","1","0.547162600036245","0.476010499987751","0.601932999968994","1","1","1","1","1","1","1","1","1"
"250021","img/neutralC/CFD-BF-206-143-N.jpg","img/neutralC/CFD-IM-632-097-N.jpg","img/neutralC/CFD-BF-040-003-N.jpg","1","0","1","1","0","1","0.601932999968994","0.547162600036245","0.408777199976612","1","1","1","1","1","1","1","1","1"
"250021","img/neutralC/CFD-BF-040-003-N.jpg","img/neutralC/CFD-BF-206-143-N.jpg","img/neutralC/CFD-BF-042-026-N.jpg","1","1","1","1","1","1","0.408777199976612","0.601932999968994","0.456363400036935","1","1","1","1","1","1","1","1","1"
"250021","img/neutralC/CFD-BF-042-026-N.jpg","img/neutralC/CFD-BF-040-003-N.jpg","img/neutralC/CFD-BM-215-155-N.jpg","1","1","1","1","1","0","0.456363400036935","0.408777199976612","0.443075400020462","1","1","1","1","1","1","1","1","1"
"250021","img/neutralC/CFD-BM-215-155-N.jpg","img/neutralC/CFD-BF-042-026-N.jpg","img/neutralC/CFD-LM-241-125-N.jpg","1","1","1","0","1","1","0.443075400020462","0.456363400036935","0.721559600031469","1","1","1","1","1","1","1","1","1"
"250021","img/neutralC/CFD-LM-241-125-N.jpg","img/neutralC/CFD-BM-215-155-N.jpg","img/neutralC/CFD-LF-239-148-N.jpg","1","1","1","1","0","0","0.721559600031469","0.443075400020462","0.517804400005843","1","1","1","1","1","1","1","1","1"
"250021","img/neutralC/CFD-LF-239-148-N.jpg","img/neutralC/CFD-LM-241-125-N.jpg","img/neutralC/CFD-BF-217-189-N.jpg","1","1","1","0","1","0","0.517804400005843","0.721559600031469","0.532352200010791","1","1","1","1","1","1","1","1","1"
"250021","img/neutralC/CFD-BF-217-189-N.jpg","img/neutralC/CFD-LF-239-148-N.jpg","img/neutralC/CFD-WM-018-002-N.jpg","1","1","1","0","0","0","0.532352200010791","0.517804400005843","0.532929500041064","1","1","1","1","1","1","1","1","1"
"250021","img/neutralC/CFD-WM-018-002-N.jpg","img/neutralC/CFD-BF-217-189-N.jpg","img/neutralC/CFD-IF-636-011-N.jpg","1","1","1","0","0","1","0.532929500041064","0.532352200010791","0.447412599984091","1","1","1","1","1","1","1","1","1"
"250021","img/neutralC/CFD-IF-636-011-N.jpg","img/neutralC/CFD-WM-018-002-N.jpg","img/neutralC/CFD-BF-235-168-N.jpg","1","1","1","1","0","1","0.447412599984091","0.532929500041064","0.397623400029261","1","1","1","1","1","1","1","1","1"
"250021","img/neutralC/CFD-BF-235-168-N.jpg","img/neutralC/CFD-IF-636-011-N.jpg","img/neutralC/CFD-AF-213-126-N.jpg","1","1","1","1","1","1","0.397623400029261","0.447412599984091","0.497017799993046","1","1","1","1","1","1","1","1","1"
"250021","img/neutralC/CFD-AF-213-126-N.jpg","img/neutralC/CFD-BF-235-168-N.jpg","img/neutralC/CFD-MF-307-002-N.jpg","1","1","1","1","1","1","0.497017799993046","0.397623400029261","0.497187200002372","1","1","1","1","1","1","1","1","1"
"250021","img/neutralC/CFD-MF-307-002-N.jpg","img/neutralC/CFD-AF-213-126-N.jpg","img/neutralC/CFD-WF-235-121-N.jpg","1","1","1","1","1","0","0.497187200002372","0.497017799993046","0.490355800022371","1","1","1","1","1","1","1","1","1"
"250021","img/neutralC/CFD-WF-235-121-N.jpg","img/neutralC/CFD-MF-307-002-N.jpg","img/neutralC/CFD-AF-205-155-N.jpg","1","1","1","0","1","0","0.490355800022371","0.497187200002372","0.719775099947583","1","1","1","1","1","1","1","1","1"
"250021","img/neutralC/CFD-AF-205-155-N.jpg","img/neutralC/CFD-WF-235-121-N.jpg","img/neutralC/CFD-IM-678-482-N.jpg","1","1","1","0","0","0","0.719775099947583","0.490355800022371","0.529701700026635","1","1","1","1","1","1","1","1","1"
"250021","img/neutralC/CFD-IM-678-482-N.jpg","img/neutralC/CFD-AF-205-155-N.jpg","img/neutralC/CFD-BF-020-002-N.jpg","1","1","1","0","0","1","0.529701700026635","0.719775099947583","0.452839899982791","1","1","1","1","1","1","1","1","1"
"250021","img/neutralC/CFD-BF-020-002-N.jpg","img/neutralC/CFD-IM-678-482-N.jpg","img/neutralC/CFD-AF-250-200-N.jpg","1","1","1","1","0","1","0.452839899982791","0.529701700026635","0.418333400040865","1","1","1","1","1","1","1","1","1"
"250021","img/neutralC/CFD-AF-250-200-N.jpg","img/neutralC/CFD-BF-020-002-N.jpg","img/neutralC/CFD-LM-204-001-N.jpg","1","1","1","1","1","0","0.418333400040865","0.452839899982791","0.455289000004996","1","1","1","1","1","1","1","1","1"
"250021","img/neutralC/CFD-LM-204-001-N.jpg","img/neutralC/CFD-AF-250-200-N.jpg","img/neutralC/CFD-AF-234-208-N.jpg","1","1","1","0","1","1","0.455289000004996","0.418333400040865","0.403292100003455","1","1","1","1","1","1","1","1","1"
"250021","img/neutralC/CFD-AF-234-208-N.jpg","img/neutralC/CFD-LM-204-001-N.jpg","img/neutralC/CFD-MF-302-027-N.jpg","1","1","1","1","0","0","0.403292100003455","0.455289000004996","0.625809899996966","1","1","1","1","1","1","1","1","1"
"250021","img/neutralC/CFD-MF-302-027-N.jpg","img/neutralC/CFD-AF-234-208-N.jpg","img/neutralC/CFD-IF-732-260-N.jpg","1","1","1","0","1","0","0.625809899996966","0.403292100003455","0.524707800010219","1","1","1","1","1","1","1","1","1"
"250021","img/neutralC/CFD-IF-732-260-N.jpg","img/neutralC/CFD-MF-302-027-N.jpg",NA,"1","1",NA,"0","0",NA,"0.524707800010219","0.625809899996966",NA,"1","1",NA,"1","1",NA,"1","1",NA
"250021","img/neutralC/CFD-IF-619-197-N.jpg",NA,"img/neutralC/CFD-AF-215-70-N.jpg","0",NA,"1","0",NA,"0","0.874177999969106",NA,"0.454557900025975","1",NA,"1","1",NA,"1","1",NA,"1"
"250021","img/neutralC/CFD-AF-215-70-N.jpg","img/neutralC/CFD-IF-619-197-N.jpg","img/neutralC/CFD-IM-685-004-N.jpg","1","0","1","0","0","1","0.454557900025975","0.874177999969106","0.462863799999468","1","1","1","1","1","1","1","1","1"
"250021","img/neutralC/CFD-IM-685-004-N.jpg","img/neutralC/CFD-AF-215-70-N.jpg","img/neutralC/CFD-BM-039-029-N.jpg","1","1","1","1","0","1","0.462863799999468","0.454557900025975","0.362529900041409","1","1","1","1","1","1","1","1","1"
"250021","img/neutralC/CFD-BM-039-029-N.jpg","img/neutralC/CFD-IM-685-004-N.jpg","img/neutralC/CFD-MF-327-002-N.jpg","1","1","1","1","1","0","0.362529900041409","0.462863799999468","0.579498599981889","1","1","1","1","1","1","1","1","1"
"250021","img/neutralC/CFD-MF-327-002-N.jpg","img/neutralC/CFD-BM-039-029-N.jpg","img/neutralC/CFD-BF-051-035-N.jpg","1","1","1","0","1","0","0.579498599981889","0.362529900041409","0.438689000031445","1","1","1","1","1","1","1","1","1"
"250021","img/neutralC/CFD-BF-051-035-N.jpg","img/neutralC/CFD-MF-327-002-N.jpg","img/neutralC/CFD-MM-304-002-N.jpg","1","1","1","0","0","1","0.438689000031445","0.579498599981889","0.370628100004978","1","1","1","1","1","1","1","1","1"
"250021","img/neutralC/CFD-MM-304-002-N.jpg","img/neutralC/CFD-BF-051-035-N.jpg","img/neutralC/CFD-IM-709-103-N.jpg","1","1","0","1","0","0","0.370628100004978","0.438689000031445","0.418381299998146","1","1","1","1","1","1","1","1","2"
"250021","img/neutralC/CFD-IM-709-103-N.jpg","img/neutralC/CFD-MM-304-002-N.jpg","img/neutralC/CFD-WF-012-002-N.jpg","0","1","1","0","1","1","0.418381299998146","0.370628100004978","0.428316599980462","1","1","1","1","1","1","2","1","1"
"250021","img/neutralC/CFD-WF-012-002-N.jpg","img/neutralC/CFD-IM-709-103-N.jpg","img/neutralC/CFD-MF-329-001-N.jpg","1","0","1","1","0","0","0.428316599980462","0.418381299998146","0.475269699993078","1","1","1","1","1","1","1","2","1"
"250021","img/neutralC/CFD-MF-329-001-N.jpg","img/neutralC/CFD-WF-012-002-N.jpg","img/neutralC/CFD-WF-248-129-N.jpg","1","1","1","0","1","0","0.475269699993078","0.428316599980462","0.518619899987243","1","1","1","1","1","1","1","1","1"
"250021","img/neutralC/CFD-WF-248-129-N.jpg","img/neutralC/CFD-MF-329-001-N.jpg","img/neutralC/CFD-IM-604-014-N.jpg","1","1","1","0","0","0","0.518619899987243","0.475269699993078","0.470694400020875","1","1","1","1","1","1","1","1","1"
"250021","img/neutralC/CFD-IM-604-014-N.jpg","img/neutralC/CFD-WF-248-129-N.jpg","img/neutralC/CFD-LF-201-035-N.jpg","1","1","1","0","0","1","0.470694400020875","0.518619899987243","0.345679500023834","1","1","1","1","1","1","1","1","1"
"250021","img/neutralC/CFD-LF-201-035-N.jpg","img/neutralC/CFD-IM-604-014-N.jpg","img/neutralC/CFD-MF-300-002-N.jpg","1","1","1","1","0","0","0.345679500023834","0.470694400020875","0.389476799988188","1","1","1","1","1","1","1","1","1"
"250021","img/neutralC/CFD-MF-300-002-N.jpg","img/neutralC/CFD-LF-201-035-N.jpg","img/neutralC/CFD-LM-217-162-N.jpg","1","1","1","0","1","0","0.389476799988188","0.345679500023834","0.481857199978549","1","1","1","1","1","1","1","1","1"
"250021","img/neutralC/CFD-LM-217-162-N.jpg","img/neutralC/CFD-MF-300-002-N.jpg","img/neutralC/CFD-BM-243-218-N.jpg","1","1","1","0","0","1","0.481857199978549","0.389476799988188","0.370487799984403","1","1","1","1","1","1","1","1","1"
"250021","img/neutralC/CFD-BM-243-218-N.jpg","img/neutralC/CFD-LM-217-162-N.jpg","img/neutralC/CFD-WF-008-002-N.jpg","1","1","1","1","0","1","0.370487799984403","0.481857199978549","0.351223300036509","1","1","1","1","1","1","1","1","1"
"250021","img/neutralC/CFD-WF-008-002-N.jpg","img/neutralC/CFD-BM-243-218-N.jpg","img/neutralC/CFD-WM-213-076-N.jpg","1","1","1","1","1","1","0.351223300036509","0.370487799984403","0.258398499980103","1","1","1","1","1","1","1","1","1"
"250021","img/neutralC/CFD-WM-213-076-N.jpg","img/neutralC/CFD-WF-008-002-N.jpg","img/neutralC/CFD-LF-226-174-N.jpg","1","1","0","1","1","0","0.258398499980103","0.351223300036509","0.351969500014093","1","1","1","1","1","1","1","1","1"
"250021","img/neutralC/CFD-LF-226-174-N.jpg","img/neutralC/CFD-WM-213-076-N.jpg","img/neutralC/CFD-IM-675-015-N.jpg","0","1","1","0","1","1","0.351969500014093","0.258398499980103","0.348105399985798","1","1","1","1","1","1","1","1","1"
"250021","img/neutralC/CFD-IM-675-015-N.jpg","img/neutralC/CFD-LF-226-174-N.jpg","img/neutralC/CFD-WF-212-050-N.jpg","1","0","1","1","0","0","0.348105399985798","0.351969500014093","0.337817099993117","1","1","1","1","1","1","1","1","1"
"250021","img/neutralC/CFD-WF-212-050-N.jpg","img/neutralC/CFD-IM-675-015-N.jpg","img/neutralC/CFD-MF-340-026-N.jpg","1","1","1","0","1","1","0.337817099993117","0.348105399985798","0.423548099992331","1","1","1","1","1","1","1","1","1"
"250021","img/neutralC/CFD-MF-340-026-N.jpg","img/neutralC/CFD-WF-212-050-N.jpg","img/neutralC/CFD-AF-254-167-N.jpg","1","1","1","1","0","1","0.423548099992331","0.337817099993117","0.400726300023962","1","1","1","1","1","1","1","1","1"
"250021","img/neutralC/CFD-AF-254-167-N.jpg","img/neutralC/CFD-MF-340-026-N.jpg","img/neutralC/CFD-WM-024-015-N.jpg","1","1","1","1","1","1","0.400726300023962","0.423548099992331","0.474794200039469","1","1","1","1","1","1","1","1","1"
"250021","img/neutralC/CFD-WM-024-015-N.jpg","img/neutralC/CFD-AF-254-167-N.jpg","img/neutralC/CFD-AM-236-090-N.jpg","1","1","1","1","1","1","0.474794200039469","0.400726300023962","0.348757300002035","1","1","1","1","1","1","1","1","1"
"250021","img/neutralC/CFD-AM-236-090-N.jpg","img/neutralC/CFD-WM-024-015-N.jpg","img/neutralC/CFD-WF-217-085-N.jpg","1","1","1","1","1","1","0.348757300002035","0.474794200039469","0.334445400047116","1","1","1","1","1","1","1","1","1"
"250021","img/neutralC/CFD-WF-217-085-N.jpg","img/neutralC/CFD-AM-236-090-N.jpg","img/neutralC/CFD-BF-043-003-N.jpg","1","1","1","1","1","0","0.334445400047116","0.348757300002035","0.376798199955374","1","1","1","1","1","1","1","1","1"
"250021","img/neutralC/CFD-BF-043-003-N.jpg","img/neutralC/CFD-WF-217-085-N.jpg","img/neutralC/CFD-IF-608-390-N.jpg","1","1","1","0","1","1","0.376798199955374","0.334445400047116","0.363190200005192","1","1","1","1","1","1","1","1","1"
"250021","img/neutralC/CFD-IF-608-390-N.jpg","img/neutralC/CFD-BF-043-003-N.jpg","img/neutralC/CFD-IM-637-007-N.jpg","1","1","1","1","0","0","0.363190200005192","0.376798199955374","0.338675900013186","1","1","1","1","1","1","1","1","1"
"250021","img/neutralC/CFD-IM-637-007-N.jpg","img/neutralC/CFD-IF-608-390-N.jpg","img/neutralC/CFD-AF-229-160-N.jpg","1","1","1","0","1","0","0.338675900013186","0.363190200005192","0.472654100041837","1","1","1","1","1","1","1","1","1"
"250021","img/neutralC/CFD-AF-229-160-N.jpg","img/neutralC/CFD-IM-637-007-N.jpg","img/neutralC/CFD-BF-224-002-N.jpg","1","1","1","0","0","1","0.472654100041837","0.338675900013186","0.401942300028168","1","1","1","1","1","1","1","1","1"
"250021","img/neutralC/CFD-BF-224-002-N.jpg","img/neutralC/CFD-AF-229-160-N.jpg","img/neutralC/CFD-WM-232-070-N.jpg","1","1","1","1","0","0","0.401942300028168","0.472654100041837","0.489416100026574","1","1","1","1","1","1","1","1","1"
"250021","img/neutralC/CFD-WM-232-070-N.jpg","img/neutralC/CFD-BF-224-002-N.jpg",NA,"1","1",NA,"0","1",NA,"0.489416100026574","0.401942300028168",NA,"1","1",NA,"1","1",NA,"1","1",NA
"250021","img/neutralC/CFD-LF-204-133-N.jpg",NA,"img/neutralC/CFD-WM-014-002-N.jpg","1",NA,"1","1",NA,"0","0.720458699972369",NA,"0.483778399997391","1",NA,"1","1",NA,"1","1",NA,"1"
"250021","img/neutralC/CFD-WM-014-002-N.jpg","img/neutralC/CFD-LF-204-133-N.jpg","img/neutralC/CFD-IF-729-393-N.jpg","1","1","0","0","1","0","0.483778399997391","0.720458699972369","0.339516200008802","1","1","1","1","1","1","1","1","1"
"250021","img/neutralC/CFD-IF-729-393-N.jpg","img/neutralC/CFD-WM-014-002-N.jpg","img/neutralC/CFD-WF-029-002-N.jpg","0","1","1","0","0","0","0.339516200008802","0.483778399997391","0.582044799986761","1","1","1","1","1","1","1","1","1"
"250021","img/neutralC/CFD-WF-029-002-N.jpg","img/neutralC/CFD-IF-729-393-N.jpg","img/neutralC/CFD-WF-234-086-N.jpg","1","0","1","0","0","1","0.582044799986761","0.339516200008802","0.44773630000418","1","1","1","1","1","1","1","1","1"
"250021","img/neutralC/CFD-WF-234-086-N.jpg","img/neutralC/CFD-WF-029-002-N.jpg","img/neutralC/CFD-BF-027-002-N.jpg","1","1","1","1","0","1","0.44773630000418","0.582044799986761","0.373182200011797","1","1","1","1","1","1","1","1","1"
"250021","img/neutralC/CFD-BF-027-002-N.jpg","img/neutralC/CFD-WF-234-086-N.jpg","img/neutralC/CFD-BF-214-308-N.jpg","1","1","1","1","1","1","0.373182200011797","0.44773630000418","0.549756599997636","1","1","1","1","1","1","1","1","1"
"250021","img/neutralC/CFD-BF-214-308-N.jpg","img/neutralC/CFD-BF-027-002-N.jpg","img/neutralC/CFD-BF-044-034-N.jpg","1","1","0","1","1","0","0.549756599997636","0.373182200011797","0.31066739995731","1","1","1","1","1","1","1","1","1"
"250021","img/neutralC/CFD-BF-044-034-N.jpg","img/neutralC/CFD-BF-214-308-N.jpg","img/neutralC/CFD-BM-241-235-N.jpg","0","1","1","0","1","0","0.31066739995731","0.549756599997636","0.489671899995301","1","1","1","1","1","1","1","1","1"
"250021","img/neutralC/CFD-BM-241-235-N.jpg","img/neutralC/CFD-BF-044-034-N.jpg","img/neutralC/CFD-BM-238-242-N.jpg","1","0","1","0","0","0","0.489671899995301","0.31066739995731","0.471390100021381","1","1","1","1","1","1","1","1","1"
"250021","img/neutralC/CFD-BM-238-242-N.jpg","img/neutralC/CFD-BM-241-235-N.jpg","img/neutralC/CFD-IM-721-341-N.jpg","1","1","1","0","0","1","0.471390100021381","0.489671899995301","0.53869959997246","1","1","1","1","1","1","1","1","1"
"250021","img/neutralC/CFD-IM-721-341-N.jpg","img/neutralC/CFD-BM-238-242-N.jpg","img/neutralC/CFD-WF-233-112-N.jpg","1","1","1","1","0","1","0.53869959997246","0.471390100021381","0.405411799962167","1","1","1","1","1","1","1","1","1"
"250021","img/neutralC/CFD-WF-233-112-N.jpg","img/neutralC/CFD-IM-721-341-N.jpg","img/neutralC/CFD-WM-034-030-N.jpg","1","1","1","1","1","1","0.405411799962167","0.53869959997246","0.341405500017572","1","1","1","1","1","1","1","1","1"
"250021","img/neutralC/CFD-WM-034-030-N.jpg","img/neutralC/CFD-WF-233-112-N.jpg","img/neutralC/CFD-IF-742-103-N.jpg","1","1","1","1","1","1","0.341405500017572","0.405411799962167","0.39702999999281","1","1","1","1","1","1","1","1","1"
"250021","img/neutralC/CFD-IF-742-103-N.jpg","img/neutralC/CFD-WM-034-030-N.jpg","img/neutralC/CFD-BF-002-001-N.jpg","1","1","1","1","1","0","0.39702999999281","0.341405500017572","0.608392799971625","1","1","1","1","1","1","1","1","1"
"250021","img/neutralC/CFD-BF-002-001-N.jpg","img/neutralC/CFD-IF-742-103-N.jpg","img/neutralC/CFD-IM-707-105-N.jpg","1","1","1","0","1","1","0.608392799971625","0.39702999999281","0.307481400028337","1","1","1","1","1","1","1","1","1"
"250021","img/neutralC/CFD-IM-707-105-N.jpg","img/neutralC/CFD-BF-002-001-N.jpg","img/neutralC/CFD-BF-006-017-N.jpg","1","1","1","1","0","0","0.307481400028337","0.608392799971625","0.2683128999779","1","1","1","1","1","1","1","1","1"
"250021","img/neutralC/CFD-BF-006-017-N.jpg","img/neutralC/CFD-IM-707-105-N.jpg","img/neutralC/CFD-LM-213-061-N.jpg","1","1","1","0","1","0","0.2683128999779","0.307481400028337","0.266546099970583","1","1","1","1","1","1","1","1","1"
"250021","img/neutralC/CFD-LM-213-061-N.jpg","img/neutralC/CFD-BF-006-017-N.jpg","img/neutralC/CFD-WF-208-068-N.jpg","1","1","1","0","0","1","0.266546099970583","0.2683128999779","0.365939599985722","1","1","1","1","1","1","1","1","1"
"250021","img/neutralC/CFD-WF-208-068-N.jpg","img/neutralC/CFD-LM-213-061-N.jpg","img/neutralC/CFD-WM-248-036-N.jpg","1","1","1","1","0","1","0.365939599985722","0.266546099970583","0.360674099996686","1","1","1","1","1","1","1","1","1"
"250021","img/neutralC/CFD-WM-248-036-N.jpg","img/neutralC/CFD-WF-208-068-N.jpg","img/neutralC/CFD-BF-036-027-N.jpg","1","1","0","1","1","0","0.360674099996686","0.365939599985722","0.482784000050742","1","1","1","1","1","1","1","1","1"
"250021","img/neutralC/CFD-BF-036-027-N.jpg","img/neutralC/CFD-WM-248-036-N.jpg","img/neutralC/CFD-BF-011-002-N.jpg","0","1","1","0","1","1","0.482784000050742","0.360674099996686","0.424028299981728","1","1","1","1","1","1","1","1","1"
"250021","img/neutralC/CFD-BF-011-002-N.jpg","img/neutralC/CFD-BF-036-027-N.jpg","img/neutralC/CFD-IM-696-001-N.jpg","1","0","1","1","0","0","0.424028299981728","0.482784000050742","0.36504890001379","1","1","1","1","1","1","1","1","1"
"250021","img/neutralC/CFD-IM-696-001-N.jpg","img/neutralC/CFD-BF-011-002-N.jpg","img/neutralC/CFD-BF-236-177-N.jpg","1","1","1","0","1","0","0.36504890001379","0.424028299981728","0.488881100027356","1","1","1","1","1","1","1","1","1"
"250021","img/neutralC/CFD-BF-236-177-N.jpg","img/neutralC/CFD-IM-696-001-N.jpg","img/neutralC/CFD-MF-301-024-N.jpg","1","1","1","0","0","0","0.488881100027356","0.36504890001379","0.548865100019611","1","1","1","1","1","1","1","1","1"
"250021","img/neutralC/CFD-MF-301-024-N.jpg","img/neutralC/CFD-BF-236-177-N.jpg","img/neutralC/CFD-AM-230-150-N.jpg","1","1","1","0","0","0","0.548865100019611","0.488881100027356","0.380003200029023","1","1","1","1","1","1","1","1","1"
"250021","img/neutralC/CFD-AM-230-150-N.jpg","img/neutralC/CFD-MF-301-024-N.jpg","img/neutralC/CFD-BF-207-004-N.jpg","1","1","1","0","0","1","0.380003200029023","0.548865100019611","0.378456499951426","1","1","1","1","1","1","1","1","1"
"250021","img/neutralC/CFD-BF-207-004-N.jpg","img/neutralC/CFD-AM-230-150-N.jpg","img/neutralC/CFD-BF-247-179-N.jpg","1","1","1","1","0","0","0.378456499951426","0.380003200029023","0.427254799986258","1","1","1","1","1","1","1","1","1"
"250021","img/neutralC/CFD-BF-247-179-N.jpg","img/neutralC/CFD-BF-207-004-N.jpg","img/neutralC/CFD-IF-677-452-1-N.jpg","1","1","1","0","1","1","0.427254799986258","0.378456499951426","0.381427699991036","1","1","1","1","1","1","1","1","1"
"250021","img/neutralC/CFD-IF-677-452-1-N.jpg","img/neutralC/CFD-BF-247-179-N.jpg","img/neutralC/CFD-IM-726-248-N.jpg","1","1","1","1","0","0","0.381427699991036","0.427254799986258","0.475311000016518","1","1","1","1","1","1","1","1","1"
"250021","img/neutralC/CFD-IM-726-248-N.jpg","img/neutralC/CFD-IF-677-452-1-N.jpg","img/neutralC/CFD-BM-207-024-N.jpg","1","1","1","0","1","1","0.475311000016518","0.381427699991036","0.424516299972311","1","1","1","1","1","1","1","1","1"
"250021","img/neutralC/CFD-BM-207-024-N.jpg","img/neutralC/CFD-IM-726-248-N.jpg","img/neutralC/CFD-BM-036-003-N.jpg","1","1","1","1","0","1","0.424516299972311","0.475311000016518","0.358780800015666","1","1","1","1","1","1","1","1","1"
"250021","img/neutralC/CFD-BM-036-003-N.jpg","img/neutralC/CFD-BM-207-024-N.jpg",NA,"1","1",NA,"1","1",NA,"0.358780800015666","0.424516299972311",NA,"1","1",NA,"1","1",NA,"1","1",NA
"250021","img/neutralC/CFD-BM-021-021-N.jpg",NA,"img/neutralC/CFD-WF-243-148-N.jpg","1",NA,"0","1",NA,"0","0.678940500016324",NA,"0.401605700026266","1",NA,"1","1",NA,"1","1",NA,"1"
"250021","img/neutralC/CFD-WF-243-148-N.jpg","img/neutralC/CFD-BM-021-021-N.jpg","img/neutralC/CFD-LM-240-013-N.jpg","0","1","1","0","1","1","0.401605700026266","0.678940500016324","0.45418099995004","1","1","1","1","1","1","1","1","1"
"250021","img/neutralC/CFD-LM-240-013-N.jpg","img/neutralC/CFD-WF-243-148-N.jpg","img/neutralC/CFD-WM-028-003-N.jpg","1","0","1","1","0","1","0.45418099995004","0.401605700026266","0.453844300005585","1","1","1","1","1","1","1","1","1"
"250021","img/neutralC/CFD-WM-028-003-N.jpg","img/neutralC/CFD-LM-240-013-N.jpg","img/neutralC/CFD-BM-020-001-N.jpg","1","1","1","1","1","0","0.453844300005585","0.45418099995004","0.429012200038415","1","1","1","1","1","1","1","1","1"
"250021","img/neutralC/CFD-BM-020-001-N.jpg","img/neutralC/CFD-WM-028-003-N.jpg","img/neutralC/CFD-AM-243-212-N.jpg","1","1","1","0","1","1","0.429012200038415","0.453844300005585","0.373449200007599","1","1","1","1","1","1","1","1","1"
"250021","img/neutralC/CFD-AM-243-212-N.jpg","img/neutralC/CFD-BM-020-001-N.jpg","img/neutralC/CFD-WM-025-002-N.jpg","1","1","1","1","0","0","0.373449200007599","0.429012200038415","0.443030100024771","1","1","1","1","1","1","1","1","1"
"250021","img/neutralC/CFD-WM-025-002-N.jpg","img/neutralC/CFD-AM-243-212-N.jpg","img/neutralC/CFD-BM-009-002-N.jpg","1","1","1","0","1","1","0.443030100024771","0.373449200007599","0.472540000046138","1","1","1","1","1","1","1","1","1"
"250021","img/neutralC/CFD-BM-009-002-N.jpg","img/neutralC/CFD-WM-025-002-N.jpg","img/neutralC/CFD-IM-615-167-N.jpg","1","1","1","1","0","0","0.472540000046138","0.443030100024771","0.505047400016338","1","1","1","1","1","1","1","1","1"
"250021","img/neutralC/CFD-IM-615-167-N.jpg","img/neutralC/CFD-BM-009-002-N.jpg","img/neutralC/CFD-AM-219-101-N.jpg","1","1","1","0","1","0","0.505047400016338","0.472540000046138","0.378121000016108","1","1","1","1","1","1","1","1","1"
"250021","img/neutralC/CFD-AM-219-101-N.jpg","img/neutralC/CFD-IM-615-167-N.jpg","img/neutralC/CFD-WF-009-001-N.jpg","1","1","1","0","0","1","0.378121000016108","0.505047400016338","0.391297199996188","1","1","1","1","1","1","1","1","1"
"250021","img/neutralC/CFD-WF-009-001-N.jpg","img/neutralC/CFD-AM-219-101-N.jpg","img/neutralC/CFD-WM-023-001-N.jpg","1","1","0","1","0","0","0.391297199996188","0.378121000016108","0.386932199995499","1","1","1","1","1","1","1","1","1"
"250021","img/neutralC/CFD-WM-023-001-N.jpg","img/neutralC/CFD-WF-009-001-N.jpg","img/neutralC/CFD-IF-676-017-N.jpg","0","1","1","0","1","1","0.386932199995499","0.391297199996188","0.44684510002844","1","1","1","1","1","1","1","1","1"
"250021","img/neutralC/CFD-IF-676-017-N.jpg","img/neutralC/CFD-WM-023-001-N.jpg","img/neutralC/CFD-AF-237-223-N.jpg","1","0","1","1","0","0","0.44684510002844","0.386932199995499","0.451330500014592","1","1","1","1","1","1","1","1","1"
"250021","img/neutralC/CFD-AF-237-223-N.jpg","img/neutralC/CFD-IF-676-017-N.jpg","img/neutralC/CFD-IM-689-263-N.jpg","1","1","1","0","1","1","0.451330500014592","0.44684510002844","0.396309300034773","1","1","1","1","1","1","1","1","1"
"250021","img/neutralC/CFD-IM-689-263-N.jpg","img/neutralC/CFD-AF-237-223-N.jpg","img/neutralC/CFD-BM-030-003-N.jpg","1","1","1","1","0","0","0.396309300034773","0.451330500014592","0.494225799979176","1","1","1","1","1","1","1","1","1"
"250021","img/neutralC/CFD-BM-030-003-N.jpg","img/neutralC/CFD-IM-689-263-N.jpg","img/neutralC/CFD-LF-238-154-N.jpg","1","1","1","0","1","1","0.494225799979176","0.396309300034773","0.393095000006724","1","1","1","1","1","1","1","1","1"
"250021","img/neutralC/CFD-LF-238-154-N.jpg","img/neutralC/CFD-BM-030-003-N.jpg","img/neutralC/CFD-BM-043-071-N.jpg","1","1","1","1","0","0","0.393095000006724","0.494225799979176","0.65618660004111","1","1","1","1","1","1","1","1","1"
"250021","img/neutralC/CFD-BM-043-071-N.jpg","img/neutralC/CFD-LF-238-154-N.jpg","img/neutralC/CFD-BM-227-191-N.jpg","1","1","1","0","1","1","0.65618660004111","0.393095000006724","0.35200369998347","1","1","1","1","1","1","1","1","1"
"250021","img/neutralC/CFD-BM-227-191-N.jpg","img/neutralC/CFD-BM-043-071-N.jpg","img/neutralC/CFD-MM-306-010-N.jpg","1","1","0","1","0","0","0.35200369998347","0.65618660004111","0.38679390004836","1","1","1","1","1","1","1","1","1"
"250021","img/neutralC/CFD-MM-306-010-N.jpg","img/neutralC/CFD-BM-227-191-N.jpg","img/neutralC/CFD-BF-012-001-N.jpg","0","1","1","0","1","0","0.38679390004836","0.35200369998347","0.557312100019772","1","1","1","1","1","1","1","1","1"
"250021","img/neutralC/CFD-BF-012-001-N.jpg","img/neutralC/CFD-MM-306-010-N.jpg","img/neutralC/CFD-WF-207-014-N.jpg","1","0","1","0","0","1","0.557312100019772","0.38679390004836","0.348263199965004","1","1","1","1","1","1","1","1","1"
"250021","img/neutralC/CFD-WF-207-014-N.jpg","img/neutralC/CFD-BF-012-001-N.jpg","img/neutralC/CFD-WF-221-005-N.jpg","1","1","1","1","0","0","0.348263199965004","0.557312100019772","0.460490800032858","1","1","1","1","1","1","1","1","1"
"250021","img/neutralC/CFD-WF-221-005-N.jpg","img/neutralC/CFD-WF-207-014-N.jpg","img/neutralC/CFD-MF-328-020-N.jpg","1","1","1","0","1","0","0.460490800032858","0.348263199965004","0.526484200032428","1","1","1","1","1","1","1","1","1"
"250021","img/neutralC/CFD-MF-328-020-N.jpg","img/neutralC/CFD-WF-221-005-N.jpg","img/neutralC/CFD-LF-222-147-N.jpg","1","1","1","0","0","0","0.526484200032428","0.460490800032858","0.558370499988087","1","1","1","1","1","1","1","1","1"
"250021","img/neutralC/CFD-LF-222-147-N.jpg","img/neutralC/CFD-MF-328-020-N.jpg","img/neutralC/CFD-IM-606-008-N.jpg","1","1","1","0","0","0","0.558370499988087","0.526484200032428","0.472312999947462","1","1","1","1","1","1","1","1","1"
"250021","img/neutralC/CFD-IM-606-008-N.jpg","img/neutralC/CFD-LF-222-147-N.jpg","img/neutralC/CFD-BF-244-231-N.jpg","1","1","1","0","0","1","0.472312999947462","0.558370499988087","0.437024199985899","1","1","1","1","1","1","1","1","1"
"250021","img/neutralC/CFD-BF-244-231-N.jpg","img/neutralC/CFD-IM-606-008-N.jpg","img/neutralC/CFD-LF-212-066-N.jpg","1","1","1","1","0","1","0.437024199985899","0.472312999947462","0.377961500023957","1","1","1","1","1","1","1","1","1"
"250021","img/neutralC/CFD-LF-212-066-N.jpg","img/neutralC/CFD-BF-244-231-N.jpg","img/neutralC/CFD-IM-697-015-N.jpg","1","1","1","1","1","1","0.377961500023957","0.437024199985899","0.392510999983642","1","1","1","1","1","1","1","1","1"
"250021","img/neutralC/CFD-IM-697-015-N.jpg","img/neutralC/CFD-LF-212-066-N.jpg","img/neutralC/CFD-WF-241-210-N.jpg","1","1","1","1","1","0","0.392510999983642","0.377961500023957","0.609262500016484","1","1","1","1","1","1","1","1","1"
"250021","img/neutralC/CFD-WF-241-210-N.jpg","img/neutralC/CFD-IM-697-015-N.jpg","img/neutralC/CFD-AM-249-163-N.jpg","1","1","1","0","1","1","0.609262500016484","0.392510999983642","0.373145499965176","1","1","1","1","1","1","1","1","1"
"250021","img/neutralC/CFD-AM-249-163-N.jpg","img/neutralC/CFD-WF-241-210-N.jpg","img/neutralC/CFD-AM-205-153-N.jpg","1","1","1","1","0","1","0.373145499965176","0.609262500016484","0.366831699968316","1","1","1","1","1","1","1","1","1"
"250021","img/neutralC/CFD-AM-205-153-N.jpg","img/neutralC/CFD-AM-249-163-N.jpg",NA,"1","1",NA,"1","1",NA,"0.366831699968316","0.373145499965176",NA,"1","1",NA,"1","1",NA,"1","1",NA
"250021","img/neutralC/CFD-BM-231-155-N.jpg",NA,"img/neutralC/CFD-WM-017-002-N.jpg","1",NA,"1","1",NA,"0","0.61628750001546",NA,"0.480520600045566","1",NA,"1","1",NA,"1","1",NA,"1"
"250021","img/neutralC/CFD-WM-017-002-N.jpg","img/neutralC/CFD-BM-231-155-N.jpg","img/neutralC/CFD-WF-209-052-N.jpg","1","1","1","0","1","1","0.480520600045566","0.61628750001546","0.410939300025348","1","1","1","1","1","1","1","1","1"
"250021","img/neutralC/CFD-WF-209-052-N.jpg","img/neutralC/CFD-WM-017-002-N.jpg","img/neutralC/CFD-LM-226-175-N.jpg","1","1","1","1","0","0","0.410939300025348","0.480520600045566","0.50428870000178","1","1","1","1","1","1","1","1","1"
"250021","img/neutralC/CFD-LM-226-175-N.jpg","img/neutralC/CFD-WF-209-052-N.jpg","img/neutralC/CFD-IM-653-008-N.jpg","1","1","1","0","1","0","0.50428870000178","0.410939300025348","0.468658400001004","1","1","1","1","1","1","1","1","1"
"250021","img/neutralC/CFD-IM-653-008-N.jpg","img/neutralC/CFD-LM-226-175-N.jpg","img/neutralC/CFD-IM-617-174-N.jpg","1","1","1","0","0","0","0.468658400001004","0.50428870000178","0.486385800002609","1","1","1","1","1","1","1","1","1"
"250021","img/neutralC/CFD-IM-617-174-N.jpg","img/neutralC/CFD-IM-653-008-N.jpg","img/neutralC/CFD-LF-250-169-N.jpg","1","1","1","0","0","1","0.486385800002609","0.468658400001004","0.358052600000519","1","1","1","1","1","1","1","1","1"
"250021","img/neutralC/CFD-LF-250-169-N.jpg","img/neutralC/CFD-IM-617-174-N.jpg","img/neutralC/CFD-WM-227-099-N.jpg","1","1","1","1","0","1","0.358052600000519","0.486385800002609","0.40269369998714","1","1","1","1","1","1","1","1","1"
"250021","img/neutralC/CFD-WM-227-099-N.jpg","img/neutralC/CFD-LF-250-169-N.jpg","img/neutralC/CFD-LM-233-171-N.jpg","1","1","1","1","1","0","0.40269369998714","0.358052600000519","0.437253399984911","1","1","1","1","1","1","1","1","1"
"250021","img/neutralC/CFD-LM-233-171-N.jpg","img/neutralC/CFD-WM-227-099-N.jpg","img/neutralC/CFD-WM-242-011-N.jpg","1","1","1","0","1","0","0.437253399984911","0.40269369998714","0.457028599979822","1","1","1","1","1","1","1","1","1"
"250021","img/neutralC/CFD-WM-242-011-N.jpg","img/neutralC/CFD-LM-233-171-N.jpg","img/neutralC/CFD-BF-010-001-N.jpg","1","1","1","0","0","1","0.457028599979822","0.437253399984911","0.407501899986528","1","1","1","1","1","1","1","1","1"
"250021","img/neutralC/CFD-BF-010-001-N.jpg","img/neutralC/CFD-WM-242-011-N.jpg","img/neutralC/CFD-BM-018-001-N.jpg","1","1","1","1","0","1","0.407501899986528","0.457028599979822","0.31225950003136","1","1","1","1","1","1","1","1","1"
"250021","img/neutralC/CFD-BM-018-001-N.jpg","img/neutralC/CFD-BF-010-001-N.jpg","img/neutralC/CFD-LM-219-295-N.jpg","1","1","1","1","1","1","0.31225950003136","0.407501899986528","0.374093100021128","1","1","1","1","1","1","1","1","1"
"250021","img/neutralC/CFD-LM-219-295-N.jpg","img/neutralC/CFD-BM-018-001-N.jpg","img/neutralC/CFD-LF-245-166-N.jpg","1","1","1","1","1","1","0.374093100021128","0.31225950003136","0.318365599960089","1","1","1","1","1","1","1","1","1"
"250021","img/neutralC/CFD-LF-245-166-N.jpg","img/neutralC/CFD-LM-219-295-N.jpg","img/neutralC/CFD-BM-005-003-N.jpg","1","1","1","1","1","1","0.318365599960089","0.374093100021128","0.355102600005921","1","1","1","1","1","1","1","1","1"
"250021","img/neutralC/CFD-BM-005-003-N.jpg","img/neutralC/CFD-LF-245-166-N.jpg","img/neutralC/CFD-BF-238-190-N.jpg","1","1","1","1","1","1","0.355102600005921","0.318365599960089","0.348020999983419","1","1","1","1","1","1","1","1","1"
"250021","img/neutralC/CFD-BF-238-190-N.jpg","img/neutralC/CFD-BM-005-003-N.jpg","img/neutralC/CFD-LF-247-051-N.jpg","1","1","1","1","1","1","0.348020999983419","0.355102600005921","0.396636900026351","1","1","1","1","1","1","1","1","1"
"250021","img/neutralC/CFD-LF-247-051-N.jpg","img/neutralC/CFD-BF-238-190-N.jpg","img/neutralC/CFD-IM-657-308-N.jpg","1","1","1","1","1","0","0.396636900026351","0.348020999983419","0.456136299995705","1","1","1","1","1","1","1","1","1"
"250021","img/neutralC/CFD-IM-657-308-N.jpg","img/neutralC/CFD-LF-247-051-N.jpg","img/neutralC/CFD-BM-026-002-N.jpg","1","1","1","0","1","0","0.456136299995705","0.396636900026351","0.698627200035844","1","1","1","1","1","1","1","1","1"
"250021","img/neutralC/CFD-BM-026-002-N.jpg","img/neutralC/CFD-IM-657-308-N.jpg","img/neutralC/CFD-IF-620-218-N.jpg","1","1","1","0","0","0","0.698627200035844","0.456136299995705","0.33148659998551","1","1","1","1","1","1","1","1","1"
"250021","img/neutralC/CFD-IF-620-218-N.jpg","img/neutralC/CFD-BM-026-002-N.jpg","img/neutralC/CFD-AF-202-122-N.jpg","1","1","1","0","0","1","0.33148659998551","0.698627200035844","0.388040099991485","1","1","1","1","1","1","1","1","1"
"250021","img/neutralC/CFD-AF-202-122-N.jpg","img/neutralC/CFD-IF-620-218-N.jpg","img/neutralC/CFD-BF-033-028-N.jpg","1","1","1","1","0","0","0.388040099991485","0.33148659998551","0.556674599996768","1","1","1","1","1","1","1","1","1"
"250021","img/neutralC/CFD-BF-033-028-N.jpg","img/neutralC/CFD-AF-202-122-N.jpg","img/neutralC/CFD-IM-727-195-N.jpg","1","1","1","0","1","1","0.556674599996768","0.388040099991485","0.40652170003159","1","1","1","1","1","1","1","1","1"
"250021","img/neutralC/CFD-IM-727-195-N.jpg","img/neutralC/CFD-BF-033-028-N.jpg","img/neutralC/CFD-WM-258-125-N.jpg","1","1","1","1","0","0","0.40652170003159","0.556674599996768","0.371587500034366","1","1","1","1","1","1","1","1","1"
"250021","img/neutralC/CFD-WM-258-125-N.jpg","img/neutralC/CFD-IM-727-195-N.jpg","img/neutralC/CFD-MF-313-002-N.jpg","1","1","1","0","1","0","0.371587500034366","0.40652170003159","0.47318880003877","1","1","1","1","1","1","1","1","1"
"250021","img/neutralC/CFD-MF-313-002-N.jpg","img/neutralC/CFD-WM-258-125-N.jpg","img/neutralC/CFD-AF-206-079-N.jpg","1","1","1","0","0","1","0.47318880003877","0.371587500034366","0.424958400020842","1","1","1","1","1","1","1","1","1"
"250021","img/neutralC/CFD-AF-206-079-N.jpg","img/neutralC/CFD-MF-313-002-N.jpg","img/neutralC/CFD-LF-242-121-N.jpg","1","1","1","1","0","0","0.424958400020842","0.47318880003877","0.639101399981882","1","1","1","1","1","1","1","1","1"
"250021","img/neutralC/CFD-LF-242-121-N.jpg","img/neutralC/CFD-AF-206-079-N.jpg","img/neutralC/CFD-IM-686-097-N.jpg","1","1","1","0","1","0","0.639101399981882","0.424958400020842","0.471457999956328","1","1","1","1","1","1","1","1","1"
"250021","img/neutralC/CFD-IM-686-097-N.jpg","img/neutralC/CFD-LF-242-121-N.jpg","img/neutralC/CFD-BM-212-117-N.jpg","1","1","1","0","0","0","0.471457999956328","0.639101399981882","0.381676600023638","1","1","1","1","1","1","1","1","1"
"250021","img/neutralC/CFD-BM-212-117-N.jpg","img/neutralC/CFD-IM-686-097-N.jpg","img/neutralC/CFD-AF-241-141-N.jpg","1","1","1","0","0","1","0.381676600023638","0.471457999956328","0.368666100024711","1","1","1","1","1","1","1","1","1"
"250021","img/neutralC/CFD-AF-241-141-N.jpg","img/neutralC/CFD-BM-212-117-N.jpg","img/neutralC/CFD-IF-665-015-N.jpg","1","1","1","1","0","0","0.368666100024711","0.381676600023638","0.489894800004549","1","1","1","1","1","1","1","1","1"
"250021","img/neutralC/CFD-IF-665-015-N.jpg","img/neutralC/CFD-AF-241-141-N.jpg","img/neutralC/CFD-IM-638-250-1-N.jpg","1","1","1","0","1","1","0.489894800004549","0.368666100024711","0.52009420003742","1","1","1","1","1","1","1","1","1"
"250021","img/neutralC/CFD-IM-638-250-1-N.jpg","img/neutralC/CFD-IF-665-015-N.jpg",NA,"1","1",NA,"1","0",NA,"0.52009420003742","0.489894800004549",NA,"1","1",NA,"1","1",NA,"1","1",NA
"250021","img/neutralC/CFD-WF-244-163-N.jpg",NA,"img/neutralC/CFD-LM-200-045-N.jpg","1",NA,"1","1",NA,"1","0.783751900016796",NA,"0.454541600018274","1",NA,"1","1",NA,"1","1",NA,"1"
"250021","img/neutralC/CFD-LM-200-045-N.jpg","img/neutralC/CFD-WF-244-163-N.jpg","img/neutralC/CFD-WF-007-001-N.jpg","1","1","1","1","1","1","0.454541600018274","0.783751900016796","0.542699400044512","1","1","1","1","1","1","1","1","1"
"250021","img/neutralC/CFD-WF-007-001-N.jpg","img/neutralC/CFD-LM-200-045-N.jpg","img/neutralC/CFD-WF-222-092-N.jpg","1","1","1","1","1","1","0.542699400044512","0.454541600018274","0.35171730001457","1","1","1","1","1","1","1","1","1"
"250021","img/neutralC/CFD-WF-222-092-N.jpg","img/neutralC/CFD-WF-007-001-N.jpg","img/neutralC/CFD-IF-626-375-N.jpg","1","1","1","1","1","0","0.35171730001457","0.542699400044512","0.433984699950088","1","1","1","1","1","1","1","1","1"
"250021","img/neutralC/CFD-IF-626-375-N.jpg","img/neutralC/CFD-WF-222-092-N.jpg","img/neutralC/CFD-AM-220-134-N.jpg","1","1","0","0","1","0","0.433984699950088","0.35171730001457","0.407863100001123","1","1","1","1","1","1","1","1","1"
"250021","img/neutralC/CFD-AM-220-134-N.jpg","img/neutralC/CFD-IF-626-375-N.jpg","img/neutralC/CFD-BF-237-172-N.jpg","0","1","1","0","0","1","0.407863100001123","0.433984699950088","0.355496099975426","1","1","1","1","1","1","1","1","1"
"250021","img/neutralC/CFD-BF-237-172-N.jpg","img/neutralC/CFD-AM-220-134-N.jpg","img/neutralC/CFD-MF-303-013-N.jpg","1","0","1","1","0","0","0.355496099975426","0.407863100001123","0.518645800009836","1","1","1","1","1","1","1","1","1"
"250021","img/neutralC/CFD-MF-303-013-N.jpg","img/neutralC/CFD-BF-237-172-N.jpg","img/neutralC/CFD-IM-680-369-N.jpg","1","1","1","0","1","1","0.518645800009836","0.355496099975426","0.426885599968955","1","1","1","1","1","1","1","1","1"
"250021","img/neutralC/CFD-IM-680-369-N.jpg","img/neutralC/CFD-MF-303-013-N.jpg","img/neutralC/CFD-LF-255-088-N.jpg","1","1","0","1","0","0","0.426885599968955","0.518645800009836","0.380401399976108","1","1","1","1","1","1","1","1","1"
"250021","img/neutralC/CFD-LF-255-088-N.jpg","img/neutralC/CFD-IM-680-369-N.jpg","img/neutralC/CFD-IM-702-101-N.jpg","0","1","1","0","1","1","0.380401399976108","0.426885599968955","0.515712800028268","1","1","1","1","1","1","1","1","1"
"250021","img/neutralC/CFD-IM-702-101-N.jpg","img/neutralC/CFD-LF-255-088-N.jpg","img/neutralC/CFD-WM-218-074-N.jpg","1","0","1","1","0","1","0.515712800028268","0.380401399976108","0.397900399984792","1","1","1","1","1","1","1","1","1"
"250021","img/neutralC/CFD-WM-218-074-N.jpg","img/neutralC/CFD-IM-702-101-N.jpg","img/neutralC/CFD-WF-030-002-N.jpg","1","1","1","1","1","0","0.397900399984792","0.515712800028268","0.511753500031773","1","1","1","1","1","1","1","1","1"
"250021","img/neutralC/CFD-WF-030-002-N.jpg","img/neutralC/CFD-WM-218-074-N.jpg","img/neutralC/CFD-MF-316-001-N.jpg","1","1","1","0","1","0","0.511753500031773","0.397900399984792","0.557246799988206","1","1","1","1","1","1","1","1","1"
"250021","img/neutralC/CFD-MF-316-001-N.jpg","img/neutralC/CFD-WF-030-002-N.jpg","img/neutralC/CFD-AF-233-190-N.jpg","1","1","1","0","0","0","0.557246799988206","0.511753500031773","0.471018699987326","1","1","1","1","1","1","1","1","1"
"250021","img/neutralC/CFD-AF-233-190-N.jpg","img/neutralC/CFD-MF-316-001-N.jpg","img/neutralC/CFD-LF-206-078-N.jpg","1","1","1","0","0","1","0.471018699987326","0.557246799988206","0.33966739999596","1","1","1","1","1","1","1","1","1"
"250021","img/neutralC/CFD-LF-206-078-N.jpg","img/neutralC/CFD-AF-233-190-N.jpg","img/neutralC/CFD-MF-357-002-N.jpg","1","1","1","1","0","0","0.33966739999596","0.471018699987326","0.407294399978127","1","1","1","1","1","1","1","1","1"
"250021","img/neutralC/CFD-MF-357-002-N.jpg","img/neutralC/CFD-LF-206-078-N.jpg","img/neutralC/CFD-BF-014-002-N.jpg","1","1","1","0","1","1","0.407294399978127","0.33966739999596","0.370700299972668","1","1","1","1","1","1","1","1","1"
"250021","img/neutralC/CFD-BF-014-002-N.jpg","img/neutralC/CFD-MF-357-002-N.jpg","img/neutralC/CFD-BM-250-170-N.jpg","1","1","1","1","0","1","0.370700299972668","0.407294399978127","0.353824999998324","1","1","1","1","1","1","1","1","1"
"250021","img/neutralC/CFD-BM-250-170-N.jpg","img/neutralC/CFD-BF-014-002-N.jpg","img/neutralC/CFD-MM-324-069-N.jpg","1","1","1","1","1","1","0.353824999998324","0.370700299972668","0.439673000015318","1","1","1","1","1","1","1","1","1"
"250021","img/neutralC/CFD-MM-324-069-N.jpg","img/neutralC/CFD-BM-250-170-N.jpg","img/neutralC/CFD-BM-001-014-N.jpg","1","1","0","1","1","0","0.439673000015318","0.353824999998324","0.460764599964023","1","1","1","1","1","1","1","1","1"
"250021","img/neutralC/CFD-BM-001-014-N.jpg","img/neutralC/CFD-MM-324-069-N.jpg","img/neutralC/CFD-MF-305-014-N.jpg","0","1","1","0","1","1","0.460764599964023","0.439673000015318","0.51076330000069","1","1","1","1","1","1","1","1","1"
"250021","img/neutralC/CFD-MF-305-014-N.jpg","img/neutralC/CFD-BM-001-014-N.jpg","img/neutralC/CFD-AF-253-130-N.jpg","1","0","1","1","0","1","0.51076330000069","0.460764599964023","0.439479900000151","1","1","1","1","1","1","1","1","1"
"250021","img/neutralC/CFD-AF-253-130-N.jpg","img/neutralC/CFD-MF-305-014-N.jpg","img/neutralC/CFD-IF-660-464-N.jpg","1","1","1","1","1","0","0.439479900000151","0.51076330000069","0.42670300003374","1","1","1","1","1","1","1","1","1"
"250021","img/neutralC/CFD-IF-660-464-N.jpg","img/neutralC/CFD-AF-253-130-N.jpg","img/neutralC/CFD-WM-015-002-N.jpg","1","1","0","0","1","0","0.42670300003374","0.439479900000151","0.493123699969146","1","1","1","1","1","1","1","1","2"
"250021","img/neutralC/CFD-WM-015-002-N.jpg","img/neutralC/CFD-IF-660-464-N.jpg","img/neutralC/CFD-MF-343-001-N.jpg","0","1","1","0","0","1","0.493123699969146","0.42670300003374","0.580552599974908","1","1","1","1","1","1","2","1","1"
"250021","img/neutralC/CFD-MF-343-001-N.jpg","img/neutralC/CFD-WM-015-002-N.jpg","img/neutralC/CFD-IM-667-369-N.jpg","1","0","1","1","0","0","0.580552599974908","0.493123699969146","0.497787900036201","1","1","1","1","1","1","1","2","1"
"250021","img/neutralC/CFD-IM-667-369-N.jpg","img/neutralC/CFD-MF-343-001-N.jpg","img/neutralC/CFD-WM-209-038-N.jpg","1","1","1","0","1","0","0.497787900036201","0.580552599974908","0.485741000040434","1","1","1","1","1","1","1","1","1"
"250021","img/neutralC/CFD-WM-209-038-N.jpg","img/neutralC/CFD-IM-667-369-N.jpg","img/neutralC/CFD-IM-706-002-N.jpg","1","1","1","0","0","0","0.485741000040434","0.497787900036201","0.568504599970765","1","1","1","1","1","1","1","1","1"
"250021","img/neutralC/CFD-IM-706-002-N.jpg","img/neutralC/CFD-WM-209-038-N.jpg","img/neutralC/CFD-BM-217-082-N.jpg","1","1","1","0","0","0","0.568504599970765","0.485741000040434","0.541720000037458","1","1","1","1","1","1","1","1","1"
"250021","img/neutralC/CFD-BM-217-082-N.jpg","img/neutralC/CFD-IM-706-002-N.jpg","img/neutralC/CFD-LM-225-130-N.jpg","1","1","1","0","0","0","0.541720000037458","0.568504599970765","0.620189999986906","1","1","1","1","1","1","1","1","1"
"250021","img/neutralC/CFD-LM-225-130-N.jpg","img/neutralC/CFD-BM-217-082-N.jpg","img/neutralC/CFD-IM-664-651-N.jpg","1","1","1","0","0","1","0.620189999986906","0.541720000037458","0.433643199969083","1","1","1","1","1","1","1","1","1"
"250021","img/neutralC/CFD-IM-664-651-N.jpg","img/neutralC/CFD-LM-225-130-N.jpg",NA,"1","1",NA,"1","0",NA,"0.433643199969083","0.620189999986906",NA,"1","1",NA,"1","1",NA,"1","1",NA
"250021","img/neutralC/CFD-BM-247-240-N.jpg",NA,"img/neutralC/CFD-IM-674-281-N.jpg","0",NA,"1","0",NA,"1","0.914769800030626",NA,"0.50188789999811","1",NA,"1","1",NA,"1","1",NA,"1"
"250021","img/neutralC/CFD-IM-674-281-N.jpg","img/neutralC/CFD-BM-247-240-N.jpg","img/neutralC/CFD-WM-040-022-N.jpg","1","0","1","1","0","0","0.50188789999811","0.914769800030626","0.530908100015949","1","1","1","1","1","1","1","1","1"
"250021","img/neutralC/CFD-WM-040-022-N.jpg","img/neutralC/CFD-IM-674-281-N.jpg","img/neutralC/CFD-BF-003-003-N.jpg","1","1","1","0","1","0","0.530908100015949","0.50188789999811","0.449111900001299","1","1","1","1","1","1","1","1","1"
"250021","img/neutralC/CFD-BF-003-003-N.jpg","img/neutralC/CFD-WM-040-022-N.jpg","img/neutralC/CFD-IM-728-041-N.jpg","1","1","1","0","0","0","0.449111900001299","0.530908100015949","0.493399999977555","1","1","1","1","1","1","1","1","1"
"250021","img/neutralC/CFD-IM-728-041-N.jpg","img/neutralC/CFD-BF-003-003-N.jpg","img/neutralC/CFD-WF-026-002-N.jpg","1","1","1","0","0","1","0.493399999977555","0.449111900001299","0.384708600002341","1","1","1","1","1","1","1","1","1"
"250021","img/neutralC/CFD-WF-026-002-N.jpg","img/neutralC/CFD-IM-728-041-N.jpg","img/neutralC/CFD-IM-639-263-N.jpg","1","1","1","1","0","1","0.384708600002341","0.493399999977555","0.3544931000215","1","1","1","1","1","1","1","1","1"
"250021","img/neutralC/CFD-IM-639-263-N.jpg","img/neutralC/CFD-WF-026-002-N.jpg","img/neutralC/CFD-BF-028-001-N.jpg","1","1","1","1","1","1","0.3544931000215","0.384708600002341","0.380458900006488","1","1","1","1","1","1","1","1","1"
"250021","img/neutralC/CFD-BF-028-001-N.jpg","img/neutralC/CFD-IM-639-263-N.jpg","img/neutralC/CFD-WF-002-004-N.jpg","1","1","1","1","1","0","0.380458900006488","0.3544931000215","0.581441599992104","1","1","1","1","1","1","1","1","1"
"250021","img/neutralC/CFD-WF-002-004-N.jpg","img/neutralC/CFD-BF-028-001-N.jpg","img/neutralC/CFD-WM-225-127-N.jpg","1","1","1","0","1","0","0.581441599992104","0.380458900006488","0.550691300013568","1","1","1","1","1","1","1","1","1"
"250021","img/neutralC/CFD-WM-225-127-N.jpg","img/neutralC/CFD-WF-002-004-N.jpg","img/neutralC/CFD-BM-015-015-N.jpg","1","1","1","0","0","0","0.550691300013568","0.581441599992104","0.465410400007386","1","1","1","1","1","1","1","1","1"
"250021","img/neutralC/CFD-BM-015-015-N.jpg","img/neutralC/CFD-WM-225-127-N.jpg","img/neutralC/CFD-BM-211-174-N.jpg","1","1","1","0","0","0","0.465410400007386","0.550691300013568","0.443817899969872","1","1","1","1","1","1","1","1","1"
"250021","img/neutralC/CFD-BM-211-174-N.jpg","img/neutralC/CFD-BM-015-015-N.jpg","img/neutralC/CFD-AM-235-241-N.jpg","1","1","1","0","0","0","0.443817899969872","0.465410400007386","0.479941199999303","1","1","1","1","1","1","1","1","1"
"250021","img/neutralC/CFD-AM-235-241-N.jpg","img/neutralC/CFD-BM-211-174-N.jpg","img/neutralC/CFD-IF-718-001-N.jpg","1","1","1","0","0","1","0.479941199999303","0.443817899969872","0.420078099996317","1","1","1","1","1","1","1","1","1"
"250021","img/neutralC/CFD-IF-718-001-N.jpg","img/neutralC/CFD-AM-235-241-N.jpg","img/neutralC/CFD-BF-201-080-N.jpg","1","1","1","1","0","1","0.420078099996317","0.479941199999303","0.344716500025243","1","1","1","1","1","1","1","1","1"
"250021","img/neutralC/CFD-BF-201-080-N.jpg","img/neutralC/CFD-IF-718-001-N.jpg","img/neutralC/CFD-LF-216-121-N.jpg","1","1","1","1","1","1","0.344716500025243","0.420078099996317","0.342741100001149","1","1","1","1","1","1","1","1","1"
"250021","img/neutralC/CFD-LF-216-121-N.jpg","img/neutralC/CFD-BF-201-080-N.jpg","img/neutralC/CFD-LM-252-076-N.jpg","1","1","1","1","1","1","0.342741100001149","0.344716500025243","0.523086600005627","1","1","1","1","1","1","1","1","1"
"250021","img/neutralC/CFD-LM-252-076-N.jpg","img/neutralC/CFD-LF-216-121-N.jpg","img/neutralC/CFD-BF-255-140-N.jpg","1","1","1","1","1","1","0.523086600005627","0.342741100001149","0.488579400000162","1","1","1","1","1","1","1","1","1"
"250021","img/neutralC/CFD-BF-255-140-N.jpg","img/neutralC/CFD-LM-252-076-N.jpg","img/neutralC/CFD-BM-029-024-N.jpg","1","1","1","1","1","1","0.488579400000162","0.523086600005627","0.313775400049053","1","1","1","1","1","1","1","1","1"
"250021","img/neutralC/CFD-BM-029-024-N.jpg","img/neutralC/CFD-BF-255-140-N.jpg","img/neutralC/CFD-LF-236-221-N.jpg","1","1","1","1","1","1","0.313775400049053","0.488579400000162","0.493491799978074","1","1","1","1","1","1","1","1","1"
"250021","img/neutralC/CFD-LF-236-221-N.jpg","img/neutralC/CFD-BM-029-024-N.jpg","img/neutralC/CFD-MM-319-052-N.jpg","1","1","1","1","1","1","0.493491799978074","0.313775400049053","0.535613299987745","1","1","1","1","1","1","1","1","1"
"250021","img/neutralC/CFD-MM-319-052-N.jpg","img/neutralC/CFD-LF-236-221-N.jpg","img/neutralC/CFD-IF-672-305-N.jpg","1","1","1","1","1","0","0.535613299987745","0.493491799978074","0.509084100020118","1","1","1","1","1","1","1","1","1"
"250021","img/neutralC/CFD-IF-672-305-N.jpg","img/neutralC/CFD-MM-319-052-N.jpg","img/neutralC/CFD-WF-022-017-N.jpg","1","1","1","0","1","0","0.509084100020118","0.535613299987745","0.519545899995137","1","1","1","1","1","1","1","1","1"
"250021","img/neutralC/CFD-WF-022-017-N.jpg","img/neutralC/CFD-IF-672-305-N.jpg","img/neutralC/CFD-BF-204-189-N.jpg","1","1","1","0","0","1","0.519545899995137","0.509084100020118","0.623979699972551","1","1","1","1","1","1","1","1","1"
"250021","img/neutralC/CFD-BF-204-189-N.jpg","img/neutralC/CFD-WF-022-017-N.jpg","img/neutralC/CFD-BM-027-001-N.jpg","1","1","1","1","0","0","0.623979699972551","0.519545899995137","0.516559000010602","1","1","1","1","1","1","1","1","1"
"250021","img/neutralC/CFD-BM-027-001-N.jpg","img/neutralC/CFD-BF-204-189-N.jpg","img/neutralC/CFD-BF-023-010-N.jpg","1","1","1","0","1","1","0.516559000010602","0.623979699972551","0.508737399999518","1","1","1","1","1","1","1","1","1"
"250021","img/neutralC/CFD-BF-023-010-N.jpg","img/neutralC/CFD-BM-027-001-N.jpg","img/neutralC/CFD-AM-217-085-N.jpg","1","1","1","1","0","0","0.508737399999518","0.516559000010602","0.459847799967974","1","1","1","1","1","1","1","1","1"
"250021","img/neutralC/CFD-AM-217-085-N.jpg","img/neutralC/CFD-BF-023-010-N.jpg","img/neutralC/CFD-WM-257-161-N.jpg","1","1","1","0","1","1","0.459847799967974","0.508737399999518","0.394895499979611","1","1","1","1","1","1","1","1","1"
"250021","img/neutralC/CFD-WM-257-161-N.jpg","img/neutralC/CFD-AM-217-085-N.jpg","img/neutralC/CFD-BF-208-266-N.jpg","1","1","0","1","0","0","0.394895499979611","0.459847799967974","0.445851899974514","1","1","1","1","1","1","1","1","1"
"250021","img/neutralC/CFD-BF-208-266-N.jpg","img/neutralC/CFD-WM-257-161-N.jpg","img/neutralC/CFD-WM-002-009-N.jpg","0","1","1","0","1","0","0.445851899974514","0.394895499979611","0.530348500004038","1","1","1","1","1","1","1","1","1"
"250021","img/neutralC/CFD-WM-002-009-N.jpg","img/neutralC/CFD-BF-208-266-N.jpg","img/neutralC/CFD-WM-038-003-N.jpg","1","0","1","0","0","0","0.530348500004038","0.445851899974514","0.509879000019282","1","1","1","1","1","1","1","1","1"
"250021","img/neutralC/CFD-WM-038-003-N.jpg","img/neutralC/CFD-WM-002-009-N.jpg","img/neutralC/CFD-AM-215-120-N.jpg","1","1","1","0","0","1","0.509879000019282","0.530348500004038","0.402591200021561","1","1","1","1","1","1","1","1","1"
"250021","img/neutralC/CFD-AM-215-120-N.jpg","img/neutralC/CFD-WM-038-003-N.jpg",NA,"1","1",NA,"1","0",NA,"0.402591200021561","0.509879000019282",NA,"1","1",NA,"1","1",NA,"1","1",NA
"250021","img/neutralC/CFD-WF-023-003-N.jpg",NA,"img/neutralC/CFD-WF-027-003-N.jpg","1",NA,"1","1",NA,"1","0.728719300008379",NA,"0.390280499996152","1",NA,"1","1",NA,"1","1",NA,"1"
"250021","img/neutralC/CFD-WF-027-003-N.jpg","img/neutralC/CFD-WF-023-003-N.jpg","img/neutralC/CFD-WF-226-095-N.jpg","1","1","1","1","1","1","0.390280499996152","0.728719300008379","0.322431400010828","1","1","1","1","1","1","1","1","1"
"250021","img/neutralC/CFD-WF-226-095-N.jpg","img/neutralC/CFD-WF-027-003-N.jpg","img/neutralC/CFD-AM-244-222-N.jpg","1","1","1","1","1","0","0.322431400010828","0.390280499996152","0.342888400016818","1","1","1","1","1","1","1","1","1"
"250021","img/neutralC/CFD-AM-244-222-N.jpg","img/neutralC/CFD-WF-226-095-N.jpg","img/neutralC/CFD-IF-629-234-N.jpg","1","1","1","0","1","0","0.342888400016818","0.322431400010828","0.430460899951868","1","1","1","1","1","1","1","1","1"
"250021","img/neutralC/CFD-IF-629-234-N.jpg","img/neutralC/CFD-AM-244-222-N.jpg","img/neutralC/CFD-AF-221-147-N.jpg","1","1","1","0","0","0","0.430460899951868","0.342888400016818","0.302553499990609","1","1","1","1","1","1","1","1","1"
"250021","img/neutralC/CFD-AF-221-147-N.jpg","img/neutralC/CFD-IF-629-234-N.jpg","img/neutralC/CFD-LM-253-075-N.jpg","1","1","1","0","0","0","0.302553499990609","0.430460899951868","0.421563100011554","1","1","1","1","1","1","1","1","1"
"250021","img/neutralC/CFD-LM-253-075-N.jpg","img/neutralC/CFD-AF-221-147-N.jpg","img/neutralC/CFD-BM-023-029-N.jpg","1","1","1","0","0","1","0.421563100011554","0.302553499990609","0.394640700018499","1","1","1","1","1","1","1","1","1"
"250021","img/neutralC/CFD-BM-023-029-N.jpg","img/neutralC/CFD-LM-253-075-N.jpg","img/neutralC/CFD-IM-719-221-N.jpg","1","1","1","1","0","0","0.394640700018499","0.421563100011554","0.29965549998451","1","1","1","1","1","1","1","1","1"
"250021","img/neutralC/CFD-IM-719-221-N.jpg","img/neutralC/CFD-BM-023-029-N.jpg","img/neutralC/CFD-MM-321-021-N.jpg","1","1","1","0","1","0","0.29965549998451","0.394640700018499","0.426488599972799","1","1","1","1","1","1","1","1","1"
"250021","img/neutralC/CFD-MM-321-021-N.jpg","img/neutralC/CFD-IM-719-221-N.jpg","img/neutralC/CFD-LF-211-003-N.jpg","1","1","1","0","0","0","0.426488599972799","0.29965549998451","0.69285089999903","1","1","1","1","1","1","1","1","1"
"250021","img/neutralC/CFD-LF-211-003-N.jpg","img/neutralC/CFD-MM-321-021-N.jpg","img/neutralC/CFD-WF-238-023-N.jpg","1","1","0","0","0","0","0.69285089999903","0.426488599972799","0.395624600001611","1","1","1","1","1","1","1","1","1"
"250021","img/neutralC/CFD-WF-238-023-N.jpg","img/neutralC/CFD-LF-211-003-N.jpg","img/neutralC/CFD-WM-255-219-N.jpg","0","1","0","0","0","0","0.395624600001611","0.69285089999903","0.453301700006705","1","1","1","1","1","1","1","1","1"
"250021","img/neutralC/CFD-WM-255-219-N.jpg","img/neutralC/CFD-WF-238-023-N.jpg","img/neutralC/CFD-BF-218-207-N.jpg","0","0","1","0","0","1","0.453301700006705","0.395624600001611","0.394634100026451","1","1","1","1","1","1","1","1","1"
"250021","img/neutralC/CFD-BF-218-207-N.jpg","img/neutralC/CFD-WM-255-219-N.jpg","img/neutralC/CFD-WM-221-091-N.jpg","1","0","1","1","0","0","0.394634100026451","0.453301700006705","0.494196799991187","1","1","1","1","1","1","1","1","1"
"250021","img/neutralC/CFD-WM-221-091-N.jpg","img/neutralC/CFD-BF-218-207-N.jpg","img/neutralC/CFD-BF-254-201-N.jpg","1","1","1","0","1","0","0.494196799991187","0.394634100026451","0.419205499987584","1","1","1","1","1","1","1","1","1"
"250021","img/neutralC/CFD-BF-254-201-N.jpg","img/neutralC/CFD-WM-221-091-N.jpg","img/neutralC/CFD-AF-232-078-N.jpg","1","1","1","0","0","1","0.419205499987584","0.494196799991187","0.375868000031915","1","1","1","1","1","1","1","1","1"
"250021","img/neutralC/CFD-AF-232-078-N.jpg","img/neutralC/CFD-BF-254-201-N.jpg","img/neutralC/CFD-WF-018-017-N.jpg","1","1","1","1","0","1","0.375868000031915","0.419205499987584","0.436866700008977","1","1","1","1","1","1","1","1","1"
"250021","img/neutralC/CFD-WF-018-017-N.jpg","img/neutralC/CFD-AF-232-078-N.jpg","img/neutralC/CFD-LF-215-157-N.jpg","1","1","1","1","1","0","0.436866700008977","0.375868000031915","0.581810800009407","1","1","1","1","1","1","1","1","1"
"250021","img/neutralC/CFD-LF-215-157-N.jpg","img/neutralC/CFD-WF-018-017-N.jpg","img/neutralC/CFD-WM-009-002-N.jpg","1","1","0","0","1","0","0.581810800009407","0.436866700008977","0.420731899968814","1","1","1","1","1","1","1","1","1"
"250021","img/neutralC/CFD-WM-009-002-N.jpg","img/neutralC/CFD-LF-215-157-N.jpg","img/neutralC/CFD-WF-245-084-N.jpg","0","1","1","0","0","1","0.420731899968814","0.581810800009407","0.416247999994084","1","1","1","1","1","1","1","1","1"
"250021","img/neutralC/CFD-WF-245-084-N.jpg","img/neutralC/CFD-WM-009-002-N.jpg","img/neutralC/CFD-BF-018-039-N.jpg","1","0","1","1","0","1","0.416247999994084","0.420731899968814","0.3661037000129","1","1","1","1","1","1","1","1","1"
"250021","img/neutralC/CFD-BF-018-039-N.jpg","img/neutralC/CFD-WF-245-084-N.jpg","img/neutralC/CFD-MF-321-003-N.jpg","1","1","1","1","1","0","0.3661037000129","0.416247999994084","0.42246300005354","1","1","1","1","1","1","1","1","1"
"250021","img/neutralC/CFD-MF-321-003-N.jpg","img/neutralC/CFD-BF-018-039-N.jpg","img/neutralC/CFD-WM-201-063-N.jpg","1","1","1","0","1","1","0.42246300005354","0.3661037000129","0.35407539998414","1","1","1","1","1","1","1","1","1"
"250021","img/neutralC/CFD-WM-201-063-N.jpg","img/neutralC/CFD-MF-321-003-N.jpg","img/neutralC/CFD-MF-318-022-N.jpg","1","1","1","1","0","1","0.35407539998414","0.42246300005354","0.359857900009956","1","1","1","1","1","1","1","1","1"
"250021","img/neutralC/CFD-MF-318-022-N.jpg","img/neutralC/CFD-WM-201-063-N.jpg","img/neutralC/CFD-BM-204-003-N.jpg","1","1","1","1","1","0","0.359857900009956","0.35407539998414","0.345389599970076","1","1","1","1","1","1","1","1","1"
"250021","img/neutralC/CFD-BM-204-003-N.jpg","img/neutralC/CFD-MF-318-022-N.jpg","img/neutralC/CFD-IM-627-178-N.jpg","1","1","1","0","1","1","0.345389599970076","0.359857900009956","0.292906499991659","1","1","1","1","1","1","1","1","1"
"250021","img/neutralC/CFD-IM-627-178-N.jpg","img/neutralC/CFD-BM-204-003-N.jpg","img/neutralC/CFD-WM-237-052-N.jpg","1","1","0","1","0","1","0.292906499991659","0.345389599970076","0.253364600008354","1","1","1","1","1","1","1","1","1"
"250021","img/neutralC/CFD-WM-237-052-N.jpg","img/neutralC/CFD-IM-627-178-N.jpg","img/neutralC/CFD-BM-200-046-N.jpg","0","1","1","1","1","0","0.253364600008354","0.292906499991659","0.448314999986906","1","1","1","1","1","1","1","1","1"
"250021","img/neutralC/CFD-BM-200-046-N.jpg","img/neutralC/CFD-WM-237-052-N.jpg","img/neutralC/CFD-MF-342-022-N.jpg","1","0","1","0","1","1","0.448314999986906","0.253364600008354","0.414529100002255","1","1","1","1","1","1","1","1","1"
"250021","img/neutralC/CFD-MF-342-022-N.jpg","img/neutralC/CFD-BM-200-046-N.jpg","img/neutralC/CFD-IM-700-009-N.jpg","1","1","1","1","0","1","0.414529100002255","0.448314999986906","0.423828000028152","1","1","1","1","1","1","1","1","1"
"250021","img/neutralC/CFD-IM-700-009-N.jpg","img/neutralC/CFD-MF-342-022-N.jpg","img/neutralC/CFD-WM-013-001-N.jpg","1","1","1","1","1","1","0.423828000028152","0.414529100002255","0.395086200034712","1","1","1","1","1","1","1","1","1"
"250021","img/neutralC/CFD-WM-013-001-N.jpg","img/neutralC/CFD-IM-700-009-N.jpg",NA,"1","1",NA,"1","1",NA,"0.395086200034712","0.423828000028152",NA,"1","1",NA,"1","1",NA,"1","1",NA
"250021","img/neutralC/CFD-BF-202-109-N.jpg",NA,"img/neutralC/CFD-MF-309-002-N.jpg","1",NA,"1","1",NA,"0","0.591571900004055",NA,"0.609161900007166","1",NA,"1","1",NA,"1","1",NA,"1"
"250021","img/neutralC/CFD-MF-309-002-N.jpg","img/neutralC/CFD-BF-202-109-N.jpg","img/neutralC/CFD-LM-216-082-N.jpg","1","1","1","0","1","0","0.609161900007166","0.591571900004055","0.455841599963605","1","1","1","1","1","1","1","1","1"
"250021","img/neutralC/CFD-LM-216-082-N.jpg","img/neutralC/CFD-MF-309-002-N.jpg","img/neutralC/CFD-MF-335-002-N.jpg","1","1","1","0","0","0","0.455841599963605","0.609161900007166","0.40271809999831","1","1","1","1","1","1","1","1","1"
"250021","img/neutralC/CFD-MF-335-002-N.jpg","img/neutralC/CFD-LM-216-082-N.jpg","img/neutralC/CFD-WM-212-097-N.jpg","1","1","1","0","0","0","0.40271809999831","0.455841599963605","0.34898189996602","1","1","1","1","1","1","1","1","1"
"250021","img/neutralC/CFD-WM-212-097-N.jpg","img/neutralC/CFD-MF-335-002-N.jpg","img/neutralC/CFD-WM-019-003-N.jpg","1","1","1","0","0","1","0.34898189996602","0.40271809999831","0.351653899997473","1","1","1","1","1","1","1","1","1"
"250021","img/neutralC/CFD-WM-019-003-N.jpg","img/neutralC/CFD-WM-212-097-N.jpg","img/neutralC/CFD-LM-201-057-N.jpg","1","1","1","1","0","1","0.351653899997473","0.34898189996602","0.3276046999963","1","1","1","1","1","1","1","1","1"
"250021","img/neutralC/CFD-LM-201-057-N.jpg","img/neutralC/CFD-WM-019-003-N.jpg","img/neutralC/CFD-AF-240-206-N.jpg","1","1","1","1","1","0","0.3276046999963","0.351653899997473","0.322297599981539","1","1","1","1","1","1","1","1","1"
"250021","img/neutralC/CFD-AF-240-206-N.jpg","img/neutralC/CFD-LM-201-057-N.jpg","img/neutralC/CFD-BF-228-212-N.jpg","1","1","0","0","1","0","0.322297599981539","0.3276046999963","0.379874899983406","1","1","1","1","1","1","1","1","1"
"250021","img/neutralC/CFD-BF-228-212-N.jpg","img/neutralC/CFD-AF-240-206-N.jpg","img/neutralC/CFD-LM-244-068-N.jpg","0","1","1","0","0","1","0.379874899983406","0.322297599981539","0.354407800012268","1","1","1","1","1","1","1","1","1"
"250021","img/neutralC/CFD-LM-244-068-N.jpg","img/neutralC/CFD-BF-228-212-N.jpg","img/neutralC/CFD-WF-005-010-N.jpg","1","0","1","1","0","0","0.354407800012268","0.379874899983406","0.255497500009369","1","1","1","1","1","1","1","1","1"
"250021","img/neutralC/CFD-WF-005-010-N.jpg","img/neutralC/CFD-LM-244-068-N.jpg","img/neutralC/CFD-BM-205-001-N.jpg","1","1","0","0","1","0","0.255497500009369","0.354407800012268","0.338904200005345","1","1","1","1","1","1","1","1","1"
"250021","img/neutralC/CFD-BM-205-001-N.jpg","img/neutralC/CFD-WF-005-010-N.jpg","img/neutralC/CFD-BM-251-013-N.jpg","0","1","1","0","0","1","0.338904200005345","0.255497500009369","0.407755799998995","1","1","1","1","1","1","1","1","1"
"250021","img/neutralC/CFD-BM-251-013-N.jpg","img/neutralC/CFD-BM-205-001-N.jpg","img/neutralC/CFD-WM-006-002-N.jpg","1","0","1","1","0","0","0.407755799998995","0.338904200005345","0.587036399985664","1","1","1","1","1","1","1","1","1"
"250021","img/neutralC/CFD-WM-006-002-N.jpg","img/neutralC/CFD-BM-251-013-N.jpg","img/neutralC/CFD-IM-648-337-N.jpg","1","1","1","0","1","0","0.587036399985664","0.407755799998995","0.453854000021238","1","1","1","1","1","1","1","1","1"
"250021","img/neutralC/CFD-IM-648-337-N.jpg","img/neutralC/CFD-WM-006-002-N.jpg","img/neutralC/CFD-WM-026-001-N.jpg","1","1","1","0","0","1","0.453854000021238","0.587036399985664","0.336612099956255","1","1","1","1","1","1","1","1","1"
"250021","img/neutralC/CFD-WM-026-001-N.jpg","img/neutralC/CFD-IM-648-337-N.jpg","img/neutralC/CFD-WM-012-001-N.jpg","1","1","1","1","0","1","0.336612099956255","0.453854000021238","0.294634299993049","1","1","1","1","1","1","1","1","1"
"250021","img/neutralC/CFD-WM-012-001-N.jpg","img/neutralC/CFD-WM-026-001-N.jpg","img/neutralC/CFD-IF-642-295-N.jpg","1","1","1","1","1","1","0.294634299993049","0.336612099956255","0.373830700002145","1","1","1","1","1","1","1","1","1"
"250021","img/neutralC/CFD-IF-642-295-N.jpg","img/neutralC/CFD-WM-012-001-N.jpg","img/neutralC/CFD-BM-248-128-N.jpg","1","1","0","1","1","0","0.373830700002145","0.294634299993049","0.415345199988224","1","1","1","1","1","1","1","1","1"
"250021","img/neutralC/CFD-BM-248-128-N.jpg","img/neutralC/CFD-IF-642-295-N.jpg","img/neutralC/CFD-IM-646-023-N.jpg","0","1","1","0","1","1","0.415345199988224","0.373830700002145","0.405640900018625","1","1","1","1","1","1","1","1","1"
"250021","img/neutralC/CFD-IM-646-023-N.jpg","img/neutralC/CFD-BM-248-128-N.jpg","img/neutralC/CFD-WM-215-041-N.jpg","1","0","1","1","0","0","0.405640900018625","0.415345199988224","0.420014199975412","1","1","1","1","1","1","1","1","1"
"250021","img/neutralC/CFD-WM-215-041-N.jpg","img/neutralC/CFD-IM-646-023-N.jpg","img/neutralC/CFD-LM-214-165-N.jpg","1","1","1","0","1","1","0.420014199975412","0.405640900018625","0.395615000044927","1","1","1","1","1","1","1","1","1"
"250021","img/neutralC/CFD-LM-214-165-N.jpg","img/neutralC/CFD-WM-215-041-N.jpg","img/neutralC/CFD-WM-249-239-N.jpg","1","1","1","1","0","1","0.395615000044927","0.420014199975412","0.406753999995999","1","1","1","1","1","1","1","1","1"
"250021","img/neutralC/CFD-WM-249-239-N.jpg","img/neutralC/CFD-LM-214-165-N.jpg","img/neutralC/CFD-WF-240-083-N.jpg","1","1","1","1","1","0","0.406753999995999","0.395615000044927","0.525713100039866","1","1","1","1","1","1","1","1","1"
"250021","img/neutralC/CFD-WF-240-083-N.jpg","img/neutralC/CFD-WM-249-239-N.jpg","img/neutralC/CFD-LM-243-075-N.jpg","1","1","1","0","1","0","0.525713100039866","0.406753999995999","0.533912100014277","1","1","1","1","1","1","1","1","1"
"250021","img/neutralC/CFD-LM-243-075-N.jpg","img/neutralC/CFD-WF-240-083-N.jpg","img/neutralC/CFD-MM-317-061-N.jpg","1","1","1","0","0","1","0.533912100014277","0.525713100039866","0.367750899982639","1","1","1","1","1","1","1","1","1"
"250021","img/neutralC/CFD-MM-317-061-N.jpg","img/neutralC/CFD-LM-243-075-N.jpg","img/neutralC/CFD-WF-017-003-N.jpg","1","1","1","1","0","1","0.367750899982639","0.533912100014277","0.429936700034887","1","1","1","1","1","1","1","1","1"
"250021","img/neutralC/CFD-WF-017-003-N.jpg","img/neutralC/CFD-MM-317-061-N.jpg","img/neutralC/CFD-BF-041-001-N.jpg","1","1","1","1","1","1","0.429936700034887","0.367750899982639","0.374113700003363","1","1","1","1","1","1","1","1","1"
"250021","img/neutralC/CFD-BF-041-001-N.jpg","img/neutralC/CFD-WF-017-003-N.jpg","img/neutralC/CFD-BF-025-002-N.jpg","1","1","1","1","1","0","0.374113700003363","0.429936700034887","0.463354100007564","1","1","1","1","1","1","1","1","1"
"250021","img/neutralC/CFD-BF-025-002-N.jpg","img/neutralC/CFD-BF-041-001-N.jpg","img/neutralC/CFD-WF-228-196-N.jpg","1","1","1","0","1","0","0.463354100007564","0.374113700003363","0.518608100013807","1","1","1","1","1","1","1","1","1"
"250021","img/neutralC/CFD-WF-228-196-N.jpg","img/neutralC/CFD-BF-025-002-N.jpg","img/neutralC/CFD-AM-247-165-N.jpg","1","1","1","0","0","1","0.518608100013807","0.463354100007564","0.437569800007623","1","1","1","1","1","1","1","1","1"
"250021","img/neutralC/CFD-AM-247-165-N.jpg","img/neutralC/CFD-WF-228-196-N.jpg","img/neutralC/CFD-BF-212-315-N.jpg","1","1","1","1","0","1","0.437569800007623","0.518608100013807","0.321566700004041","1","1","1","1","1","1","1","1","1"
"250021","img/neutralC/CFD-BF-212-315-N.jpg","img/neutralC/CFD-AM-247-165-N.jpg",NA,"1","1",NA,"1","1",NA,"0.321566700004041","0.437569800007623",NA,"1","1",NA,"1","1",NA,"1","1",NA
"250021","img/neutralC/CFD-AF-227-207-N.jpg",NA,"img/neutralC/CFD-LF-225-164-N.jpg","1",NA,"1","1",NA,"1","0.693962600023951",NA,"0.39991600002395","1",NA,"1","1",NA,"1","1",NA,"1"
"250021","img/neutralC/CFD-LF-225-164-N.jpg","img/neutralC/CFD-AF-227-207-N.jpg","img/neutralC/CFD-LF-210-220-N.jpg","1","1","1","1","1","1","0.39991600002395","0.693962600023951","0.415546600008383","1","1","1","1","1","1","1","1","1"
"250021","img/neutralC/CFD-LF-210-220-N.jpg","img/neutralC/CFD-LF-225-164-N.jpg","img/neutralC/CFD-BM-003-003-N.jpg","1","1","1","1","1","0","0.415546600008383","0.39991600002395","0.360150799970143","1","1","1","1","1","1","1","1","1"
"250021","img/neutralC/CFD-BM-003-003-N.jpg","img/neutralC/CFD-LF-210-220-N.jpg","img/neutralC/CFD-IF-744-114-N.jpg","1","1","1","0","1","0","0.360150799970143","0.415546600008383","0.453720499994233","1","1","1","1","1","1","1","1","1"
"250021","img/neutralC/CFD-IF-744-114-N.jpg","img/neutralC/CFD-BM-003-003-N.jpg","img/neutralC/CFD-IM-738-191-N.jpg","1","1","1","0","0","0","0.453720499994233","0.360150799970143","0.418979299953207","1","1","1","1","1","1","1","1","1"
"250021","img/neutralC/CFD-IM-738-191-N.jpg","img/neutralC/CFD-IF-744-114-N.jpg","img/neutralC/CFD-LF-208-127-N.jpg","1","1","1","0","0","0","0.418979299953207","0.453720499994233","0.404546899953857","1","1","1","1","1","1","1","1","1"
"250021","img/neutralC/CFD-LF-208-127-N.jpg","img/neutralC/CFD-IM-738-191-N.jpg","img/neutralC/CFD-BM-010-003-N.jpg","1","1","0","0","0","0","0.404546899953857","0.418979299953207","0.397996900021099","1","1","1","1","1","1","1","1","1"
"250021","img/neutralC/CFD-BM-010-003-N.jpg","img/neutralC/CFD-LF-208-127-N.jpg","img/neutralC/CFD-WF-223-133-N.jpg","0","1","0","0","0","0","0.397996900021099","0.404546899953857","0.413306300004479","1","1","1","1","1","1","1","1","1"
"250021","img/neutralC/CFD-WF-223-133-N.jpg","img/neutralC/CFD-BM-010-003-N.jpg","img/neutralC/CFD-LM-247-095-N.jpg","0","0","1","0","0","0","0.413306300004479","0.397996900021099","0.853565500001423","1","1","1","1","1","1","1","1","1"
"250021","img/neutralC/CFD-LM-247-095-N.jpg","img/neutralC/CFD-WF-223-133-N.jpg","img/neutralC/CFD-LM-238-129-N.jpg","1","0","1","0","0","1","0.853565500001423","0.413306300004479","0.428286199981812","1","1","1","1","1","1","1","1","1"
"250021","img/neutralC/CFD-LM-238-129-N.jpg","img/neutralC/CFD-LM-247-095-N.jpg","img/neutralC/CFD-LF-241-188-N.jpg","1","1","1","1","0","0","0.428286199981812","0.853565500001423","0.488176000013482","1","1","1","1","1","1","1","1","1"
"250021","img/neutralC/CFD-LF-241-188-N.jpg","img/neutralC/CFD-LM-238-129-N.jpg","img/neutralC/CFD-BM-013-002-N.jpg","1","1","1","0","1","1","0.488176000013482","0.428286199981812","0.789886099984869","1","1","1","1","1","1","1","1","1"
"250021","img/neutralC/CFD-BM-013-002-N.jpg","img/neutralC/CFD-LF-241-188-N.jpg","img/neutralC/CFD-BF-004-014-N.jpg","1","1","1","1","0","1","0.789886099984869","0.488176000013482","0.399019000004046","1","1","1","1","1","1","1","1","1"
"250021","img/neutralC/CFD-BF-004-014-N.jpg","img/neutralC/CFD-BM-013-002-N.jpg","img/neutralC/CFD-MF-336-016-N.jpg","1","1","1","1","1","1","0.399019000004046","0.789886099984869","0.349440600024536","1","1","1","1","1","1","1","1","1"
"250021","img/neutralC/CFD-MF-336-016-N.jpg","img/neutralC/CFD-BF-004-014-N.jpg","img/neutralC/CFD-IM-701-312-N.jpg","1","1","1","1","1","0","0.349440600024536","0.399019000004046","0.437923200021032","1","1","1","1","1","1","1","1","1"
"250021","img/neutralC/CFD-IM-701-312-N.jpg","img/neutralC/CFD-MF-336-016-N.jpg","img/neutralC/CFD-WM-254-152-N.jpg","1","1","1","0","1","1","0.437923200021032","0.349440600024536","0.353815500042401","1","1","1","1","1","1","1","1","1"
"250021","img/neutralC/CFD-WM-254-152-N.jpg","img/neutralC/CFD-IM-701-312-N.jpg","img/neutralC/CFD-MF-312-002-N.jpg","1","1","1","1","0","1","0.353815500042401","0.437923200021032","0.387056099949405","1","1","1","1","1","1","1","1","1"
"250021","img/neutralC/CFD-MF-312-002-N.jpg","img/neutralC/CFD-WM-254-152-N.jpg","img/neutralC/CFD-BF-222-240-N.jpg","1","1","1","1","1","0","0.387056099949405","0.353815500042401","0.471031100023538","1","1","1","1","1","1","1","1","1"
"250021","img/neutralC/CFD-BF-222-240-N.jpg","img/neutralC/CFD-MF-312-002-N.jpg","img/neutralC/CFD-WF-033-002-N.jpg","1","1","1","0","1","1","0.471031100023538","0.387056099949405","0.330691599985585","1","1","1","1","1","1","1","1","1"
"250021","img/neutralC/CFD-WF-033-002-N.jpg","img/neutralC/CFD-BF-222-240-N.jpg","img/neutralC/CFD-BF-045-003-N.jpg","1","1","1","1","0","0","0.330691599985585","0.471031100023538","0.509349300002214","1","1","1","1","1","1","1","1","1"
"250021","img/neutralC/CFD-BF-045-003-N.jpg","img/neutralC/CFD-WF-033-002-N.jpg","img/neutralC/CFD-AM-221-184-N.jpg","1","1","1","0","1","1","0.509349300002214","0.330691599985585","0.318737800000235","1","1","1","1","1","1","1","1","1"
"250021","img/neutralC/CFD-AM-221-184-N.jpg","img/neutralC/CFD-BF-045-003-N.jpg","img/neutralC/CFD-IM-659-359-N.jpg","1","1","0","1","0","0","0.318737800000235","0.509349300002214","0.394929700007197","1","1","1","1","1","1","1","1","1"
"250021","img/neutralC/CFD-IM-659-359-N.jpg","img/neutralC/CFD-AM-221-184-N.jpg","img/neutralC/CFD-AF-239-171-N.jpg","0","1","1","0","1","1","0.394929700007197","0.318737800000235","0.398589599994011","1","1","1","1","1","1","1","1","1"
"250021","img/neutralC/CFD-AF-239-171-N.jpg","img/neutralC/CFD-IM-659-359-N.jpg","img/neutralC/CFD-WM-202-107-N.jpg","1","0","1","1","0","1","0.398589599994011","0.394929700007197","0.369677299982868","1","1","1","1","1","1","1","1","1"
"250021","img/neutralC/CFD-WM-202-107-N.jpg","img/neutralC/CFD-AF-239-171-N.jpg","img/neutralC/CFD-IF-673-389-N.jpg","1","1","1","1","1","0","0.369677299982868","0.398589599994011","0.37885770003777","1","1","1","1","1","1","1","1","1"
"250021","img/neutralC/CFD-IF-673-389-N.jpg","img/neutralC/CFD-WM-202-107-N.jpg","img/neutralC/CFD-AF-210-050-N.jpg","1","1","1","0","1","1","0.37885770003777","0.369677299982868","0.397139400010929","1","1","1","1","1","1","1","1","1"
"250021","img/neutralC/CFD-AF-210-050-N.jpg","img/neutralC/CFD-IF-673-389-N.jpg","img/neutralC/CFD-WM-228-065-N.jpg","1","1","1","1","0","0","0.397139400010929","0.37885770003777","0.388945299957413","1","1","1","1","1","1","1","1","1"
"250021","img/neutralC/CFD-WM-228-065-N.jpg","img/neutralC/CFD-AF-210-050-N.jpg","img/neutralC/CFD-IF-625-225-N.jpg","1","1","1","0","1","0","0.388945299957413","0.397139400010929","0.574769600003492","1","1","1","1","1","1","1","1","1"
"250021","img/neutralC/CFD-IF-625-225-N.jpg","img/neutralC/CFD-WM-228-065-N.jpg","img/neutralC/CFD-BM-028-002-N.jpg","1","1","1","0","0","1","0.574769600003492","0.388945299957413","0.363153200014494","1","1","1","1","1","1","1","1","1"
"250021","img/neutralC/CFD-BM-028-002-N.jpg","img/neutralC/CFD-IF-625-225-N.jpg","img/neutralC/CFD-WF-006-002-N.jpg","1","1","1","1","0","0","0.363153200014494","0.574769600003492","0.452204200031701","1","1","1","1","1","1","1","1","1"
"250021","img/neutralC/CFD-WF-006-002-N.jpg","img/neutralC/CFD-BM-028-002-N.jpg","img/neutralC/CFD-BM-213-134-N.jpg","1","1","1","0","1","1","0.452204200031701","0.363153200014494","0.33431920001749","1","1","1","1","1","1","1","1","1"
"250021","img/neutralC/CFD-BM-213-134-N.jpg","img/neutralC/CFD-WF-006-002-N.jpg",NA,"1","1",NA,"1","0",NA,"0.33431920001749","0.452204200031701",NA,"1","1",NA,"1","1",NA,"1","1",NA
"250021","img/neutralC/CFD-BF-213-188-N.jpg",NA,"img/neutralC/CFD-BM-033-003-N.jpg","1",NA,"1","1",NA,"0","0.597804000019096",NA,"0.591226499993354","1",NA,"1","1",NA,"1","1",NA,"1"
"250021","img/neutralC/CFD-BM-033-003-N.jpg","img/neutralC/CFD-BF-213-188-N.jpg","img/neutralC/CFD-WF-250-167-N.jpg","1","1","1","0","1","1","0.591226499993354","0.597804000019096","0.43173830001615","1","1","1","1","1","1","1","1","1"
"250021","img/neutralC/CFD-WF-250-167-N.jpg","img/neutralC/CFD-BM-033-003-N.jpg","img/neutralC/CFD-LF-214-090-N.jpg","1","1","0","1","0","0","0.43173830001615","0.591226499993354","0.373962099954952","1","1","1","1","1","1","1","1","1"
"250021","img/neutralC/CFD-LF-214-090-N.jpg","img/neutralC/CFD-WF-250-167-N.jpg","img/neutralC/CFD-WF-213-031-N.jpg","0","1","1","0","1","1","0.373962099954952","0.43173830001615","0.372413799981587","1","1","1","1","1","1","1","1","1"
"250021","img/neutralC/CFD-WF-213-031-N.jpg","img/neutralC/CFD-LF-214-090-N.jpg","img/neutralC/CFD-IF-710-016-N.jpg","1","0","1","1","0","0","0.372413799981587","0.373962099954952","0.497534799971618","1","1","1","1","1","1","1","1","1"
"250021","img/neutralC/CFD-IF-710-016-N.jpg","img/neutralC/CFD-WF-213-031-N.jpg","img/neutralC/CFD-IM-651-308-N.jpg","1","1","0","0","1","0","0.497534799971618","0.372413799981587","0.412918900023215","1","1","1","1","1","1","1","1","1"
"250021","img/neutralC/CFD-IM-651-308-N.jpg","img/neutralC/CFD-IF-710-016-N.jpg","img/neutralC/CFD-LM-215-247-N.jpg","0","1","1","0","0","0","0.412918900023215","0.497534799971618","0.445928499975707","1","1","1","1","1","1","1","1","1"
"250021","img/neutralC/CFD-LM-215-247-N.jpg","img/neutralC/CFD-IM-651-308-N.jpg","img/neutralC/CFD-BM-239-136-N.jpg","1","0","1","0","0","1","0.445928499975707","0.412918900023215","0.390626100008376","1","1","1","1","1","1","1","1","1"
"250021","img/neutralC/CFD-BM-239-136-N.jpg","img/neutralC/CFD-LM-215-247-N.jpg","img/neutralC/CFD-LF-224-176-N.jpg","1","1","1","1","0","0","0.390626100008376","0.445928499975707","0.614946799993049","1","1","1","1","1","1","1","1","1"
"250021","img/neutralC/CFD-LF-224-176-N.jpg","img/neutralC/CFD-BM-239-136-N.jpg","img/neutralC/CFD-BF-253-202-N.jpg","1","1","1","0","1","0","0.614946799993049","0.390626100008376","0.451315700018313","1","1","1","1","1","1","1","1","1"
"250021","img/neutralC/CFD-BF-253-202-N.jpg","img/neutralC/CFD-LF-224-176-N.jpg","img/neutralC/CFD-BM-041-035-N.jpg","1","1","1","0","0","0","0.451315700018313","0.614946799993049","0.426935900002718","1","1","1","1","1","1","1","1","1"
"250021","img/neutralC/CFD-BM-041-035-N.jpg","img/neutralC/CFD-BF-253-202-N.jpg","img/neutralC/CFD-IM-684-008-N.jpg","1","1","1","0","0","1","0.426935900002718","0.451315700018313","0.372142300009727","1","1","1","1","1","1","1","1","1"
"250021","img/neutralC/CFD-IM-684-008-N.jpg","img/neutralC/CFD-BM-041-035-N.jpg","img/neutralC/CFD-IF-634-382-N.jpg","1","1","1","1","0","1","0.372142300009727","0.426935900002718","0.384125999989919","1","1","1","1","1","1","1","1","1"
"250021","img/neutralC/CFD-IF-634-382-N.jpg","img/neutralC/CFD-IM-684-008-N.jpg","img/neutralC/CFD-BM-019-002-N.jpg","1","1","1","1","1","0","0.384125999989919","0.372142300009727","0.371459099987987","1","1","1","1","1","1","1","1","1"
"250021","img/neutralC/CFD-BM-019-002-N.jpg","img/neutralC/CFD-IF-634-382-N.jpg","img/neutralC/CFD-LF-205-100-N.jpg","1","1","1","0","1","1","0.371459099987987","0.384125999989919","0.393927099998109","1","1","1","1","1","1","1","1","1"
"250021","img/neutralC/CFD-LF-205-100-N.jpg","img/neutralC/CFD-BM-019-002-N.jpg","img/neutralC/CFD-WF-224-099-N.jpg","1","1","1","1","0","0","0.393927099998109","0.371459099987987","0.520269500033464","1","1","1","1","1","1","1","1","1"
"250021","img/neutralC/CFD-WF-224-099-N.jpg","img/neutralC/CFD-LF-205-100-N.jpg","img/neutralC/CFD-BF-039-031-N.jpg","1","1","1","0","1","1","0.520269500033464","0.393927099998109","0.371510300028604","1","1","1","1","1","1","1","1","1"
"250021","img/neutralC/CFD-BF-039-031-N.jpg","img/neutralC/CFD-WF-224-099-N.jpg","img/neutralC/CFD-MF-337-026-N.jpg","1","1","1","1","0","1","0.371510300028604","0.520269500033464","0.367377600050531","1","1","1","1","1","1","1","1","1"
"250021","img/neutralC/CFD-MF-337-026-N.jpg","img/neutralC/CFD-BF-039-031-N.jpg","img/neutralC/CFD-IF-693-172-N.jpg","1","1","1","1","1","0","0.367377600050531","0.371510300028604","0.368212000001222","1","1","1","1","1","1","1","1","1"
"250021","img/neutralC/CFD-IF-693-172-N.jpg","img/neutralC/CFD-MF-337-026-N.jpg","img/neutralC/CFD-LF-230-203-N.jpg","1","1","1","0","1","0","0.368212000001222","0.367377600050531","0.494191300007515","1","1","1","1","1","1","1","1","1"
"250021","img/neutralC/CFD-LF-230-203-N.jpg","img/neutralC/CFD-IF-693-172-N.jpg","img/neutralC/CFD-AM-201-076-N.jpg","1","1","1","0","0","1","0.494191300007515","0.368212000001222","0.384049599990249","1","1","1","1","1","1","1","1","1"
"250021","img/neutralC/CFD-AM-201-076-N.jpg","img/neutralC/CFD-LF-230-203-N.jpg","img/neutralC/CFD-BF-029-031-N.jpg","1","1","1","1","0","1","0.384049599990249","0.494191300007515","0.40744589996757","1","1","1","1","1","1","1","1","1"
"250021","img/neutralC/CFD-BF-029-031-N.jpg","img/neutralC/CFD-AM-201-076-N.jpg","img/neutralC/CFD-MM-316-156-N.jpg","1","1","0","1","1","1","0.40744589996757","0.384049599990249","0.298928200034425","1","1","1","1","1","1","1","1","1"
"250021","img/neutralC/CFD-MM-316-156-N.jpg","img/neutralC/CFD-BF-029-031-N.jpg","img/neutralC/CFD-WM-041-021-N.jpg","0","1","1","1","1","0","0.298928200034425","0.40744589996757","0.529536599991843","1","1","1","1","1","1","1","1","1"
"250021","img/neutralC/CFD-WM-041-021-N.jpg","img/neutralC/CFD-MM-316-156-N.jpg","img/neutralC/CFD-LM-218-183-N.jpg","1","0","1","0","1","1","0.529536599991843","0.298928200034425","0.359793399984483","1","1","1","1","1","1","1","1","1"
"250021","img/neutralC/CFD-LM-218-183-N.jpg","img/neutralC/CFD-WM-041-021-N.jpg","img/neutralC/CFD-WM-011-002-N.jpg","1","1","1","1","0","0","0.359793399984483","0.529536599991843","0.4217798000318","1","1","1","1","1","1","1","1","1"
"250021","img/neutralC/CFD-WM-011-002-N.jpg","img/neutralC/CFD-LM-218-183-N.jpg","img/neutralC/CFD-BF-205-141-N.jpg","1","1","1","0","1","0","0.4217798000318","0.359793399984483","0.566297000041232","1","1","1","1","1","1","1","1","1"
"250021","img/neutralC/CFD-BF-205-141-N.jpg","img/neutralC/CFD-WM-011-002-N.jpg","img/neutralC/CFD-WM-021-001-N.jpg","1","1","1","0","0","1","0.566297000041232","0.4217798000318","0.48104380001314","1","1","1","1","1","1","1","1","1"
"250021","img/neutralC/CFD-WM-021-001-N.jpg","img/neutralC/CFD-BF-205-141-N.jpg","img/neutralC/CFD-AM-212-050-N.jpg","1","1","1","1","0","1","0.48104380001314","0.566297000041232","0.422532600001432","1","1","1","1","1","1","1","1","1"
"250021","img/neutralC/CFD-AM-212-050-N.jpg","img/neutralC/CFD-WM-021-001-N.jpg","img/neutralC/CFD-LF-203-066-N.jpg","1","1","1","1","1","0","0.422532600001432","0.48104380001314","0.454607099993154","1","1","1","1","1","1","1","1","1"
"250021","img/neutralC/CFD-LF-203-066-N.jpg","img/neutralC/CFD-AM-212-050-N.jpg","img/neutralC/CFD-AF-231-357-N.jpg","1","1","1","0","1","1","0.454607099993154","0.422532600001432","0.447216000000481","1","1","1","1","1","1","1","1","1"
"250021","img/neutralC/CFD-AF-231-357-N.jpg","img/neutralC/CFD-LF-203-066-N.jpg",NA,"1","1",NA,"1","0",NA,"0.447216000000481","0.454607099993154",NA,"1","1",NA,"1","1",NA,"1","1",NA
"250021","img/neutralC/CFD-LM-228-188-N.jpg",NA,"img/neutralC/CFD-AM-242-176-N.jpg","1",NA,"1","1",NA,"1","0.552708000002895",NA,"0.402619300002698","1",NA,"1","1",NA,"1","1",NA,"1"
"250021","img/neutralC/CFD-AM-242-176-N.jpg","img/neutralC/CFD-LM-228-188-N.jpg","img/neutralC/CFD-IM-645-001-N.jpg","1","1","0","1","1","0","0.402619300002698","0.552708000002895","0.424750299949665","1","1","1","1","1","1","1","1","1"
"250021","img/neutralC/CFD-IM-645-001-N.jpg","img/neutralC/CFD-AM-242-176-N.jpg","img/neutralC/CFD-BM-225-154-N.jpg","0","1","1","0","1","1","0.424750299949665","0.402619300002698","0.398671900038607","1","1","1","1","1","1","1","1","1"
"250021","img/neutralC/CFD-BM-225-154-N.jpg","img/neutralC/CFD-IM-645-001-N.jpg","img/neutralC/CFD-AM-211-052-N.jpg","1","0","1","1","0","1","0.398671900038607","0.424750299949665","0.34689809998963","1","1","1","1","1","1","1","1","1"
"250021","img/neutralC/CFD-AM-211-052-N.jpg","img/neutralC/CFD-BM-225-154-N.jpg","img/neutralC/CFD-WM-004-010-N.jpg","1","1","1","1","1","0","0.34689809998963","0.398671900038607","0.491971099982038","1","1","1","1","1","1","1","1","1"
"250021","img/neutralC/CFD-WM-004-010-N.jpg","img/neutralC/CFD-AM-211-052-N.jpg","img/neutralC/CFD-BF-226-119-N.jpg","1","1","1","0","1","1","0.491971099982038","0.34689809998963","0.487231199978851","1","1","1","1","1","1","1","1","1"
"250021","img/neutralC/CFD-BF-226-119-N.jpg","img/neutralC/CFD-WM-004-010-N.jpg","img/neutralC/CFD-BF-038-037-N.jpg","1","1","1","1","0","1","0.487231199978851","0.491971099982038","0.383084399974905","1","1","1","1","1","1","1","1","1"
"250021","img/neutralC/CFD-BF-038-037-N.jpg","img/neutralC/CFD-BF-226-119-N.jpg","img/neutralC/CFD-WF-200-099-N.jpg","1","1","1","1","1","0","0.383084399974905","0.487231199978851","0.473967999976594","1","1","1","1","1","1","1","1","1"
"250021","img/neutralC/CFD-WF-200-099-N.jpg","img/neutralC/CFD-BF-038-037-N.jpg","img/neutralC/CFD-WM-033-025-N.jpg","1","1","1","0","1","1","0.473967999976594","0.383084399974905","0.366262099996675","1","1","1","1","1","1","1","1","1"
"250021","img/neutralC/CFD-WM-033-025-N.jpg","img/neutralC/CFD-WF-200-099-N.jpg","img/neutralC/CFD-WM-235-147-N.jpg","1","1","1","1","0","0","0.366262099996675","0.473967999976594","0.415317599952687","1","1","1","1","1","1","1","1","1"
"250021","img/neutralC/CFD-WM-235-147-N.jpg","img/neutralC/CFD-WM-033-025-N.jpg","img/neutralC/CFD-IM-743-006-N.jpg","1","1","1","0","1","1","0.415317599952687","0.366262099996675","0.349762800033204","1","1","1","1","1","1","1","1","1"
"250021","img/neutralC/CFD-IM-743-006-N.jpg","img/neutralC/CFD-WM-235-147-N.jpg","img/neutralC/CFD-LM-237-264-N.jpg","1","1","1","1","0","0","0.349762800033204","0.415317599952687","0.508254799991846","1","1","1","1","1","1","1","1","1"
"250021","img/neutralC/CFD-LM-237-264-N.jpg","img/neutralC/CFD-IM-743-006-N.jpg","img/neutralC/CFD-MF-359-019-N.jpg","1","1","1","0","1","0","0.508254799991846","0.349762800033204","0.479836200014688","1","1","1","1","1","1","1","1","1"
"250021","img/neutralC/CFD-MF-359-019-N.jpg","img/neutralC/CFD-LM-237-264-N.jpg","img/neutralC/CFD-WF-036-023-N.jpg","1","1","1","0","0","0","0.479836200014688","0.508254799991846","0.41376590001164","1","1","1","1","1","1","1","1","1"
"250021","img/neutralC/CFD-WF-036-023-N.jpg","img/neutralC/CFD-MF-359-019-N.jpg","img/neutralC/CFD-WM-020-001-N.jpg","1","1","1","0","0","1","0.41376590001164","0.479836200014688","0.380264599982183","1","1","1","1","1","1","1","1","1"
"250021","img/neutralC/CFD-WM-020-001-N.jpg","img/neutralC/CFD-WF-036-023-N.jpg","img/neutralC/CFD-LF-218-072-N.jpg","1","1","0","1","0","0","0.380264599982183","0.41376590001164","0.348534699995071","1","1","1","1","1","1","1","1","1"
"250021","img/neutralC/CFD-LF-218-072-N.jpg","img/neutralC/CFD-WM-020-001-N.jpg","img/neutralC/CFD-BF-232-187-N.jpg","0","1","1","0","1","1","0.348534699995071","0.380264599982183","0.510989199974574","1","1","1","1","1","1","1","1","1"
"250021","img/neutralC/CFD-BF-232-187-N.jpg","img/neutralC/CFD-LF-218-072-N.jpg","img/neutralC/CFD-WM-219-008-N.jpg","1","0","1","1","0","0","0.510989199974574","0.348534699995071","0.44783230003668","1","1","1","1","1","1","1","1","1"
"250021","img/neutralC/CFD-WM-219-008-N.jpg","img/neutralC/CFD-BF-232-187-N.jpg","img/neutralC/CFD-IM-671-601-N.jpg","1","1","1","0","1","0","0.44783230003668","0.510989199974574","0.523828300007153","1","1","1","1","1","1","1","1","1"
"250021","img/neutralC/CFD-IM-671-601-N.jpg","img/neutralC/CFD-WM-219-008-N.jpg","img/neutralC/CFD-MF-333-012-N.jpg","1","1","1","0","0","0","0.523828300007153","0.44783230003668","0.542604399961419","1","1","1","1","1","1","1","1","1"
"250021","img/neutralC/CFD-MF-333-012-N.jpg","img/neutralC/CFD-IM-671-601-N.jpg","img/neutralC/CFD-WF-214-122-N.jpg","1","1","1","0","0","1","0.542604399961419","0.523828300007153","0.393361199996434","1","1","1","1","1","1","1","1","1"
"250021","img/neutralC/CFD-WF-214-122-N.jpg","img/neutralC/CFD-MF-333-012-N.jpg","img/neutralC/CFD-IM-616-214-N.jpg","1","1","1","1","0","0","0.393361199996434","0.542604399961419","0.357577000046149","1","1","1","1","1","1","1","1","1"
"250021","img/neutralC/CFD-IM-616-214-N.jpg","img/neutralC/CFD-WF-214-122-N.jpg","img/neutralC/CFD-WF-001-003-N.jpg","1","1","1","0","1","1","0.357577000046149","0.393361199996434","0.347205300000496","1","1","1","1","1","1","1","1","1"
"250021","img/neutralC/CFD-WF-001-003-N.jpg","img/neutralC/CFD-IM-616-214-N.jpg","img/neutralC/CFD-LF-220-120-N.jpg","1","1","1","1","0","1","0.347205300000496","0.357577000046149","0.332526200043503","1","1","1","1","1","1","1","1","1"
"250021","img/neutralC/CFD-LF-220-120-N.jpg","img/neutralC/CFD-WF-001-003-N.jpg","img/neutralC/CFD-AM-251-124-N.jpg","1","1","1","1","1","0","0.332526200043503","0.347205300000496","0.446877600043081","1","1","1","1","1","1","1","1","1"
"250021","img/neutralC/CFD-AM-251-124-N.jpg","img/neutralC/CFD-LF-220-120-N.jpg","img/neutralC/CFD-IF-650-315-N.jpg","1","1","1","0","1","0","0.446877600043081","0.332526200043503","0.557681699981913","1","1","1","1","1","1","1","1","1"
"250021","img/neutralC/CFD-IF-650-315-N.jpg","img/neutralC/CFD-AM-251-124-N.jpg","img/neutralC/CFD-MF-352-054-N.jpg","1","1","1","0","0","0","0.557681699981913","0.446877600043081","0.548877500055823","1","1","1","1","1","1","1","1","1"
"250021","img/neutralC/CFD-MF-352-054-N.jpg","img/neutralC/CFD-IF-650-315-N.jpg","img/neutralC/CFD-IM-703-182-N.jpg","1","1","1","0","0","1","0.548877500055823","0.557681699981913","0.388282899977639","1","1","1","1","1","1","1","1","1"
"250021","img/neutralC/CFD-IM-703-182-N.jpg","img/neutralC/CFD-MF-352-054-N.jpg","img/neutralC/CFD-IF-623-129-N.jpg","1","1","1","1","0","1","0.388282899977639","0.548877500055823","0.349641799984965","1","1","1","1","1","1","1","1","1"
"250021","img/neutralC/CFD-IF-623-129-N.jpg","img/neutralC/CFD-IM-703-182-N.jpg","img/neutralC/CFD-BF-229-179-N.jpg","1","1","1","1","1","0","0.349641799984965","0.388282899977639","0.494351300003473","1","1","1","1","1","1","1","1","1"
"250021","img/neutralC/CFD-BF-229-179-N.jpg","img/neutralC/CFD-IF-623-129-N.jpg","img/neutralC/CFD-BM-253-004-N.jpg","1","1","1","0","1","1","0.494351300003473","0.349641799984965","0.452943800017238","1","1","1","1","1","1","1","1","1"
"250021","img/neutralC/CFD-BM-253-004-N.jpg","img/neutralC/CFD-BF-229-179-N.jpg",NA,"1","1",NA,"1","0",NA,"0.452943800017238","0.494351300003473",NA,"1","1",NA,"1","1",NA,"1","1",NA
