"participant_id","current_trial_face","pre_trial_face","post_trial_face","current_trial_accuracy","pre_trial_accuracy","post_trial_accuracy","current_trial_congruency","pre_trial_congruency","post_trial_congruency","current_trial_rt","pre_trial_rt","post_trial_rt","current_trial_responded","pre_trial_responded","post_trial_responded","current_trial_legitResponse","pre_trial_legitResponse","post_trial_legitResponse","current_trial_resp_nums","pre_trial_resp_nums","post_trial_resp_nums"
"250011","img/neutralC/CFD-IM-701-312-N.jpg",NA,"img/neutralC/CFD-MF-336-016-N.jpg","1",NA,"1","0",NA,"1","0.827614299999823",NA,"0.691480599999977","1",NA,"1","1",NA,"1","1",NA,"1"
"250011","img/neutralC/CFD-MF-336-016-N.jpg","img/neutralC/CFD-IM-701-312-N.jpg","img/neutralC/CFD-BM-003-003-N.jpg","1","1","1","1","0","0","0.691480599999977","0.827614299999823","0.62254589999975","1","1","1","1","1","1","1","1","1"
"250011","img/neutralC/CFD-BM-003-003-N.jpg","img/neutralC/CFD-MF-336-016-N.jpg","img/neutralC/CFD-IF-673-389-N.jpg","1","1","1","0","1","0","0.62254589999975","0.691480599999977","0.534666900000047","1","1","1","1","1","1","1","1","1"
"250011","img/neutralC/CFD-IF-673-389-N.jpg","img/neutralC/CFD-BM-003-003-N.jpg","img/neutralC/CFD-BM-013-002-N.jpg","1","1","1","0","0","1","0.534666900000047","0.62254589999975","0.539573999999902","1","1","1","1","1","1","1","1","1"
"250011","img/neutralC/CFD-BM-013-002-N.jpg","img/neutralC/CFD-IF-673-389-N.jpg","img/neutralC/CFD-BM-028-002-N.jpg","1","1","1","1","0","1","0.539573999999902","0.534666900000047","0.499089800000093","1","1","1","1","1","1","1","1","1"
"250011","img/neutralC/CFD-BM-028-002-N.jpg","img/neutralC/CFD-BM-013-002-N.jpg","img/neutralC/CFD-IF-744-114-N.jpg","1","1","1","1","1","0","0.499089800000093","0.539573999999902","0.541400900000099","1","1","1","1","1","1","1","1","1"
"250011","img/neutralC/CFD-IF-744-114-N.jpg","img/neutralC/CFD-BM-028-002-N.jpg","img/neutralC/CFD-LM-238-129-N.jpg","1","1","1","0","1","1","0.541400900000099","0.499089800000093","0.546611100000064","1","1","1","1","1","1","1","1","1"
"250011","img/neutralC/CFD-LM-238-129-N.jpg","img/neutralC/CFD-IF-744-114-N.jpg","img/neutralC/CFD-WM-228-065-N.jpg","1","1","1","1","0","0","0.546611100000064","0.541400900000099","0.497758100000283","1","1","1","1","1","1","1","1","1"
"250011","img/neutralC/CFD-WM-228-065-N.jpg","img/neutralC/CFD-LM-238-129-N.jpg","img/neutralC/CFD-LF-208-127-N.jpg","1","1","1","0","1","0","0.497758100000283","0.546611100000064","0.619534200000089","1","1","1","1","1","1","1","1","1"
"250011","img/neutralC/CFD-LF-208-127-N.jpg","img/neutralC/CFD-WM-228-065-N.jpg","img/neutralC/CFD-LF-225-164-N.jpg","1","1","1","0","0","1","0.619534200000089","0.497758100000283","0.582688500000131","1","1","1","1","1","1","1","1","1"
"250011","img/neutralC/CFD-LF-225-164-N.jpg","img/neutralC/CFD-LF-208-127-N.jpg","img/neutralC/CFD-WF-006-002-N.jpg","1","1","1","1","0","0","0.582688500000131","0.619534200000089","0.50776470000028","1","1","1","1","1","1","1","1","1"
"250011","img/neutralC/CFD-WF-006-002-N.jpg","img/neutralC/CFD-LF-225-164-N.jpg","img/neutralC/CFD-BF-004-014-N.jpg","1","1","1","0","1","1","0.50776470000028","0.582688500000131","0.440958300000148","1","1","1","1","1","1","1","1","1"
"250011","img/neutralC/CFD-BF-004-014-N.jpg","img/neutralC/CFD-WF-006-002-N.jpg","img/neutralC/CFD-IM-659-359-N.jpg","1","1","1","1","0","0","0.440958300000148","0.50776470000028","0.558788600000298","1","1","1","1","1","1","1","1","1"
"250011","img/neutralC/CFD-IM-659-359-N.jpg","img/neutralC/CFD-BF-004-014-N.jpg","img/neutralC/CFD-AF-239-171-N.jpg","1","1","1","0","1","1","0.558788600000298","0.440958300000148","0.476849000000129","1","1","1","1","1","1","1","1","1"
"250011","img/neutralC/CFD-AF-239-171-N.jpg","img/neutralC/CFD-IM-659-359-N.jpg","img/neutralC/CFD-WF-033-002-N.jpg","1","1","1","1","0","1","0.476849000000129","0.558788600000298","0.879104699999971","1","1","1","1","1","1","1","1","1"
"250011","img/neutralC/CFD-WF-033-002-N.jpg","img/neutralC/CFD-AF-239-171-N.jpg","img/neutralC/CFD-MF-312-002-N.jpg","1","1","1","1","1","1","0.879104699999971","0.476849000000129","0.639518599999974","1","1","1","1","1","1","1","1","1"
"250011","img/neutralC/CFD-MF-312-002-N.jpg","img/neutralC/CFD-WF-033-002-N.jpg","img/neutralC/CFD-WF-223-133-N.jpg","1","1","1","1","1","0","0.639518599999974","0.879104699999971","0.522037300000193","1","1","1","1","1","1","1","1","1"
"250011","img/neutralC/CFD-WF-223-133-N.jpg","img/neutralC/CFD-MF-312-002-N.jpg","img/neutralC/CFD-IM-738-191-N.jpg","1","1","1","0","1","0","0.522037300000193","0.639518599999974","0.483545200000208","1","1","1","1","1","1","1","1","1"
"250011","img/neutralC/CFD-IM-738-191-N.jpg","img/neutralC/CFD-WF-223-133-N.jpg","img/neutralC/CFD-AM-221-184-N.jpg","1","1","1","0","0","1","0.483545200000208","0.522037300000193","0.521404800000255","1","1","1","1","1","1","1","1","1"
"250011","img/neutralC/CFD-AM-221-184-N.jpg","img/neutralC/CFD-IM-738-191-N.jpg","img/neutralC/CFD-AF-227-207-N.jpg","1","1","1","1","0","1","0.521404800000255","0.483545200000208","0.700221500000225","1","1","1","1","1","1","1","1","1"
"250011","img/neutralC/CFD-AF-227-207-N.jpg","img/neutralC/CFD-AM-221-184-N.jpg","img/neutralC/CFD-BM-213-134-N.jpg","1","1","0","1","1","1","0.700221500000225","0.521404800000255","0.54313540000021","1","1","1","1","1","1","1","1","2"
"250011","img/neutralC/CFD-BM-213-134-N.jpg","img/neutralC/CFD-AF-227-207-N.jpg","img/neutralC/CFD-LF-210-220-N.jpg","0","1","1","1","1","1","0.54313540000021","0.700221500000225","0.573621300000468","1","1","1","1","1","1","2","1","1"
"250011","img/neutralC/CFD-LF-210-220-N.jpg","img/neutralC/CFD-BM-213-134-N.jpg","img/neutralC/CFD-LF-241-188-N.jpg","1","0","1","1","1","0","0.573621300000468","0.54313540000021","0.591092099999969","1","1","1","1","1","1","1","2","1"
"250011","img/neutralC/CFD-LF-241-188-N.jpg","img/neutralC/CFD-LF-210-220-N.jpg","img/neutralC/CFD-BM-010-003-N.jpg","1","1","1","0","1","0","0.591092099999969","0.573621300000468","0.533808399999998","1","1","1","1","1","1","1","1","1"
"250011","img/neutralC/CFD-BM-010-003-N.jpg","img/neutralC/CFD-LF-241-188-N.jpg","img/neutralC/CFD-IF-625-225-N.jpg","1","1","1","0","0","0","0.533808399999998","0.591092099999969","0.479582700000265","1","1","1","1","1","1","1","1","1"
"250011","img/neutralC/CFD-IF-625-225-N.jpg","img/neutralC/CFD-BM-010-003-N.jpg","img/neutralC/CFD-BF-045-003-N.jpg","1","1","1","0","0","0","0.479582700000265","0.533808399999998","0.564455100000032","1","1","1","1","1","1","1","1","1"
"250011","img/neutralC/CFD-BF-045-003-N.jpg","img/neutralC/CFD-IF-625-225-N.jpg","img/neutralC/CFD-WM-202-107-N.jpg","1","1","1","0","0","1","0.564455100000032","0.479582700000265","0.534138600000006","1","1","1","1","1","1","1","1","1"
"250011","img/neutralC/CFD-WM-202-107-N.jpg","img/neutralC/CFD-BF-045-003-N.jpg","img/neutralC/CFD-BF-222-240-N.jpg","1","1","1","1","0","0","0.534138600000006","0.564455100000032","0.567497500000172","1","1","1","1","1","1","1","1","1"
"250011","img/neutralC/CFD-BF-222-240-N.jpg","img/neutralC/CFD-WM-202-107-N.jpg","img/neutralC/CFD-AF-210-050-N.jpg","1","1","1","0","1","1","0.567497500000172","0.534138600000006","0.577997200000027","1","1","1","1","1","1","1","1","1"
"250011","img/neutralC/CFD-AF-210-050-N.jpg","img/neutralC/CFD-BF-222-240-N.jpg","img/neutralC/CFD-LM-247-095-N.jpg","1","1","1","1","0","0","0.577997200000027","0.567497500000172","0.52356090000012","1","1","1","1","1","1","1","1","1"
"250011","img/neutralC/CFD-LM-247-095-N.jpg","img/neutralC/CFD-AF-210-050-N.jpg","img/neutralC/CFD-WM-254-152-N.jpg","1","1","1","0","1","1","0.52356090000012","0.577997200000027","0.518777900000259","1","1","1","1","1","1","1","1","1"
"250011","img/neutralC/CFD-WM-254-152-N.jpg","img/neutralC/CFD-LM-247-095-N.jpg",NA,"1","1",NA,"1","0",NA,"0.518777900000259","0.52356090000012",NA,"1","1",NA,"1","1",NA,"1","1",NA
"250011","img/neutralC/CFD-BF-214-308-N.jpg",NA,"img/neutralC/CFD-WF-234-086-N.jpg","1",NA,"1","1",NA,"1","1.56952120000005",NA,"0.531390700000429","1",NA,"1","1",NA,"1","1",NA,"1"
"250011","img/neutralC/CFD-WF-234-086-N.jpg","img/neutralC/CFD-BF-214-308-N.jpg","img/neutralC/CFD-IF-677-452-1-N.jpg","1","1","0","1","1","1","0.531390700000429","1.56952120000005","0.549361800000042","1","1","1","1","1","1","1","1","1"
"250011","img/neutralC/CFD-IF-677-452-1-N.jpg","img/neutralC/CFD-WF-234-086-N.jpg","img/neutralC/CFD-BF-247-179-N.jpg","0","1","1","1","1","0","0.549361800000042","0.531390700000429","0.604753000000073","1","1","1","1","1","1","1","1","1"
"250011","img/neutralC/CFD-BF-247-179-N.jpg","img/neutralC/CFD-IF-677-452-1-N.jpg","img/neutralC/CFD-WF-233-112-N.jpg","1","0","1","0","1","1","0.604753000000073","0.549361800000042","0.578192699999818","1","1","1","1","1","1","1","1","1"
"250011","img/neutralC/CFD-WF-233-112-N.jpg","img/neutralC/CFD-BF-247-179-N.jpg","img/neutralC/CFD-IM-696-001-N.jpg","1","1","1","1","0","0","0.578192699999818","0.604753000000073","0.518735300000117","1","1","1","1","1","1","1","1","1"
"250011","img/neutralC/CFD-IM-696-001-N.jpg","img/neutralC/CFD-WF-233-112-N.jpg","img/neutralC/CFD-IF-729-393-N.jpg","1","1","1","0","1","0","0.518735300000117","0.578192699999818","0.600684900000033","1","1","1","1","1","1","1","1","1"
"250011","img/neutralC/CFD-IF-729-393-N.jpg","img/neutralC/CFD-IM-696-001-N.jpg","img/neutralC/CFD-WF-208-068-N.jpg","1","1","1","0","0","1","0.600684900000033","0.518735300000117","0.591683600000124","1","1","1","1","1","1","1","1","1"
"250011","img/neutralC/CFD-WF-208-068-N.jpg","img/neutralC/CFD-IF-729-393-N.jpg","img/neutralC/CFD-AM-230-150-N.jpg","1","1","1","1","0","0","0.591683600000124","0.600684900000033","0.55649910000011","1","1","1","1","1","1","1","1","1"
"250011","img/neutralC/CFD-AM-230-150-N.jpg","img/neutralC/CFD-WF-208-068-N.jpg","img/neutralC/CFD-BF-044-034-N.jpg","1","1","1","0","1","0","0.55649910000011","0.591683600000124","0.493025700000089","1","1","1","1","1","1","1","1","1"
"250011","img/neutralC/CFD-BF-044-034-N.jpg","img/neutralC/CFD-AM-230-150-N.jpg","img/neutralC/CFD-LM-213-061-N.jpg","1","1","1","0","0","0","0.493025700000089","0.55649910000011","0.594682099999773","1","1","1","1","1","1","1","1","1"
"250011","img/neutralC/CFD-LM-213-061-N.jpg","img/neutralC/CFD-BF-044-034-N.jpg","img/neutralC/CFD-IM-721-341-N.jpg","1","1","1","0","0","1","0.594682099999773","0.493025700000089","0.518536100000347","1","1","1","1","1","1","1","1","1"
"250011","img/neutralC/CFD-IM-721-341-N.jpg","img/neutralC/CFD-LM-213-061-N.jpg","img/neutralC/CFD-BF-036-027-N.jpg","1","1","1","1","0","0","0.518536100000347","0.594682099999773","0.571028600000318","1","1","1","1","1","1","1","1","1"
"250011","img/neutralC/CFD-BF-036-027-N.jpg","img/neutralC/CFD-IM-721-341-N.jpg","img/neutralC/CFD-WM-034-030-N.jpg","1","1","1","0","1","1","0.571028600000318","0.518536100000347","0.515302500000416","1","1","1","1","1","1","1","1","1"
"250011","img/neutralC/CFD-WM-034-030-N.jpg","img/neutralC/CFD-BF-036-027-N.jpg","img/neutralC/CFD-WM-014-002-N.jpg","1","1","1","1","0","0","0.515302500000416","0.571028600000318","0.5212932000004","1","1","1","1","1","1","1","1","1"
"250011","img/neutralC/CFD-WM-014-002-N.jpg","img/neutralC/CFD-WM-034-030-N.jpg","img/neutralC/CFD-LF-204-133-N.jpg","1","1","1","0","1","1","0.5212932000004","0.515302500000416","0.442418300000554","1","1","1","1","1","1","1","1","1"
"250011","img/neutralC/CFD-LF-204-133-N.jpg","img/neutralC/CFD-WM-014-002-N.jpg","img/neutralC/CFD-BF-027-002-N.jpg","1","1","1","1","0","1","0.442418300000554","0.5212932000004","0.379874900000232","1","1","1","1","1","1","1","1","1"
"250011","img/neutralC/CFD-BF-027-002-N.jpg","img/neutralC/CFD-LF-204-133-N.jpg","img/neutralC/CFD-BF-011-002-N.jpg","1","1","1","1","1","1","0.379874900000232","0.442418300000554","0.505942800000412","1","1","1","1","1","1","1","1","1"
"250011","img/neutralC/CFD-BF-011-002-N.jpg","img/neutralC/CFD-BF-027-002-N.jpg","img/neutralC/CFD-BF-002-001-N.jpg","1","1","1","1","1","0","0.505942800000412","0.379874900000232","0.548267300000134","1","1","1","1","1","1","1","1","1"
"250011","img/neutralC/CFD-BF-002-001-N.jpg","img/neutralC/CFD-BF-011-002-N.jpg","img/neutralC/CFD-IF-742-103-N.jpg","1","1","1","0","1","1","0.548267300000134","0.505942800000412","0.442338500000005","1","1","1","1","1","1","1","1","1"
"250011","img/neutralC/CFD-IF-742-103-N.jpg","img/neutralC/CFD-BF-002-001-N.jpg","img/neutralC/CFD-BF-006-017-N.jpg","1","1","1","1","0","0","0.442338500000005","0.548267300000134","0.589710800000375","1","1","1","1","1","1","1","1","1"
"250011","img/neutralC/CFD-BF-006-017-N.jpg","img/neutralC/CFD-IF-742-103-N.jpg","img/neutralC/CFD-IM-726-248-N.jpg","1","1","1","0","1","0","0.589710800000375","0.442338500000005","0.544457599999987","1","1","1","1","1","1","1","1","1"
"250011","img/neutralC/CFD-IM-726-248-N.jpg","img/neutralC/CFD-BF-006-017-N.jpg","img/neutralC/CFD-BM-207-024-N.jpg","1","1","1","0","0","1","0.544457599999987","0.589710800000375","0.407089700000142","1","1","1","1","1","1","1","1","1"
"250011","img/neutralC/CFD-BM-207-024-N.jpg","img/neutralC/CFD-IM-726-248-N.jpg","img/neutralC/CFD-MF-301-024-N.jpg","1","1","0","1","0","0","0.407089700000142","0.544457599999987","0.473042500000247","1","1","1","1","1","1","1","1","1"
"250011","img/neutralC/CFD-MF-301-024-N.jpg","img/neutralC/CFD-BM-207-024-N.jpg","img/neutralC/CFD-IM-707-105-N.jpg","0","1","1","0","1","1","0.473042500000247","0.407089700000142","0.639196699999957","1","1","1","1","1","1","1","1","1"
"250011","img/neutralC/CFD-IM-707-105-N.jpg","img/neutralC/CFD-MF-301-024-N.jpg","img/neutralC/CFD-WF-029-002-N.jpg","1","0","1","1","0","0","0.639196699999957","0.473042500000247","0.507810999999947","1","1","1","1","1","1","1","1","1"
"250011","img/neutralC/CFD-WF-029-002-N.jpg","img/neutralC/CFD-IM-707-105-N.jpg","img/neutralC/CFD-BF-236-177-N.jpg","1","1","0","0","1","0","0.507810999999947","0.639196699999957","0.773337800000263","1","1","1","1","1","1","1","1","1"
"250011","img/neutralC/CFD-BF-236-177-N.jpg","img/neutralC/CFD-WF-029-002-N.jpg","img/neutralC/CFD-WM-248-036-N.jpg","0","1","1","0","0","1","0.773337800000263","0.507810999999947","0.590282399999978","1","1","1","1","1","1","1","1","1"
"250011","img/neutralC/CFD-WM-248-036-N.jpg","img/neutralC/CFD-BF-236-177-N.jpg","img/neutralC/CFD-BM-036-003-N.jpg","1","0","1","1","0","1","0.590282399999978","0.773337800000263","0.502834200000052","1","1","1","1","1","1","1","1","1"
"250011","img/neutralC/CFD-BM-036-003-N.jpg","img/neutralC/CFD-WM-248-036-N.jpg","img/neutralC/CFD-BF-207-004-N.jpg","1","1","1","1","1","1","0.502834200000052","0.590282399999978","0.842614100000446","1","1","1","1","1","1","1","1","1"
"250011","img/neutralC/CFD-BF-207-004-N.jpg","img/neutralC/CFD-BM-036-003-N.jpg","img/neutralC/CFD-BM-238-242-N.jpg","1","1","1","1","1","0","0.842614100000446","0.502834200000052","0.712216600000374","1","1","1","1","1","1","1","1","1"
"250011","img/neutralC/CFD-BM-238-242-N.jpg","img/neutralC/CFD-BF-207-004-N.jpg","img/neutralC/CFD-BM-241-235-N.jpg","1","1","1","0","1","0","0.712216600000374","0.842614100000446","0.614976500000012","1","1","1","1","1","1","1","1","1"
"250011","img/neutralC/CFD-BM-241-235-N.jpg","img/neutralC/CFD-BM-238-242-N.jpg",NA,"1","1",NA,"0","0",NA,"0.614976500000012","0.712216600000374",NA,"1","1",NA,"1","1",NA,"1","1",NA
"250011","img/neutralC/CFD-AM-247-165-N.jpg",NA,"img/neutralC/CFD-WM-026-001-N.jpg","1",NA,"1","1",NA,"1","0.540176700000302",NA,"0.51605010000003","1",NA,"1","1",NA,"1","1",NA,"1"
"250011","img/neutralC/CFD-WM-026-001-N.jpg","img/neutralC/CFD-AM-247-165-N.jpg","img/neutralC/CFD-BF-202-109-N.jpg","1","1","1","1","1","1","0.51605010000003","0.540176700000302","0.409851900000376","1","1","1","1","1","1","1","1","1"
"250011","img/neutralC/CFD-BF-202-109-N.jpg","img/neutralC/CFD-WM-026-001-N.jpg","img/neutralC/CFD-BM-205-001-N.jpg","1","1","1","1","1","0","0.409851900000376","0.51605010000003","0.502234200000203","1","1","1","1","1","1","1","1","1"
"250011","img/neutralC/CFD-BM-205-001-N.jpg","img/neutralC/CFD-BF-202-109-N.jpg","img/neutralC/CFD-IF-642-295-N.jpg","1","1","1","0","1","1","0.502234200000203","0.409851900000376","0.489398500000334","1","1","1","1","1","1","1","1","1"
"250011","img/neutralC/CFD-IF-642-295-N.jpg","img/neutralC/CFD-BM-205-001-N.jpg","img/neutralC/CFD-LM-214-165-N.jpg","1","1","1","1","0","1","0.489398500000334","0.502234200000203","0.44302609999977","1","1","1","1","1","1","1","1","1"
"250011","img/neutralC/CFD-LM-214-165-N.jpg","img/neutralC/CFD-IF-642-295-N.jpg","img/neutralC/CFD-LM-201-057-N.jpg","1","1","1","1","1","1","0.44302609999977","0.489398500000334","0.488909700000477","1","1","1","1","1","1","1","1","1"
"250011","img/neutralC/CFD-LM-201-057-N.jpg","img/neutralC/CFD-LM-214-165-N.jpg","img/neutralC/CFD-WF-228-196-N.jpg","1","1","1","1","1","0","0.488909700000477","0.44302609999977","0.628534800000125","1","1","1","1","1","1","1","1","1"
"250011","img/neutralC/CFD-WF-228-196-N.jpg","img/neutralC/CFD-LM-201-057-N.jpg","img/neutralC/CFD-BF-228-212-N.jpg","1","1","0","0","1","0","0.628534800000125","0.488909700000477","0.439440399999967","1","1","1","1","1","1","1","1","1"
"250011","img/neutralC/CFD-BF-228-212-N.jpg","img/neutralC/CFD-WF-228-196-N.jpg","img/neutralC/CFD-BM-251-013-N.jpg","0","1","1","0","0","1","0.439440399999967","0.628534800000125","0.676723700000366","1","1","1","1","1","1","1","1","1"
"250011","img/neutralC/CFD-BM-251-013-N.jpg","img/neutralC/CFD-BF-228-212-N.jpg","img/neutralC/CFD-WM-012-001-N.jpg","1","0","1","1","0","1","0.676723700000366","0.439440399999967","0.450790400000187","1","1","1","1","1","1","1","1","1"
"250011","img/neutralC/CFD-WM-012-001-N.jpg","img/neutralC/CFD-BM-251-013-N.jpg","img/neutralC/CFD-WF-017-003-N.jpg","1","1","1","1","1","1","0.450790400000187","0.676723700000366","0.504862899999807","1","1","1","1","1","1","1","1","1"
"250011","img/neutralC/CFD-WF-017-003-N.jpg","img/neutralC/CFD-WM-012-001-N.jpg","img/neutralC/CFD-BF-041-001-N.jpg","1","1","1","1","1","1","0.504862899999807","0.450790400000187","0.40514179999991","1","1","1","1","1","1","1","1","1"
"250011","img/neutralC/CFD-BF-041-001-N.jpg","img/neutralC/CFD-WF-017-003-N.jpg","img/neutralC/CFD-WF-240-083-N.jpg","1","1","0","1","1","0","0.40514179999991","0.504862899999807","0.397510200000397","1","1","1","1","1","1","1","1","1"
"250011","img/neutralC/CFD-WF-240-083-N.jpg","img/neutralC/CFD-BF-041-001-N.jpg","img/neutralC/CFD-MF-309-002-N.jpg","0","1","1","0","1","0","0.397510200000397","0.40514179999991","0.52642010000045","1","1","1","1","1","1","1","1","1"
"250011","img/neutralC/CFD-MF-309-002-N.jpg","img/neutralC/CFD-WF-240-083-N.jpg","img/neutralC/CFD-MM-317-061-N.jpg","1","0","1","0","0","1","0.52642010000045","0.397510200000397","0.480177200000071","1","1","1","1","1","1","1","1","1"
"250011","img/neutralC/CFD-MM-317-061-N.jpg","img/neutralC/CFD-MF-309-002-N.jpg","img/neutralC/CFD-WM-006-002-N.jpg","1","1","1","1","0","0","0.480177200000071","0.52642010000045","0.501430900000287","1","1","1","1","1","1","1","1","1"
"250011","img/neutralC/CFD-WM-006-002-N.jpg","img/neutralC/CFD-MM-317-061-N.jpg","img/neutralC/CFD-BF-025-002-N.jpg","1","1","1","0","1","0","0.501430900000287","0.480177200000071","0.573616000000129","1","1","1","1","1","1","1","1","1"
"250011","img/neutralC/CFD-BF-025-002-N.jpg","img/neutralC/CFD-WM-006-002-N.jpg","img/neutralC/CFD-WM-019-003-N.jpg","1","1","1","0","0","1","0.573616000000129","0.501430900000287","0.468437100000301","1","1","1","1","1","1","1","1","1"
"250011","img/neutralC/CFD-WM-019-003-N.jpg","img/neutralC/CFD-BF-025-002-N.jpg","img/neutralC/CFD-BF-212-315-N.jpg","1","1","1","1","0","1","0.468437100000301","0.573616000000129","0.502955600000405","1","1","1","1","1","1","1","1","1"
"250011","img/neutralC/CFD-BF-212-315-N.jpg","img/neutralC/CFD-WM-019-003-N.jpg","img/neutralC/CFD-WF-005-010-N.jpg","1","1","1","1","1","0","0.502955600000405","0.468437100000301","0.519634200000382","1","1","1","1","1","1","1","1","1"
"250011","img/neutralC/CFD-WF-005-010-N.jpg","img/neutralC/CFD-BF-212-315-N.jpg","img/neutralC/CFD-IM-648-337-N.jpg","1","1","1","0","1","0","0.519634200000382","0.502955600000405","0.509157700000287","1","1","1","1","1","1","1","1","1"
"250011","img/neutralC/CFD-IM-648-337-N.jpg","img/neutralC/CFD-WF-005-010-N.jpg","img/neutralC/CFD-MF-335-002-N.jpg","1","1","1","0","0","0","0.509157700000287","0.519634200000382","0.535745500000303","1","1","1","1","1","1","1","1","1"
"250011","img/neutralC/CFD-MF-335-002-N.jpg","img/neutralC/CFD-IM-648-337-N.jpg","img/neutralC/CFD-WM-249-239-N.jpg","1","1","1","0","0","1","0.535745500000303","0.509157700000287","0.425439399999959","1","1","1","1","1","1","1","1","1"
"250011","img/neutralC/CFD-WM-249-239-N.jpg","img/neutralC/CFD-MF-335-002-N.jpg","img/neutralC/CFD-WM-215-041-N.jpg","1","1","1","1","0","0","0.425439399999959","0.535745500000303","0.614701500000137","1","1","1","1","1","1","1","1","1"
"250011","img/neutralC/CFD-WM-215-041-N.jpg","img/neutralC/CFD-WM-249-239-N.jpg","img/neutralC/CFD-WM-212-097-N.jpg","1","1","0","0","1","0","0.614701500000137","0.425439399999959","0.989558400000078","1","1","1","1","1","1","1","1","1"
"250011","img/neutralC/CFD-WM-212-097-N.jpg","img/neutralC/CFD-WM-215-041-N.jpg","img/neutralC/CFD-IM-646-023-N.jpg","0","1","1","0","0","1","0.989558400000078","0.614701500000137","0.729617299999973","1","1","1","1","1","1","1","1","1"
"250011","img/neutralC/CFD-IM-646-023-N.jpg","img/neutralC/CFD-WM-212-097-N.jpg","img/neutralC/CFD-LM-243-075-N.jpg","1","0","1","1","0","0","0.729617299999973","0.989558400000078","0.583062499999869","1","1","1","1","1","1","1","1","1"
"250011","img/neutralC/CFD-LM-243-075-N.jpg","img/neutralC/CFD-IM-646-023-N.jpg","img/neutralC/CFD-LM-216-082-N.jpg","1","1","1","0","1","0","0.583062499999869","0.729617299999973","0.502607200000512","1","1","1","1","1","1","1","1","1"
"250011","img/neutralC/CFD-LM-216-082-N.jpg","img/neutralC/CFD-LM-243-075-N.jpg","img/neutralC/CFD-BM-248-128-N.jpg","1","1","1","0","0","0","0.502607200000512","0.583062499999869","0.521494000000075","1","1","1","1","1","1","1","1","1"
"250011","img/neutralC/CFD-BM-248-128-N.jpg","img/neutralC/CFD-LM-216-082-N.jpg","img/neutralC/CFD-AF-240-206-N.jpg","1","1","1","0","0","0","0.521494000000075","0.502607200000512","0.614452800000436","1","1","1","1","1","1","1","1","1"
"250011","img/neutralC/CFD-AF-240-206-N.jpg","img/neutralC/CFD-BM-248-128-N.jpg","img/neutralC/CFD-LM-244-068-N.jpg","1","1","1","0","0","1","0.614452800000436","0.521494000000075","0.503449199999977","1","1","1","1","1","1","1","1","1"
"250011","img/neutralC/CFD-LM-244-068-N.jpg","img/neutralC/CFD-AF-240-206-N.jpg",NA,"1","1",NA,"1","0",NA,"0.503449199999977","0.614452800000436",NA,"1","1",NA,"1","1",NA,"1","1",NA
"250011","img/neutralC/CFD-IF-660-464-N.jpg",NA,"img/neutralC/CFD-IM-680-369-N.jpg","1",NA,"1","0",NA,"1","0.720570299999963",NA,"0.580121899999995","1",NA,"1","1",NA,"1","1",NA,"1"
"250011","img/neutralC/CFD-IM-680-369-N.jpg","img/neutralC/CFD-IF-660-464-N.jpg","img/neutralC/CFD-WF-244-163-N.jpg","1","1","1","1","0","1","0.580121899999995","0.720570299999963","0.523558900000353","1","1","1","1","1","1","1","1","1"
"250011","img/neutralC/CFD-WF-244-163-N.jpg","img/neutralC/CFD-IM-680-369-N.jpg","img/neutralC/CFD-IF-626-375-N.jpg","1","1","1","1","1","0","0.523558900000353","0.580121899999995","0.587690300000304","1","1","1","1","1","1","1","1","1"
"250011","img/neutralC/CFD-IF-626-375-N.jpg","img/neutralC/CFD-WF-244-163-N.jpg","img/neutralC/CFD-LF-206-078-N.jpg","1","1","1","0","1","1","0.587690300000304","0.523558900000353","0.616796800000429","1","1","1","1","1","1","1","1","1"
"250011","img/neutralC/CFD-LF-206-078-N.jpg","img/neutralC/CFD-IF-626-375-N.jpg","img/neutralC/CFD-WF-007-001-N.jpg","1","1","1","1","0","1","0.616796800000429","0.587690300000304","0.461680599999909","1","1","1","1","1","1","1","1","1"
"250011","img/neutralC/CFD-WF-007-001-N.jpg","img/neutralC/CFD-LF-206-078-N.jpg","img/neutralC/CFD-MF-343-001-N.jpg","1","1","1","1","1","1","0.461680599999909","0.616796800000429","0.376278199999888","1","1","1","1","1","1","1","1","1"
"250011","img/neutralC/CFD-MF-343-001-N.jpg","img/neutralC/CFD-WF-007-001-N.jpg","img/neutralC/CFD-MM-324-069-N.jpg","1","1","1","1","1","1","0.376278199999888","0.461680599999909","0.372360500000013","1","1","1","1","1","1","1","1","1"
"250011","img/neutralC/CFD-MM-324-069-N.jpg","img/neutralC/CFD-MF-343-001-N.jpg","img/neutralC/CFD-LF-255-088-N.jpg","1","1","1","1","1","0","0.372360500000013","0.376278199999888","0.539617899999939","1","1","1","1","1","1","1","1","1"
"250011","img/neutralC/CFD-LF-255-088-N.jpg","img/neutralC/CFD-MM-324-069-N.jpg","img/neutralC/CFD-IM-667-369-N.jpg","1","1","1","0","1","0","0.539617899999939","0.372360500000013","0.46766290000005","1","1","1","1","1","1","1","1","1"
"250011","img/neutralC/CFD-IM-667-369-N.jpg","img/neutralC/CFD-LF-255-088-N.jpg","img/neutralC/CFD-BM-217-082-N.jpg","1","1","0","0","0","0","0.46766290000005","0.539617899999939","0.402149699999882","1","1","1","1","1","1","1","1","1"
"250011","img/neutralC/CFD-BM-217-082-N.jpg","img/neutralC/CFD-IM-667-369-N.jpg","img/neutralC/CFD-BF-014-002-N.jpg","0","1","1","0","0","1","0.402149699999882","0.46766290000005","0.500049000000217","1","1","1","1","1","1","1","1","1"
"250011","img/neutralC/CFD-BF-014-002-N.jpg","img/neutralC/CFD-BM-217-082-N.jpg","img/neutralC/CFD-WF-030-002-N.jpg","1","0","1","1","0","0","0.500049000000217","0.402149699999882","0.563923500000328","1","1","1","1","1","1","1","1","1"
"250011","img/neutralC/CFD-WF-030-002-N.jpg","img/neutralC/CFD-BF-014-002-N.jpg","img/neutralC/CFD-BF-237-172-N.jpg","1","1","1","0","1","1","0.563923500000328","0.500049000000217","0.441339300000436","1","1","1","1","1","1","1","1","1"
"250011","img/neutralC/CFD-BF-237-172-N.jpg","img/neutralC/CFD-WF-030-002-N.jpg","img/neutralC/CFD-WM-209-038-N.jpg","1","1","1","1","0","0","0.441339300000436","0.563923500000328","0.541800599999988","1","1","1","1","1","1","1","1","1"
"250011","img/neutralC/CFD-WM-209-038-N.jpg","img/neutralC/CFD-BF-237-172-N.jpg","img/neutralC/CFD-AF-233-190-N.jpg","1","1","1","0","1","0","0.541800599999988","0.441339300000436","0.525967600000058","1","1","1","1","1","1","1","1","1"
"250011","img/neutralC/CFD-AF-233-190-N.jpg","img/neutralC/CFD-WM-209-038-N.jpg","img/neutralC/CFD-IM-702-101-N.jpg","1","1","1","0","0","1","0.525967600000058","0.541800599999988","0.71538959999998","1","1","1","1","1","1","1","1","1"
"250011","img/neutralC/CFD-IM-702-101-N.jpg","img/neutralC/CFD-AF-233-190-N.jpg","img/neutralC/CFD-WF-222-092-N.jpg","1","1","1","1","0","1","0.71538959999998","0.525967600000058","0.468644600000061","1","1","1","1","1","1","1","1","1"
"250011","img/neutralC/CFD-WF-222-092-N.jpg","img/neutralC/CFD-IM-702-101-N.jpg","img/neutralC/CFD-IM-706-002-N.jpg","1","1","1","1","1","0","0.468644600000061","0.71538959999998","0.542739300000449","1","1","1","1","1","1","1","1","1"
"250011","img/neutralC/CFD-IM-706-002-N.jpg","img/neutralC/CFD-WF-222-092-N.jpg","img/neutralC/CFD-MF-305-014-N.jpg","1","1","1","0","1","1","0.542739300000449","0.468644600000061","0.495665400000235","1","1","1","1","1","1","1","1","1"
"250011","img/neutralC/CFD-MF-305-014-N.jpg","img/neutralC/CFD-IM-706-002-N.jpg","img/neutralC/CFD-LM-200-045-N.jpg","1","1","1","1","0","1","0.495665400000235","0.542739300000449","0.549801700000444","1","1","1","1","1","1","1","1","1"
"250011","img/neutralC/CFD-LM-200-045-N.jpg","img/neutralC/CFD-MF-305-014-N.jpg","img/neutralC/CFD-BM-001-014-N.jpg","1","1","1","1","1","0","0.549801700000444","0.495665400000235","0.546848899999986","1","1","1","1","1","1","1","1","1"
"250011","img/neutralC/CFD-BM-001-014-N.jpg","img/neutralC/CFD-LM-200-045-N.jpg","img/neutralC/CFD-MF-303-013-N.jpg","1","1","1","0","1","0","0.546848899999986","0.549801700000444","0.536365200000091","1","1","1","1","1","1","1","1","1"
"250011","img/neutralC/CFD-MF-303-013-N.jpg","img/neutralC/CFD-BM-001-014-N.jpg","img/neutralC/CFD-WM-015-002-N.jpg","1","1","0","0","0","0","0.536365200000091","0.546848899999986","0.773611300000084","1","1","1","1","1","1","1","1","1"
"250011","img/neutralC/CFD-WM-015-002-N.jpg","img/neutralC/CFD-MF-303-013-N.jpg","img/neutralC/CFD-AF-253-130-N.jpg","0","1","1","0","0","1","0.773611300000084","0.536365200000091","0.490706400000363","1","1","1","1","1","1","1","1","1"
"250011","img/neutralC/CFD-AF-253-130-N.jpg","img/neutralC/CFD-WM-015-002-N.jpg","img/neutralC/CFD-AM-220-134-N.jpg","1","0","1","1","0","0","0.490706400000363","0.773611300000084","0.522663700000521","1","1","1","1","1","1","1","1","1"
"250011","img/neutralC/CFD-AM-220-134-N.jpg","img/neutralC/CFD-AF-253-130-N.jpg","img/neutralC/CFD-BM-250-170-N.jpg","1","1","0","0","1","1","0.522663700000521","0.490706400000363","0.616332900000089","1","1","1","1","1","1","1","1","1"
"250011","img/neutralC/CFD-BM-250-170-N.jpg","img/neutralC/CFD-AM-220-134-N.jpg","img/neutralC/CFD-IM-664-651-N.jpg","0","1","1","1","0","1","0.616332900000089","0.522663700000521","0.473544300000412","1","1","1","1","1","1","1","1","1"
"250011","img/neutralC/CFD-IM-664-651-N.jpg","img/neutralC/CFD-BM-250-170-N.jpg","img/neutralC/CFD-LM-225-130-N.jpg","1","0","1","1","1","0","0.473544300000412","0.616332900000089","0.844839500000035","1","1","1","1","1","1","1","1","1"
"250011","img/neutralC/CFD-LM-225-130-N.jpg","img/neutralC/CFD-IM-664-651-N.jpg","img/neutralC/CFD-WM-218-074-N.jpg","1","1","1","0","1","1","0.844839500000035","0.473544300000412","0.545739600000161","1","1","1","1","1","1","1","1","1"
"250011","img/neutralC/CFD-WM-218-074-N.jpg","img/neutralC/CFD-LM-225-130-N.jpg","img/neutralC/CFD-MF-357-002-N.jpg","1","1","1","1","0","0","0.545739600000161","0.844839500000035","0.702235400000063","1","1","1","1","1","1","1","1","1"
"250011","img/neutralC/CFD-MF-357-002-N.jpg","img/neutralC/CFD-WM-218-074-N.jpg","img/neutralC/CFD-MF-316-001-N.jpg","1","1","1","0","1","0","0.702235400000063","0.545739600000161","0.514846900000066","1","1","1","1","1","1","1","1","1"
"250011","img/neutralC/CFD-MF-316-001-N.jpg","img/neutralC/CFD-MF-357-002-N.jpg",NA,"1","1",NA,"0","0",NA,"0.514846900000066","0.702235400000063",NA,"1","1",NA,"1","1",NA,"1","1",NA
"250011","img/neutralC/CFD-AF-231-357-N.jpg",NA,"img/neutralC/CFD-WM-021-001-N.jpg","1",NA,"1","1",NA,"1","0.541839000000436",NA,"0.482011500000226","1",NA,"1","1",NA,"1","1",NA,"1"
"250011","img/neutralC/CFD-WM-021-001-N.jpg","img/neutralC/CFD-AF-231-357-N.jpg","img/neutralC/CFD-WM-041-021-N.jpg","1","1","0","1","1","0","0.482011500000226","0.541839000000436","0.471443000000363","1","1","1","1","1","1","1","1","2"
"250011","img/neutralC/CFD-WM-041-021-N.jpg","img/neutralC/CFD-WM-021-001-N.jpg","img/neutralC/CFD-WF-250-167-N.jpg","0","1","1","0","1","1","0.471443000000363","0.482011500000226","0.462560900000426","1","1","1","1","1","1","2","1","1"
"250011","img/neutralC/CFD-WF-250-167-N.jpg","img/neutralC/CFD-WM-041-021-N.jpg","img/neutralC/CFD-BM-041-035-N.jpg","1","0","1","1","0","0","0.462560900000426","0.471443000000363","0.583983100000296","1","1","1","1","1","1","1","2","1"
"250011","img/neutralC/CFD-BM-041-035-N.jpg","img/neutralC/CFD-WF-250-167-N.jpg","img/neutralC/CFD-IM-684-008-N.jpg","1","1","1","0","1","1","0.583983100000296","0.462560900000426","0.657247000000552","1","1","1","1","1","1","1","1","1"
"250011","img/neutralC/CFD-IM-684-008-N.jpg","img/neutralC/CFD-BM-041-035-N.jpg","img/neutralC/CFD-BM-239-136-N.jpg","1","1","1","1","0","1","0.657247000000552","0.583983100000296","0.467235500000243","1","1","1","1","1","1","1","1","1"
"250011","img/neutralC/CFD-BM-239-136-N.jpg","img/neutralC/CFD-IM-684-008-N.jpg","img/neutralC/CFD-MF-337-026-N.jpg","1","1","1","1","1","1","0.467235500000243","0.657247000000552","0.445286900000156","1","1","1","1","1","1","1","1","1"
"250011","img/neutralC/CFD-MF-337-026-N.jpg","img/neutralC/CFD-BM-239-136-N.jpg","img/neutralC/CFD-LF-214-090-N.jpg","1","1","1","1","1","0","0.445286900000156","0.467235500000243","0.530604999999923","1","1","1","1","1","1","1","1","1"
"250011","img/neutralC/CFD-LF-214-090-N.jpg","img/neutralC/CFD-MF-337-026-N.jpg","img/neutralC/CFD-AM-212-050-N.jpg","1","1","1","0","1","1","0.530604999999923","0.445286900000156","0.417544800000087","1","1","1","1","1","1","1","1","1"
"250011","img/neutralC/CFD-AM-212-050-N.jpg","img/neutralC/CFD-LF-214-090-N.jpg","img/neutralC/CFD-LF-205-100-N.jpg","1","1","1","1","0","1","0.417544800000087","0.530604999999923","0.556456100000105","1","1","1","1","1","1","1","1","1"
"250011","img/neutralC/CFD-LF-205-100-N.jpg","img/neutralC/CFD-AM-212-050-N.jpg","img/neutralC/CFD-AM-201-076-N.jpg","1","1","1","1","1","1","0.556456100000105","0.417544800000087","0.475278399999752","1","1","1","1","1","1","1","1","1"
"250011","img/neutralC/CFD-AM-201-076-N.jpg","img/neutralC/CFD-LF-205-100-N.jpg","img/neutralC/CFD-BF-205-141-N.jpg","1","1","1","1","1","0","0.475278399999752","0.556456100000105","0.785471700000471","1","1","1","1","1","1","1","1","1"
"250011","img/neutralC/CFD-BF-205-141-N.jpg","img/neutralC/CFD-AM-201-076-N.jpg","img/neutralC/CFD-BF-213-188-N.jpg","1","1","1","0","1","1","0.785471700000471","0.475278399999752","0.498182400000587","1","1","1","1","1","1","1","1","1"
"250011","img/neutralC/CFD-BF-213-188-N.jpg","img/neutralC/CFD-BF-205-141-N.jpg","img/neutralC/CFD-BF-253-202-N.jpg","1","1","1","1","0","0","0.498182400000587","0.785471700000471","0.542184800000086","1","1","1","1","1","1","1","1","1"
"250011","img/neutralC/CFD-BF-253-202-N.jpg","img/neutralC/CFD-BF-213-188-N.jpg","img/neutralC/CFD-LM-218-183-N.jpg","1","1","1","0","1","1","0.542184800000086","0.498182400000587","0.741241300000183","1","1","1","1","1","1","1","1","1"
"250011","img/neutralC/CFD-LM-218-183-N.jpg","img/neutralC/CFD-BF-253-202-N.jpg","img/neutralC/CFD-IF-634-382-N.jpg","1","1","1","1","0","1","0.741241300000183","0.542184800000086","0.536065000000235","1","1","1","1","1","1","1","1","1"
"250011","img/neutralC/CFD-IF-634-382-N.jpg","img/neutralC/CFD-LM-218-183-N.jpg","img/neutralC/CFD-MM-316-156-N.jpg","1","1","1","1","1","1","0.536065000000235","0.741241300000183","0.643746199999896","1","1","1","1","1","1","1","1","1"
"250011","img/neutralC/CFD-MM-316-156-N.jpg","img/neutralC/CFD-IF-634-382-N.jpg","img/neutralC/CFD-BM-019-002-N.jpg","1","1","1","1","1","0","0.643746199999896","0.536065000000235","0.63029460000007","1","1","1","1","1","1","1","1","1"
"250011","img/neutralC/CFD-BM-019-002-N.jpg","img/neutralC/CFD-MM-316-156-N.jpg","img/neutralC/CFD-WF-213-031-N.jpg","1","1","1","0","1","1","0.63029460000007","0.643746199999896","0.467423200000212","1","1","1","1","1","1","1","1","1"
"250011","img/neutralC/CFD-WF-213-031-N.jpg","img/neutralC/CFD-BM-019-002-N.jpg","img/neutralC/CFD-IM-651-308-N.jpg","1","1","1","1","0","0","0.467423200000212","0.63029460000007","0.632028699999864","1","1","1","1","1","1","1","1","1"
"250011","img/neutralC/CFD-IM-651-308-N.jpg","img/neutralC/CFD-WF-213-031-N.jpg","img/neutralC/CFD-LF-224-176-N.jpg","1","1","1","0","1","0","0.632028699999864","0.467423200000212","0.514299500000106","1","1","1","1","1","1","1","1","1"
"250011","img/neutralC/CFD-LF-224-176-N.jpg","img/neutralC/CFD-IM-651-308-N.jpg","img/neutralC/CFD-BF-029-031-N.jpg","1","1","1","0","0","1","0.514299500000106","0.632028699999864","0.411117399999966","1","1","1","1","1","1","1","1","1"
"250011","img/neutralC/CFD-BF-029-031-N.jpg","img/neutralC/CFD-LF-224-176-N.jpg","img/neutralC/CFD-IF-693-172-N.jpg","1","1","0","1","0","0","0.411117399999966","0.514299500000106","0.55770240000038","1","1","1","1","1","1","1","1","1"
"250011","img/neutralC/CFD-IF-693-172-N.jpg","img/neutralC/CFD-BF-029-031-N.jpg","img/neutralC/CFD-LF-230-203-N.jpg","0","1","0","0","1","0","0.55770240000038","0.411117399999966","0.477486300000237","1","1","1","1","1","1","1","1","1"
"250011","img/neutralC/CFD-LF-230-203-N.jpg","img/neutralC/CFD-IF-693-172-N.jpg","img/neutralC/CFD-WM-011-002-N.jpg","0","0","1","0","0","0","0.477486300000237","0.55770240000038","0.566739300000336","1","1","1","1","1","1","1","1","1"
"250011","img/neutralC/CFD-WM-011-002-N.jpg","img/neutralC/CFD-LF-230-203-N.jpg","img/neutralC/CFD-BM-033-003-N.jpg","1","0","1","0","0","0","0.566739300000336","0.477486300000237","0.502144399999906","1","1","1","1","1","1","1","1","1"
"250011","img/neutralC/CFD-BM-033-003-N.jpg","img/neutralC/CFD-WM-011-002-N.jpg","img/neutralC/CFD-WF-224-099-N.jpg","1","1","1","0","0","0","0.502144399999906","0.566739300000336","0.630565500000102","1","1","1","1","1","1","1","1","1"
"250011","img/neutralC/CFD-WF-224-099-N.jpg","img/neutralC/CFD-BM-033-003-N.jpg","img/neutralC/CFD-LM-215-247-N.jpg","1","1","1","0","0","0","0.630565500000102","0.502144399999906","0.524776900000234","1","1","1","1","1","1","1","1","1"
"250011","img/neutralC/CFD-LM-215-247-N.jpg","img/neutralC/CFD-WF-224-099-N.jpg","img/neutralC/CFD-LF-203-066-N.jpg","1","1","1","0","0","0","0.524776900000234","0.630565500000102","0.552597400000195","1","1","1","1","1","1","1","1","1"
"250011","img/neutralC/CFD-LF-203-066-N.jpg","img/neutralC/CFD-LM-215-247-N.jpg","img/neutralC/CFD-BF-039-031-N.jpg","1","1","1","0","0","1","0.552597400000195","0.524776900000234","0.895756500000516","1","1","1","1","1","1","1","1","1"
"250011","img/neutralC/CFD-BF-039-031-N.jpg","img/neutralC/CFD-LF-203-066-N.jpg","img/neutralC/CFD-IF-710-016-N.jpg","1","1","0","1","0","0","0.895756500000516","0.552597400000195","0.434362400000282","1","1","1","1","1","1","1","1","1"
"250011","img/neutralC/CFD-IF-710-016-N.jpg","img/neutralC/CFD-BF-039-031-N.jpg",NA,"0","1",NA,"0","1",NA,"0.434362400000282","0.895756500000516",NA,"1","1",NA,"1","1",NA,"1","1",NA
"250011","img/neutralC/CFD-LF-220-120-N.jpg",NA,"img/neutralC/CFD-AM-242-176-N.jpg","1",NA,"1","1",NA,"1","0.499515099999826",NA,"0.439100900000085","1",NA,"1","1",NA,"1","1",NA,"1"
"250011","img/neutralC/CFD-AM-242-176-N.jpg","img/neutralC/CFD-LF-220-120-N.jpg","img/neutralC/CFD-MF-333-012-N.jpg","1","1","1","1","1","0","0.439100900000085","0.499515099999826","0.513026999999965","1","1","1","1","1","1","1","1","1"
"250011","img/neutralC/CFD-MF-333-012-N.jpg","img/neutralC/CFD-AM-242-176-N.jpg","img/neutralC/CFD-WM-004-010-N.jpg","1","1","1","0","1","0","0.513026999999965","0.439100900000085","0.461881000000176","1","1","1","1","1","1","1","1","1"
"250011","img/neutralC/CFD-WM-004-010-N.jpg","img/neutralC/CFD-MF-333-012-N.jpg","img/neutralC/CFD-BM-253-004-N.jpg","1","1","0","0","0","1","0.461881000000176","0.513026999999965","0.413365400000202","1","1","1","1","1","1","1","1","1"
"250011","img/neutralC/CFD-BM-253-004-N.jpg","img/neutralC/CFD-WM-004-010-N.jpg","img/neutralC/CFD-BF-226-119-N.jpg","0","1","1","1","0","1","0.413365400000202","0.461881000000176","0.480731900000137","1","1","1","1","1","1","1","1","1"
"250011","img/neutralC/CFD-BF-226-119-N.jpg","img/neutralC/CFD-BM-253-004-N.jpg","img/neutralC/CFD-WF-200-099-N.jpg","1","0","1","1","1","0","0.480731900000137","0.413365400000202","0.552969299999859","1","1","1","1","1","1","1","1","1"
"250011","img/neutralC/CFD-WF-200-099-N.jpg","img/neutralC/CFD-BF-226-119-N.jpg","img/neutralC/CFD-LM-228-188-N.jpg","1","1","1","0","1","1","0.552969299999859","0.480731900000137","0.499784700000419","1","1","1","1","1","1","1","1","1"
"250011","img/neutralC/CFD-LM-228-188-N.jpg","img/neutralC/CFD-WF-200-099-N.jpg","img/neutralC/CFD-MF-352-054-N.jpg","1","1","1","1","0","0","0.499784700000419","0.552969299999859","0.562693500000023","1","1","1","1","1","1","1","1","1"
"250011","img/neutralC/CFD-MF-352-054-N.jpg","img/neutralC/CFD-LM-228-188-N.jpg","img/neutralC/CFD-LF-218-072-N.jpg","1","1","1","0","1","0","0.562693500000023","0.499784700000419","0.572015800000372","1","1","1","1","1","1","1","1","1"
"250011","img/neutralC/CFD-LF-218-072-N.jpg","img/neutralC/CFD-MF-352-054-N.jpg","img/neutralC/CFD-IM-616-214-N.jpg","1","1","1","0","0","0","0.572015800000372","0.562693500000023","0.528740000000198","1","1","1","1","1","1","1","1","1"
"250011","img/neutralC/CFD-IM-616-214-N.jpg","img/neutralC/CFD-LF-218-072-N.jpg","img/neutralC/CFD-WM-235-147-N.jpg","1","1","1","0","0","0","0.528740000000198","0.572015800000372","0.48682030000009","1","1","1","1","1","1","1","1","1"
"250011","img/neutralC/CFD-WM-235-147-N.jpg","img/neutralC/CFD-IM-616-214-N.jpg","img/neutralC/CFD-WF-036-023-N.jpg","1","1","1","0","0","0","0.48682030000009","0.528740000000198","0.589080199999898","1","1","1","1","1","1","1","1","1"
"250011","img/neutralC/CFD-WF-036-023-N.jpg","img/neutralC/CFD-WM-235-147-N.jpg","img/neutralC/CFD-WF-001-003-N.jpg","1","1","1","0","0","1","0.589080199999898","0.48682030000009","0.443515500000103","1","1","1","1","1","1","1","1","1"
"250011","img/neutralC/CFD-WF-001-003-N.jpg","img/neutralC/CFD-WF-036-023-N.jpg","img/neutralC/CFD-IF-650-315-N.jpg","1","1","1","1","0","0","0.443515500000103","0.589080199999898","0.679924300000039","1","1","1","1","1","1","1","1","1"
"250011","img/neutralC/CFD-IF-650-315-N.jpg","img/neutralC/CFD-WF-001-003-N.jpg","img/neutralC/CFD-IM-703-182-N.jpg","1","1","1","0","1","1","0.679924300000039","0.443515500000103","0.456489800000327","1","1","1","1","1","1","1","1","1"
"250011","img/neutralC/CFD-IM-703-182-N.jpg","img/neutralC/CFD-IF-650-315-N.jpg","img/neutralC/CFD-WF-214-122-N.jpg","1","1","1","1","0","1","0.456489800000327","0.679924300000039","0.42312979999997","1","1","1","1","1","1","1","1","1"
"250011","img/neutralC/CFD-WF-214-122-N.jpg","img/neutralC/CFD-IM-703-182-N.jpg","img/neutralC/CFD-BM-225-154-N.jpg","1","1","1","1","1","1","0.42312979999997","0.456489800000327","0.905725200000234","1","1","1","1","1","1","1","1","1"
"250011","img/neutralC/CFD-BM-225-154-N.jpg","img/neutralC/CFD-WF-214-122-N.jpg","img/neutralC/CFD-WM-219-008-N.jpg","1","1","1","1","1","0","0.905725200000234","0.42312979999997","0.589553799999976","1","1","1","1","1","1","1","1","1"
"250011","img/neutralC/CFD-WM-219-008-N.jpg","img/neutralC/CFD-BM-225-154-N.jpg","img/neutralC/CFD-WM-020-001-N.jpg","1","1","1","0","1","1","0.589553799999976","0.905725200000234","0.516835299999912","1","1","1","1","1","1","1","1","1"
"250011","img/neutralC/CFD-WM-020-001-N.jpg","img/neutralC/CFD-WM-219-008-N.jpg","img/neutralC/CFD-BF-038-037-N.jpg","1","1","1","1","0","1","0.516835299999912","0.589553799999976","0.612768700000288","1","1","1","1","1","1","1","1","1"
"250011","img/neutralC/CFD-BF-038-037-N.jpg","img/neutralC/CFD-WM-020-001-N.jpg","img/neutralC/CFD-LM-237-264-N.jpg","1","1","1","1","1","0","0.612768700000288","0.516835299999912","0.480137099999865","1","1","1","1","1","1","1","1","1"
"250011","img/neutralC/CFD-LM-237-264-N.jpg","img/neutralC/CFD-BF-038-037-N.jpg","img/neutralC/CFD-IM-671-601-N.jpg","1","1","1","0","1","0","0.480137099999865","0.612768700000288","0.555437600000005","1","1","1","1","1","1","1","1","1"
"250011","img/neutralC/CFD-IM-671-601-N.jpg","img/neutralC/CFD-LM-237-264-N.jpg","img/neutralC/CFD-BF-229-179-N.jpg","1","1","1","0","0","0","0.555437600000005","0.480137099999865","0.757337600000028","1","1","1","1","1","1","1","1","1"
"250011","img/neutralC/CFD-BF-229-179-N.jpg","img/neutralC/CFD-IM-671-601-N.jpg","img/neutralC/CFD-AM-211-052-N.jpg","1","1","1","0","0","1","0.757337600000028","0.555437600000005","0.452692100000149","1","1","1","1","1","1","1","1","1"
"250011","img/neutralC/CFD-AM-211-052-N.jpg","img/neutralC/CFD-BF-229-179-N.jpg","img/neutralC/CFD-IM-743-006-N.jpg","1","1","1","1","0","1","0.452692100000149","0.757337600000028","0.444930800000293","1","1","1","1","1","1","1","1","1"
"250011","img/neutralC/CFD-IM-743-006-N.jpg","img/neutralC/CFD-AM-211-052-N.jpg","img/neutralC/CFD-WM-033-025-N.jpg","1","1","1","1","1","1","0.444930800000293","0.452692100000149","0.964460800000324","1","1","1","1","1","1","1","1","1"
"250011","img/neutralC/CFD-WM-033-025-N.jpg","img/neutralC/CFD-IM-743-006-N.jpg","img/neutralC/CFD-BF-232-187-N.jpg","1","1","1","1","1","1","0.964460800000324","0.444930800000293","0.558143300000211","1","1","1","1","1","1","1","1","1"
"250011","img/neutralC/CFD-BF-232-187-N.jpg","img/neutralC/CFD-WM-033-025-N.jpg","img/neutralC/CFD-IM-645-001-N.jpg","1","1","1","1","1","0","0.558143300000211","0.964460800000324","0.722341400000005","1","1","1","1","1","1","1","1","1"
"250011","img/neutralC/CFD-IM-645-001-N.jpg","img/neutralC/CFD-BF-232-187-N.jpg","img/neutralC/CFD-AM-251-124-N.jpg","1","1","1","0","1","0","0.722341400000005","0.558143300000211","0.456675700000233","1","1","1","1","1","1","1","1","1"
"250011","img/neutralC/CFD-AM-251-124-N.jpg","img/neutralC/CFD-IM-645-001-N.jpg","img/neutralC/CFD-MF-359-019-N.jpg","1","1","0","0","0","0","0.456675700000233","0.722341400000005","0.366211300000032","1","1","1","1","1","1","1","1","1"
"250011","img/neutralC/CFD-MF-359-019-N.jpg","img/neutralC/CFD-AM-251-124-N.jpg","img/neutralC/CFD-IF-623-129-N.jpg","0","1","1","0","0","1","0.366211300000032","0.456675700000233","0.949663899999905","1","1","1","1","1","1","1","1","1"
"250011","img/neutralC/CFD-IF-623-129-N.jpg","img/neutralC/CFD-MF-359-019-N.jpg",NA,"1","0",NA,"1","0",NA,"0.949663899999905","0.366211300000032",NA,"1","1",NA,"1","1",NA,"1","1",NA
"250011","img/neutralC/CFD-IM-627-178-N.jpg",NA,"img/neutralC/CFD-WF-238-023-N.jpg","1",NA,"0","1",NA,"0","0.753072099999827",NA,NA,"1",NA,"0","1",NA,"0","1",NA,"0"
"250011","img/neutralC/CFD-WF-238-023-N.jpg","img/neutralC/CFD-IM-627-178-N.jpg","img/neutralC/CFD-IM-719-221-N.jpg","0","1","0","0","1","0",NA,"0.753072099999827","0.717234299999745","0","1","1","0","1","1","0","1","1"
"250011","img/neutralC/CFD-IM-719-221-N.jpg","img/neutralC/CFD-WF-238-023-N.jpg","img/neutralC/CFD-MF-342-022-N.jpg","0","0","1","0","0","1","0.717234299999745",NA,"0.636305500000162","1","0","1","1","0","1","1","0","1"
"250011","img/neutralC/CFD-MF-342-022-N.jpg","img/neutralC/CFD-IM-719-221-N.jpg","img/neutralC/CFD-BF-018-039-N.jpg","1","0","1","1","0","1","0.636305500000162","0.717234299999745","0.467444200000045","1","1","1","1","1","1","1","1","1"
"250011","img/neutralC/CFD-BF-018-039-N.jpg","img/neutralC/CFD-MF-342-022-N.jpg","img/neutralC/CFD-WF-245-084-N.jpg","1","1","1","1","1","1","0.467444200000045","0.636305500000162","0.598263099999713","1","1","1","1","1","1","1","1","1"
"250011","img/neutralC/CFD-WF-245-084-N.jpg","img/neutralC/CFD-BF-018-039-N.jpg","img/neutralC/CFD-WM-009-002-N.jpg","1","1","1","1","1","0","0.598263099999713","0.467444200000045","0.503070500000376","1","1","1","1","1","1","1","1","1"
"250011","img/neutralC/CFD-WM-009-002-N.jpg","img/neutralC/CFD-WF-245-084-N.jpg","img/neutralC/CFD-MF-321-003-N.jpg","1","1","1","0","1","0","0.503070500000376","0.598263099999713","0.484658800000034","1","1","1","1","1","1","1","1","1"
"250011","img/neutralC/CFD-MF-321-003-N.jpg","img/neutralC/CFD-WM-009-002-N.jpg","img/neutralC/CFD-BM-200-046-N.jpg","1","1","1","0","0","0","0.484658800000034","0.503070500000376","0.59699640000008","1","1","1","1","1","1","1","1","1"
"250011","img/neutralC/CFD-BM-200-046-N.jpg","img/neutralC/CFD-MF-321-003-N.jpg","img/neutralC/CFD-WM-255-219-N.jpg","1","1","0","0","0","0","0.59699640000008","0.484658800000034","0.806536800000231","1","1","1","1","1","1","1","1","1"
"250011","img/neutralC/CFD-WM-255-219-N.jpg","img/neutralC/CFD-BM-200-046-N.jpg","img/neutralC/CFD-BM-204-003-N.jpg","0","1","0","0","0","0","0.806536800000231","0.59699640000008","0.617486399999962","1","1","1","1","1","1","1","1","1"
"250011","img/neutralC/CFD-BM-204-003-N.jpg","img/neutralC/CFD-WM-255-219-N.jpg","img/neutralC/CFD-WF-018-017-N.jpg","0","0","1","0","0","1","0.617486399999962","0.806536800000231","0.512047600000187","1","1","1","1","1","1","1","1","1"
"250011","img/neutralC/CFD-WF-018-017-N.jpg","img/neutralC/CFD-BM-204-003-N.jpg","img/neutralC/CFD-LM-253-075-N.jpg","1","0","1","1","0","0","0.512047600000187","0.617486399999962","0.564305100000183","1","1","1","1","1","1","1","1","1"
"250011","img/neutralC/CFD-LM-253-075-N.jpg","img/neutralC/CFD-WF-018-017-N.jpg","img/neutralC/CFD-BF-218-207-N.jpg","1","1","1","0","1","1","0.564305100000183","0.512047600000187","0.591877500000464","1","1","1","1","1","1","1","1","1"
"250011","img/neutralC/CFD-BF-218-207-N.jpg","img/neutralC/CFD-LM-253-075-N.jpg","img/neutralC/CFD-WM-013-001-N.jpg","1","1","1","1","0","1","0.591877500000464","0.564305100000183","0.553601000000072","1","1","1","1","1","1","1","1","1"
"250011","img/neutralC/CFD-WM-013-001-N.jpg","img/neutralC/CFD-BF-218-207-N.jpg","img/neutralC/CFD-LF-211-003-N.jpg","1","1","1","1","1","0","0.553601000000072","0.591877500000464","0.564556799999991","1","1","1","1","1","1","1","1","1"
"250011","img/neutralC/CFD-LF-211-003-N.jpg","img/neutralC/CFD-WM-013-001-N.jpg","img/neutralC/CFD-WF-023-003-N.jpg","1","1","1","0","1","1","0.564556799999991","0.553601000000072","0.509563099999923","1","1","1","1","1","1","1","1","1"
"250011","img/neutralC/CFD-WF-023-003-N.jpg","img/neutralC/CFD-LF-211-003-N.jpg","img/neutralC/CFD-WM-201-063-N.jpg","1","1","1","1","0","1","0.509563099999923","0.564556799999991","0.587208999999802","1","1","1","1","1","1","1","1","1"
"250011","img/neutralC/CFD-WM-201-063-N.jpg","img/neutralC/CFD-WF-023-003-N.jpg","img/neutralC/CFD-AF-221-147-N.jpg","1","1","1","1","1","0","0.587208999999802","0.509563099999923","0.560553600000276","1","1","1","1","1","1","1","1","1"
"250011","img/neutralC/CFD-AF-221-147-N.jpg","img/neutralC/CFD-WM-201-063-N.jpg","img/neutralC/CFD-BM-023-029-N.jpg","1","1","1","0","1","1","0.560553600000276","0.587208999999802","0.367909000000054","1","1","1","1","1","1","1","1","1"
"250011","img/neutralC/CFD-BM-023-029-N.jpg","img/neutralC/CFD-AF-221-147-N.jpg","img/neutralC/CFD-WM-237-052-N.jpg","1","1","1","1","0","1","0.367909000000054","0.560553600000276","0.443187599999874","1","1","1","1","1","1","1","1","1"
"250011","img/neutralC/CFD-WM-237-052-N.jpg","img/neutralC/CFD-BM-023-029-N.jpg","img/neutralC/CFD-IF-629-234-N.jpg","1","1","0","1","1","0","0.443187599999874","0.367909000000054","0.396128300000328","1","1","1","1","1","1","1","1","1"
"250011","img/neutralC/CFD-IF-629-234-N.jpg","img/neutralC/CFD-WM-237-052-N.jpg","img/neutralC/CFD-LF-215-157-N.jpg","0","1","1","0","1","0","0.396128300000328","0.443187599999874","0.583105400000022","1","1","1","1","1","1","1","1","1"
"250011","img/neutralC/CFD-LF-215-157-N.jpg","img/neutralC/CFD-IF-629-234-N.jpg","img/neutralC/CFD-AF-232-078-N.jpg","1","0","1","0","0","1","0.583105400000022","0.396128300000328","0.435648799999854","1","1","1","1","1","1","1","1","1"
"250011","img/neutralC/CFD-AF-232-078-N.jpg","img/neutralC/CFD-LF-215-157-N.jpg","img/neutralC/CFD-IM-700-009-N.jpg","1","1","1","1","0","1","0.435648799999854","0.583105400000022","0.619874999999865","1","1","1","1","1","1","1","1","1"
"250011","img/neutralC/CFD-IM-700-009-N.jpg","img/neutralC/CFD-AF-232-078-N.jpg","img/neutralC/CFD-AM-244-222-N.jpg","1","1","1","1","1","0","0.619874999999865","0.435648799999854","0.495525199999975","1","1","1","1","1","1","1","1","1"
"250011","img/neutralC/CFD-AM-244-222-N.jpg","img/neutralC/CFD-IM-700-009-N.jpg","img/neutralC/CFD-WM-221-091-N.jpg","1","1","1","0","1","0","0.495525199999975","0.619874999999865","0.546397700000398","1","1","1","1","1","1","1","1","1"
"250011","img/neutralC/CFD-WM-221-091-N.jpg","img/neutralC/CFD-AM-244-222-N.jpg","img/neutralC/CFD-MF-318-022-N.jpg","1","1","1","0","0","1","0.546397700000398","0.495525199999975","0.593781199999739","1","1","1","1","1","1","1","1","1"
"250011","img/neutralC/CFD-MF-318-022-N.jpg","img/neutralC/CFD-WM-221-091-N.jpg","img/neutralC/CFD-BF-254-201-N.jpg","1","1","1","1","0","0","0.593781199999739","0.546397700000398","0.541926000000331","1","1","1","1","1","1","1","1","1"
"250011","img/neutralC/CFD-BF-254-201-N.jpg","img/neutralC/CFD-MF-318-022-N.jpg","img/neutralC/CFD-WF-027-003-N.jpg","1","1","1","0","1","1","0.541926000000331","0.593781199999739","0.443393499999729","1","1","1","1","1","1","1","1","1"
"250011","img/neutralC/CFD-WF-027-003-N.jpg","img/neutralC/CFD-BF-254-201-N.jpg","img/neutralC/CFD-MM-321-021-N.jpg","1","1","1","1","0","0","0.443393499999729","0.541926000000331","0.489421700000094","1","1","1","1","1","1","1","1","1"
"250011","img/neutralC/CFD-MM-321-021-N.jpg","img/neutralC/CFD-WF-027-003-N.jpg","img/neutralC/CFD-WF-226-095-N.jpg","1","1","1","0","1","1","0.489421700000094","0.443393499999729","0.755609800000457","1","1","1","1","1","1","1","1","1"
"250011","img/neutralC/CFD-WF-226-095-N.jpg","img/neutralC/CFD-MM-321-021-N.jpg",NA,"1","1",NA,"1","0",NA,"0.755609800000457","0.489421700000094",NA,"1","1",NA,"1","1",NA,"1","1",NA
"250011","img/neutralC/CFD-LM-217-162-N.jpg",NA,"img/neutralC/CFD-WF-212-050-N.jpg","0",NA,"1","0",NA,"0","0.805174399999942",NA,"0.522170100000039","1",NA,"1","1",NA,"1","1",NA,"1"
"250011","img/neutralC/CFD-WF-212-050-N.jpg","img/neutralC/CFD-LM-217-162-N.jpg","img/neutralC/CFD-MF-340-026-N.jpg","1","0","1","0","0","1","0.522170100000039","0.805174399999942","0.403566999999839","1","1","1","1","1","1","1","1","1"
"250011","img/neutralC/CFD-MF-340-026-N.jpg","img/neutralC/CFD-WF-212-050-N.jpg","img/neutralC/CFD-AF-229-160-N.jpg","1","1","1","1","0","0","0.403566999999839","0.522170100000039","0.468363400000271","1","1","1","1","1","1","1","1","1"
"250011","img/neutralC/CFD-AF-229-160-N.jpg","img/neutralC/CFD-MF-340-026-N.jpg","img/neutralC/CFD-WM-232-070-N.jpg","1","1","1","0","1","0","0.468363400000271","0.403566999999839","0.633460899999591","1","1","1","1","1","1","1","1","1"
"250011","img/neutralC/CFD-WM-232-070-N.jpg","img/neutralC/CFD-AF-229-160-N.jpg","img/neutralC/CFD-WF-008-002-N.jpg","1","1","1","0","0","1","0.633460899999591","0.468363400000271","0.52828640000007","1","1","1","1","1","1","1","1","1"
"250011","img/neutralC/CFD-WF-008-002-N.jpg","img/neutralC/CFD-WM-232-070-N.jpg","img/neutralC/CFD-WM-024-015-N.jpg","1","1","1","1","0","1","0.52828640000007","0.633460899999591","0.480388000000858","1","1","1","1","1","1","1","1","1"
"250011","img/neutralC/CFD-WM-024-015-N.jpg","img/neutralC/CFD-WF-008-002-N.jpg","img/neutralC/CFD-IM-675-015-N.jpg","1","1","1","1","1","1","0.480388000000858","0.52828640000007","0.484782300000006","1","1","1","1","1","1","1","1","1"
"250011","img/neutralC/CFD-IM-675-015-N.jpg","img/neutralC/CFD-WM-024-015-N.jpg","img/neutralC/CFD-BM-039-029-N.jpg","1","1","1","1","1","1","0.484782300000006","0.480388000000858","0.634390100000019","1","1","1","1","1","1","1","1","1"
"250011","img/neutralC/CFD-BM-039-029-N.jpg","img/neutralC/CFD-IM-675-015-N.jpg","img/neutralC/CFD-BM-243-218-N.jpg","1","1","1","1","1","1","0.634390100000019","0.484782300000006","0.565598099999988","1","1","1","1","1","1","1","1","1"
"250011","img/neutralC/CFD-BM-243-218-N.jpg","img/neutralC/CFD-BM-039-029-N.jpg","img/neutralC/CFD-IF-608-390-N.jpg","1","1","1","1","1","1","0.565598099999988","0.634390100000019","0.622853700000633","1","1","1","1","1","1","1","1","1"
"250011","img/neutralC/CFD-IF-608-390-N.jpg","img/neutralC/CFD-BM-243-218-N.jpg","img/neutralC/CFD-BF-224-002-N.jpg","1","1","1","1","1","1","0.622853700000633","0.565598099999988","0.418541299999561","1","1","1","1","1","1","1","1","1"
"250011","img/neutralC/CFD-BF-224-002-N.jpg","img/neutralC/CFD-IF-608-390-N.jpg","img/neutralC/CFD-LF-201-035-N.jpg","1","1","1","1","1","1","0.418541299999561","0.622853700000633","0.497587500000009","1","1","1","1","1","1","1","1","1"
"250011","img/neutralC/CFD-LF-201-035-N.jpg","img/neutralC/CFD-BF-224-002-N.jpg","img/neutralC/CFD-MF-300-002-N.jpg","1","1","0","1","1","0","0.497587500000009","0.418541299999561","0.823785999999927","1","1","1","1","1","1","1","1","1"
"250011","img/neutralC/CFD-MF-300-002-N.jpg","img/neutralC/CFD-LF-201-035-N.jpg","img/neutralC/CFD-AM-236-090-N.jpg","0","1","1","0","1","1","0.823785999999927","0.497587500000009","0.425968900000044","1","1","1","1","1","1","1","1","1"
"250011","img/neutralC/CFD-AM-236-090-N.jpg","img/neutralC/CFD-MF-300-002-N.jpg","img/neutralC/CFD-WF-248-129-N.jpg","1","0","1","1","0","0","0.425968900000044","0.823785999999927","0.934415600000648","1","1","1","1","1","1","1","1","1"
"250011","img/neutralC/CFD-WF-248-129-N.jpg","img/neutralC/CFD-AM-236-090-N.jpg","img/neutralC/CFD-IM-709-103-N.jpg","1","1","1","0","1","0","0.934415600000648","0.425968900000044","1.48153850000017","1","1","1","1","1","1","1","1","1"
"250011","img/neutralC/CFD-IM-709-103-N.jpg","img/neutralC/CFD-WF-248-129-N.jpg","img/neutralC/CFD-WM-213-076-N.jpg","1","1","1","0","0","1","1.48153850000017","0.934415600000648","0.617146300000059","1","1","1","1","1","1","1","1","1"
"250011","img/neutralC/CFD-WM-213-076-N.jpg","img/neutralC/CFD-IM-709-103-N.jpg","img/neutralC/CFD-IM-685-004-N.jpg","1","1","1","1","0","1","0.617146300000059","1.48153850000017","0.913343799999893","1","1","1","1","1","1","1","1","1"
"250011","img/neutralC/CFD-IM-685-004-N.jpg","img/neutralC/CFD-WM-213-076-N.jpg","img/neutralC/CFD-MM-304-002-N.jpg","1","1","1","1","1","1","0.913343799999893","0.617146300000059","0.602748000000247","1","1","1","1","1","1","1","1","1"
"250011","img/neutralC/CFD-MM-304-002-N.jpg","img/neutralC/CFD-IM-685-004-N.jpg","img/neutralC/CFD-AF-254-167-N.jpg","1","1","1","1","1","1","0.602748000000247","0.913343799999893","0.433396999999786","1","1","1","1","1","1","1","1","1"
"250011","img/neutralC/CFD-AF-254-167-N.jpg","img/neutralC/CFD-MM-304-002-N.jpg","img/neutralC/CFD-IM-637-007-N.jpg","1","1","1","1","1","0","0.433396999999786","0.602748000000247","0.563815599999543","1","1","1","1","1","1","1","1","1"
"250011","img/neutralC/CFD-IM-637-007-N.jpg","img/neutralC/CFD-AF-254-167-N.jpg","img/neutralC/CFD-BF-051-035-N.jpg","1","1","1","0","1","0","0.563815599999543","0.433396999999786","0.46851020000031","1","1","1","1","1","1","1","1","1"
"250011","img/neutralC/CFD-BF-051-035-N.jpg","img/neutralC/CFD-IM-637-007-N.jpg","img/neutralC/CFD-MF-327-002-N.jpg","1","1","1","0","0","0","0.46851020000031","0.563815599999543","0.618448000000171","1","1","1","1","1","1","1","1","1"
"250011","img/neutralC/CFD-MF-327-002-N.jpg","img/neutralC/CFD-BF-051-035-N.jpg","img/neutralC/CFD-IF-619-197-N.jpg","1","1","1","0","0","0","0.618448000000171","0.46851020000031","0.492578800000047","1","1","1","1","1","1","1","1","1"
"250011","img/neutralC/CFD-IF-619-197-N.jpg","img/neutralC/CFD-MF-327-002-N.jpg","img/neutralC/CFD-LF-226-174-N.jpg","1","1","1","0","0","0","0.492578800000047","0.618448000000171","0.541560200000276","1","1","1","1","1","1","1","1","1"
"250011","img/neutralC/CFD-LF-226-174-N.jpg","img/neutralC/CFD-IF-619-197-N.jpg","img/neutralC/CFD-WF-012-002-N.jpg","1","1","1","0","0","1","0.541560200000276","0.492578800000047","0.467047600000114","1","1","1","1","1","1","1","1","1"
"250011","img/neutralC/CFD-WF-012-002-N.jpg","img/neutralC/CFD-LF-226-174-N.jpg","img/neutralC/CFD-MF-329-001-N.jpg","1","1","1","1","0","0","0.467047600000114","0.541560200000276","0.519266400000561","1","1","1","1","1","1","1","1","1"
"250011","img/neutralC/CFD-MF-329-001-N.jpg","img/neutralC/CFD-WF-012-002-N.jpg","img/neutralC/CFD-AF-215-70-N.jpg","1","1","1","0","1","0","0.519266400000561","0.467047600000114","0.584907899999962","1","1","1","1","1","1","1","1","1"
"250011","img/neutralC/CFD-AF-215-70-N.jpg","img/neutralC/CFD-MF-329-001-N.jpg","img/neutralC/CFD-BF-043-003-N.jpg","1","1","1","0","0","0","0.584907899999962","0.519266400000561","0.535706000000573","1","1","1","1","1","1","1","1","1"
"250011","img/neutralC/CFD-BF-043-003-N.jpg","img/neutralC/CFD-AF-215-70-N.jpg","img/neutralC/CFD-WF-217-085-N.jpg","1","1","1","0","0","1","0.535706000000573","0.584907899999962","0.534683199999563","1","1","1","1","1","1","1","1","1"
"250011","img/neutralC/CFD-WF-217-085-N.jpg","img/neutralC/CFD-BF-043-003-N.jpg","img/neutralC/CFD-IM-604-014-N.jpg","1","1","0","1","0","0","0.534683199999563","0.535706000000573","0.402881699999853","1","1","1","1","1","1","1","1","1"
"250011","img/neutralC/CFD-IM-604-014-N.jpg","img/neutralC/CFD-WF-217-085-N.jpg",NA,"0","1",NA,"0","1",NA,"0.402881699999853","0.534683199999563",NA,"1","1",NA,"1","1",NA,"1","1",NA
"250011","img/neutralC/CFD-AM-243-212-N.jpg",NA,"img/neutralC/CFD-IM-606-008-N.jpg","1",NA,"1","1",NA,"0","0.479681400000118",NA,"0.481208299999707","1",NA,"1","1",NA,"1","1",NA,"1"
"250011","img/neutralC/CFD-IM-606-008-N.jpg","img/neutralC/CFD-AM-243-212-N.jpg","img/neutralC/CFD-AM-249-163-N.jpg","1","1","1","0","1","1","0.481208299999707","0.479681400000118","0.472429999999804","1","1","1","1","1","1","1","1","1"
"250011","img/neutralC/CFD-AM-249-163-N.jpg","img/neutralC/CFD-IM-606-008-N.jpg","img/neutralC/CFD-BF-244-231-N.jpg","1","1","1","1","0","1","0.472429999999804","0.481208299999707","0.376986000000215","1","1","1","1","1","1","1","1","1"
"250011","img/neutralC/CFD-BF-244-231-N.jpg","img/neutralC/CFD-AM-249-163-N.jpg","img/neutralC/CFD-LF-238-154-N.jpg","1","1","1","1","1","1","0.376986000000215","0.472429999999804","0.380262399999992","1","1","1","1","1","1","1","1","1"
"250011","img/neutralC/CFD-LF-238-154-N.jpg","img/neutralC/CFD-BF-244-231-N.jpg","img/neutralC/CFD-WM-025-002-N.jpg","1","1","1","1","1","0","0.380262399999992","0.376986000000215","0.550715999999738","1","1","1","1","1","1","1","1","1"
"250011","img/neutralC/CFD-WM-025-002-N.jpg","img/neutralC/CFD-LF-238-154-N.jpg","img/neutralC/CFD-WM-028-003-N.jpg","1","1","1","0","1","1","0.550715999999738","0.380262399999992","0.448048500000368","1","1","1","1","1","1","1","1","1"
"250011","img/neutralC/CFD-WM-028-003-N.jpg","img/neutralC/CFD-WM-025-002-N.jpg","img/neutralC/CFD-BM-030-003-N.jpg","1","1","1","1","0","0","0.448048500000368","0.550715999999738","0.47503770000003","1","1","1","1","1","1","1","1","1"
"250011","img/neutralC/CFD-BM-030-003-N.jpg","img/neutralC/CFD-WM-028-003-N.jpg","img/neutralC/CFD-MM-306-010-N.jpg","1","1","1","0","1","0","0.47503770000003","0.448048500000368","0.486539900000935","1","1","1","1","1","1","1","1","1"
"250011","img/neutralC/CFD-MM-306-010-N.jpg","img/neutralC/CFD-BM-030-003-N.jpg","img/neutralC/CFD-BF-012-001-N.jpg","1","1","1","0","0","0","0.486539900000935","0.47503770000003","0.446396800000002","1","1","1","1","1","1","1","1","1"
"250011","img/neutralC/CFD-BF-012-001-N.jpg","img/neutralC/CFD-MM-306-010-N.jpg","img/neutralC/CFD-WF-241-210-N.jpg","1","1","1","0","0","0","0.446396800000002","0.486539900000935","0.588708100000076","1","1","1","1","1","1","1","1","1"
"250011","img/neutralC/CFD-WF-241-210-N.jpg","img/neutralC/CFD-BF-012-001-N.jpg","img/neutralC/CFD-WF-243-148-N.jpg","1","1","0","0","0","0","0.588708100000076","0.446396800000002","0.746268799999598","1","1","1","1","1","1","1","1","1"
"250011","img/neutralC/CFD-WF-243-148-N.jpg","img/neutralC/CFD-WF-241-210-N.jpg","img/neutralC/CFD-WF-207-014-N.jpg","0","1","1","0","0","1","0.746268799999598","0.588708100000076","0.382697000000007","1","1","1","1","1","1","1","1","1"
"250011","img/neutralC/CFD-WF-207-014-N.jpg","img/neutralC/CFD-WF-243-148-N.jpg","img/neutralC/CFD-BM-009-002-N.jpg","1","0","1","1","0","1","0.382697000000007","0.746268799999598","0.467728999999963","1","1","1","1","1","1","1","1","1"
"250011","img/neutralC/CFD-BM-009-002-N.jpg","img/neutralC/CFD-WF-207-014-N.jpg","img/neutralC/CFD-LF-212-066-N.jpg","1","1","1","1","1","1","0.467728999999963","0.382697000000007","0.46068810000088","1","1","1","1","1","1","1","1","1"
"250011","img/neutralC/CFD-LF-212-066-N.jpg","img/neutralC/CFD-BM-009-002-N.jpg","img/neutralC/CFD-IM-689-263-N.jpg","1","1","1","1","1","1","0.46068810000088","0.467728999999963","0.481913699999495","1","1","1","1","1","1","1","1","1"
"250011","img/neutralC/CFD-IM-689-263-N.jpg","img/neutralC/CFD-LF-212-066-N.jpg","img/neutralC/CFD-WF-009-001-N.jpg","1","1","1","1","1","1","0.481913699999495","0.46068810000088","0.423391900000752","1","1","1","1","1","1","1","1","1"
"250011","img/neutralC/CFD-WF-009-001-N.jpg","img/neutralC/CFD-IM-689-263-N.jpg","img/neutralC/CFD-MF-328-020-N.jpg","1","1","0","1","1","0","0.423391900000752","0.481913699999495","0.491044899999906","1","1","1","1","1","1","1","1","1"
"250011","img/neutralC/CFD-MF-328-020-N.jpg","img/neutralC/CFD-WF-009-001-N.jpg","img/neutralC/CFD-AM-219-101-N.jpg","0","1","1","0","1","0","0.491044899999906","0.423391900000752","0.551715200000217","1","1","1","1","1","1","1","1","1"
"250011","img/neutralC/CFD-AM-219-101-N.jpg","img/neutralC/CFD-MF-328-020-N.jpg","img/neutralC/CFD-WF-221-005-N.jpg","1","0","1","0","0","0","0.551715200000217","0.491044899999906","0.589555999999902","1","1","1","1","1","1","1","1","1"
"250011","img/neutralC/CFD-WF-221-005-N.jpg","img/neutralC/CFD-AM-219-101-N.jpg","img/neutralC/CFD-BM-021-021-N.jpg","1","1","1","0","0","1","0.589555999999902","0.551715200000217","0.493181900000309","1","1","1","1","1","1","1","1","1"
"250011","img/neutralC/CFD-BM-021-021-N.jpg","img/neutralC/CFD-WF-221-005-N.jpg","img/neutralC/CFD-IF-676-017-N.jpg","1","1","1","1","0","1","0.493181900000309","0.589555999999902","0.467891900000723","1","1","1","1","1","1","1","1","1"
"250011","img/neutralC/CFD-IF-676-017-N.jpg","img/neutralC/CFD-BM-021-021-N.jpg","img/neutralC/CFD-WM-023-001-N.jpg","1","1","1","1","1","0","0.467891900000723","0.493181900000309","0.513417999999547","1","1","1","1","1","1","1","1","1"
"250011","img/neutralC/CFD-WM-023-001-N.jpg","img/neutralC/CFD-IF-676-017-N.jpg","img/neutralC/CFD-IM-615-167-N.jpg","1","1","1","0","1","0","0.513417999999547","0.467891900000723","0.559322400000383","1","1","1","1","1","1","1","1","1"
"250011","img/neutralC/CFD-IM-615-167-N.jpg","img/neutralC/CFD-WM-023-001-N.jpg","img/neutralC/CFD-BM-043-071-N.jpg","1","1","1","0","0","0","0.559322400000383","0.513417999999547","0.538407099999858","1","1","1","1","1","1","1","1","1"
"250011","img/neutralC/CFD-BM-043-071-N.jpg","img/neutralC/CFD-IM-615-167-N.jpg","img/neutralC/CFD-LM-240-013-N.jpg","1","1","1","0","0","1","0.538407099999858","0.559322400000383","0.407988599999953","1","1","1","1","1","1","1","1","1"
"250011","img/neutralC/CFD-LM-240-013-N.jpg","img/neutralC/CFD-BM-043-071-N.jpg","img/neutralC/CFD-AM-205-153-N.jpg","1","1","1","1","0","1","0.407988599999953","0.538407099999858","0.655974500000411","1","1","1","1","1","1","1","1","1"
"250011","img/neutralC/CFD-AM-205-153-N.jpg","img/neutralC/CFD-LM-240-013-N.jpg","img/neutralC/CFD-IM-697-015-N.jpg","1","1","1","1","1","1","0.655974500000411","0.407988599999953","0.49574930000017","1","1","1","1","1","1","1","1","1"
"250011","img/neutralC/CFD-IM-697-015-N.jpg","img/neutralC/CFD-AM-205-153-N.jpg","img/neutralC/CFD-LF-222-147-N.jpg","1","1","1","1","1","0","0.49574930000017","0.655974500000411","0.581477200000336","1","1","1","1","1","1","1","1","1"
"250011","img/neutralC/CFD-LF-222-147-N.jpg","img/neutralC/CFD-IM-697-015-N.jpg","img/neutralC/CFD-BM-020-001-N.jpg","1","1","1","0","1","0","0.581477200000336","0.49574930000017","0.484424799999942","1","1","1","1","1","1","1","1","1"
"250011","img/neutralC/CFD-BM-020-001-N.jpg","img/neutralC/CFD-LF-222-147-N.jpg","img/neutralC/CFD-AF-237-223-N.jpg","1","1","1","0","0","0","0.484424799999942","0.581477200000336","0.578946199999336","1","1","1","1","1","1","1","1","1"
"250011","img/neutralC/CFD-AF-237-223-N.jpg","img/neutralC/CFD-BM-020-001-N.jpg","img/neutralC/CFD-BM-227-191-N.jpg","1","1","1","0","0","1","0.578946199999336","0.484424799999942","0.529965900000207","1","1","1","1","1","1","1","1","1"
"250011","img/neutralC/CFD-BM-227-191-N.jpg","img/neutralC/CFD-AF-237-223-N.jpg",NA,"1","1",NA,"1","0",NA,"0.529965900000207","0.578946199999336",NA,"1","1",NA,"1","1",NA,"1","1",NA
"250011","img/neutralC/CFD-AF-202-122-N.jpg",NA,"img/neutralC/CFD-IM-657-308-N.jpg","1",NA,"1","1",NA,"0","0.505313500000739",NA,"0.506478500000412","1",NA,"1","1",NA,"1","1",NA,"1"
"250011","img/neutralC/CFD-IM-657-308-N.jpg","img/neutralC/CFD-AF-202-122-N.jpg","img/neutralC/CFD-BF-238-190-N.jpg","1","1","1","0","1","1","0.506478500000412","0.505313500000739","0.487332400000014","1","1","1","1","1","1","1","1","1"
"250011","img/neutralC/CFD-BF-238-190-N.jpg","img/neutralC/CFD-IM-657-308-N.jpg","img/neutralC/CFD-LM-226-175-N.jpg","1","1","1","1","0","0","0.487332400000014","0.506478500000412","0.695128399999703","1","1","1","1","1","1","1","1","1"
"250011","img/neutralC/CFD-LM-226-175-N.jpg","img/neutralC/CFD-BF-238-190-N.jpg","img/neutralC/CFD-LM-233-171-N.jpg","1","1","1","0","1","0","0.695128399999703","0.487332400000014","0.653684699999758","1","1","1","1","1","1","1","1","1"
"250011","img/neutralC/CFD-LM-233-171-N.jpg","img/neutralC/CFD-LM-226-175-N.jpg","img/neutralC/CFD-WM-258-125-N.jpg","1","1","1","0","0","0","0.653684699999758","0.695128399999703","0.678086200000507","1","1","1","1","1","1","1","1","1"
"250011","img/neutralC/CFD-WM-258-125-N.jpg","img/neutralC/CFD-LM-233-171-N.jpg","img/neutralC/CFD-IM-617-174-N.jpg","1","1","1","0","0","0","0.678086200000507","0.653684699999758","0.511475400000563","1","1","1","1","1","1","1","1","1"
"250011","img/neutralC/CFD-IM-617-174-N.jpg","img/neutralC/CFD-WM-258-125-N.jpg","img/neutralC/CFD-MF-313-002-N.jpg","1","1","1","0","0","0","0.511475400000563","0.678086200000507","0.476247699999476","1","1","1","1","1","1","1","1","1"
"250011","img/neutralC/CFD-MF-313-002-N.jpg","img/neutralC/CFD-IM-617-174-N.jpg","img/neutralC/CFD-IM-638-250-1-N.jpg","1","1","1","0","0","1","0.476247699999476","0.511475400000563","0.406515399999989","1","1","1","1","1","1","1","1","1"
"250011","img/neutralC/CFD-IM-638-250-1-N.jpg","img/neutralC/CFD-MF-313-002-N.jpg","img/neutralC/CFD-IF-620-218-N.jpg","1","1","1","1","0","0","0.406515399999989","0.476247699999476","0.56902590000027","1","1","1","1","1","1","1","1","1"
"250011","img/neutralC/CFD-IF-620-218-N.jpg","img/neutralC/CFD-IM-638-250-1-N.jpg","img/neutralC/CFD-BM-212-117-N.jpg","1","1","1","0","1","0","0.56902590000027","0.406515399999989","0.598124299999654","1","1","1","1","1","1","1","1","1"
"250011","img/neutralC/CFD-BM-212-117-N.jpg","img/neutralC/CFD-IF-620-218-N.jpg","img/neutralC/CFD-BF-033-028-N.jpg","1","1","1","0","0","0","0.598124299999654","0.56902590000027","0.465547800000422","1","1","1","1","1","1","1","1","1"
"250011","img/neutralC/CFD-BF-033-028-N.jpg","img/neutralC/CFD-BM-212-117-N.jpg","img/neutralC/CFD-LF-247-051-N.jpg","1","1","1","0","0","1","0.465547800000422","0.598124299999654","0.465901399999893","1","1","1","1","1","1","1","1","1"
"250011","img/neutralC/CFD-LF-247-051-N.jpg","img/neutralC/CFD-BF-033-028-N.jpg","img/neutralC/CFD-IM-686-097-N.jpg","1","1","1","1","0","0","0.465901399999893","0.465547800000422","0.423365000000558","1","1","1","1","1","1","1","1","1"
"250011","img/neutralC/CFD-IM-686-097-N.jpg","img/neutralC/CFD-LF-247-051-N.jpg","img/neutralC/CFD-IM-727-195-N.jpg","1","1","1","0","1","1","0.423365000000558","0.465901399999893","0.43684950000079","1","1","1","1","1","1","1","1","1"
"250011","img/neutralC/CFD-IM-727-195-N.jpg","img/neutralC/CFD-IM-686-097-N.jpg","img/neutralC/CFD-LF-245-166-N.jpg","1","1","1","1","0","1","0.43684950000079","0.423365000000558","0.465825500000392","1","1","1","1","1","1","1","1","1"
"250011","img/neutralC/CFD-LF-245-166-N.jpg","img/neutralC/CFD-IM-727-195-N.jpg","img/neutralC/CFD-WM-227-099-N.jpg","1","1","1","1","1","1","0.465825500000392","0.43684950000079","0.581295100000716","1","1","1","1","1","1","1","1","1"
"250011","img/neutralC/CFD-WM-227-099-N.jpg","img/neutralC/CFD-LF-245-166-N.jpg","img/neutralC/CFD-AF-241-141-N.jpg","1","1","1","1","1","1","0.581295100000716","0.465825500000392","0.480057100000522","1","1","1","1","1","1","1","1","1"
"250011","img/neutralC/CFD-AF-241-141-N.jpg","img/neutralC/CFD-WM-227-099-N.jpg","img/neutralC/CFD-BM-026-002-N.jpg","1","1","1","1","1","0","0.480057100000522","0.581295100000716","0.49518420000004","1","1","1","1","1","1","1","1","1"
"250011","img/neutralC/CFD-BM-026-002-N.jpg","img/neutralC/CFD-AF-241-141-N.jpg","img/neutralC/CFD-IF-665-015-N.jpg","1","1","1","0","1","0","0.49518420000004","0.480057100000522","0.493832100000873","1","1","1","1","1","1","1","1","1"
"250011","img/neutralC/CFD-IF-665-015-N.jpg","img/neutralC/CFD-BM-026-002-N.jpg","img/neutralC/CFD-WM-242-011-N.jpg","1","1","1","0","0","0","0.493832100000873","0.49518420000004","0.730836100000488","1","1","1","1","1","1","1","1","1"
"250011","img/neutralC/CFD-WM-242-011-N.jpg","img/neutralC/CFD-IF-665-015-N.jpg","img/neutralC/CFD-AF-206-079-N.jpg","1","1","1","0","0","1","0.730836100000488","0.493832100000873","0.754614000000402","1","1","1","1","1","1","1","1","1"
"250011","img/neutralC/CFD-AF-206-079-N.jpg","img/neutralC/CFD-WM-242-011-N.jpg","img/neutralC/CFD-IM-653-008-N.jpg","1","1","1","1","0","0","0.754614000000402","0.730836100000488","0.492817000000286","1","1","1","1","1","1","1","1","1"
"250011","img/neutralC/CFD-IM-653-008-N.jpg","img/neutralC/CFD-AF-206-079-N.jpg","img/neutralC/CFD-BM-005-003-N.jpg","1","1","1","0","1","1","0.492817000000286","0.754614000000402","0.406113899999582","1","1","1","1","1","1","1","1","1"
"250011","img/neutralC/CFD-BM-005-003-N.jpg","img/neutralC/CFD-IM-653-008-N.jpg","img/neutralC/CFD-WM-017-002-N.jpg","1","1","1","1","0","0","0.406113899999582","0.492817000000286","0.482182200000352","1","1","1","1","1","1","1","1","1"
"250011","img/neutralC/CFD-WM-017-002-N.jpg","img/neutralC/CFD-BM-005-003-N.jpg","img/neutralC/CFD-BM-018-001-N.jpg","1","1","1","0","1","1","0.482182200000352","0.406113899999582","0.372054600000411","1","1","1","1","1","1","1","1","1"
"250011","img/neutralC/CFD-BM-018-001-N.jpg","img/neutralC/CFD-WM-017-002-N.jpg","img/neutralC/CFD-BM-231-155-N.jpg","1","1","1","1","0","1","0.372054600000411","0.482182200000352","0.433336800000689","1","1","1","1","1","1","1","1","1"
"250011","img/neutralC/CFD-BM-231-155-N.jpg","img/neutralC/CFD-BM-018-001-N.jpg","img/neutralC/CFD-LM-219-295-N.jpg","1","1","1","1","1","1","0.433336800000689","0.372054600000411","0.485012900000584","1","1","1","1","1","1","1","1","1"
"250011","img/neutralC/CFD-LM-219-295-N.jpg","img/neutralC/CFD-BM-231-155-N.jpg","img/neutralC/CFD-BF-010-001-N.jpg","1","1","1","1","1","1","0.485012900000584","0.433336800000689","0.488319600000068","1","1","1","1","1","1","1","1","1"
"250011","img/neutralC/CFD-BF-010-001-N.jpg","img/neutralC/CFD-LM-219-295-N.jpg","img/neutralC/CFD-LF-250-169-N.jpg","1","1","1","1","1","1","0.488319600000068","0.485012900000584","0.590502400000332","1","1","1","1","1","1","1","1","1"
"250011","img/neutralC/CFD-LF-250-169-N.jpg","img/neutralC/CFD-BF-010-001-N.jpg","img/neutralC/CFD-LF-242-121-N.jpg","1","1","0","1","1","0","0.590502400000332","0.488319600000068","0.436810399999558","1","1","1","1","1","1","1","1","1"
"250011","img/neutralC/CFD-LF-242-121-N.jpg","img/neutralC/CFD-LF-250-169-N.jpg","img/neutralC/CFD-WF-209-052-N.jpg","0","1","1","0","1","1","0.436810399999558","0.590502400000332","0.439035400000648","1","1","1","1","1","1","1","1","1"
"250011","img/neutralC/CFD-WF-209-052-N.jpg","img/neutralC/CFD-LF-242-121-N.jpg",NA,"1","0",NA,"1","0",NA,"0.439035400000648","0.436810399999558",NA,"1","1",NA,"1","1",NA,"1","1",NA
"250011","img/neutralC/CFD-IF-672-305-N.jpg",NA,"img/neutralC/CFD-AM-235-241-N.jpg","1",NA,"1","0",NA,"0","0.453507100000024",NA,"0.42238720000023","1",NA,"1","1",NA,"1","1",NA,"1"
"250011","img/neutralC/CFD-AM-235-241-N.jpg","img/neutralC/CFD-IF-672-305-N.jpg","img/neutralC/CFD-WM-002-009-N.jpg","1","1","1","0","0","0","0.42238720000023","0.453507100000024","0.422761400000127","1","1","1","1","1","1","1","1","1"
"250011","img/neutralC/CFD-WM-002-009-N.jpg","img/neutralC/CFD-AM-235-241-N.jpg","img/neutralC/CFD-WF-002-004-N.jpg","1","1","0","0","0","0","0.422761400000127","0.42238720000023","0.420122399999855","1","1","1","1","1","1","1","1","1"
"250011","img/neutralC/CFD-WF-002-004-N.jpg","img/neutralC/CFD-WM-002-009-N.jpg","img/neutralC/CFD-BM-029-024-N.jpg","0","1","1","0","0","1","0.420122399999855","0.422761400000127","0.632713900000454","1","1","1","1","1","1","1","1","1"
"250011","img/neutralC/CFD-BM-029-024-N.jpg","img/neutralC/CFD-WF-002-004-N.jpg","img/neutralC/CFD-IM-674-281-N.jpg","1","0","1","1","0","1","0.632713900000454","0.420122399999855","0.544640099999924","1","1","1","1","1","1","1","1","1"
"250011","img/neutralC/CFD-IM-674-281-N.jpg","img/neutralC/CFD-BM-029-024-N.jpg","img/neutralC/CFD-BM-027-001-N.jpg","1","1","1","1","1","0","0.544640099999924","0.632713900000454","0.633447999999589","1","1","1","1","1","1","1","1","1"
"250011","img/neutralC/CFD-BM-027-001-N.jpg","img/neutralC/CFD-IM-674-281-N.jpg","img/neutralC/CFD-BF-023-010-N.jpg","1","1","1","0","1","1","0.633447999999589","0.544640099999924","0.677153599999656","1","1","1","1","1","1","1","1","1"
"250011","img/neutralC/CFD-BF-023-010-N.jpg","img/neutralC/CFD-BM-027-001-N.jpg","img/neutralC/CFD-MM-319-052-N.jpg","1","1","1","1","0","1","0.677153599999656","0.633447999999589","0.512167200000476","1","1","1","1","1","1","1","1","1"
"250011","img/neutralC/CFD-MM-319-052-N.jpg","img/neutralC/CFD-BF-023-010-N.jpg","img/neutralC/CFD-IM-639-263-N.jpg","1","1","1","1","1","1","0.512167200000476","0.677153599999656","0.503246899999795","1","1","1","1","1","1","1","1","1"
"250011","img/neutralC/CFD-IM-639-263-N.jpg","img/neutralC/CFD-MM-319-052-N.jpg","img/neutralC/CFD-WM-225-127-N.jpg","1","1","1","1","1","0","0.503246899999795","0.512167200000476","0.463864100000137","1","1","1","1","1","1","1","1","1"
"250011","img/neutralC/CFD-WM-225-127-N.jpg","img/neutralC/CFD-IM-639-263-N.jpg","img/neutralC/CFD-IM-728-041-N.jpg","1","1","1","0","1","0","0.463864100000137","0.503246899999795","0.49232849999953","1","1","1","1","1","1","1","1","1"
"250011","img/neutralC/CFD-IM-728-041-N.jpg","img/neutralC/CFD-WM-225-127-N.jpg","img/neutralC/CFD-AM-217-085-N.jpg","1","1","0","0","0","0","0.49232849999953","0.463864100000137","0.387845299999753","1","1","1","1","1","1","1","1","1"
"250011","img/neutralC/CFD-AM-217-085-N.jpg","img/neutralC/CFD-IM-728-041-N.jpg","img/neutralC/CFD-BF-204-189-N.jpg","0","1","1","0","0","1","0.387845299999753","0.49232849999953","0.468968400000449","1","1","1","1","1","1","1","1","1"
"250011","img/neutralC/CFD-BF-204-189-N.jpg","img/neutralC/CFD-AM-217-085-N.jpg","img/neutralC/CFD-WM-257-161-N.jpg","1","0","1","1","0","1","0.468968400000449","0.387845299999753","0.502788499999951","1","1","1","1","1","1","1","1","1"
"250011","img/neutralC/CFD-WM-257-161-N.jpg","img/neutralC/CFD-BF-204-189-N.jpg","img/neutralC/CFD-WM-040-022-N.jpg","1","1","1","1","1","0","0.502788499999951","0.468968400000449","0.485283000000891","1","1","1","1","1","1","1","1","1"
"250011","img/neutralC/CFD-WM-040-022-N.jpg","img/neutralC/CFD-WM-257-161-N.jpg","img/neutralC/CFD-BF-003-003-N.jpg","1","1","1","0","1","0","0.485283000000891","0.502788499999951","0.626138500000707","1","1","1","1","1","1","1","1","1"
"250011","img/neutralC/CFD-BF-003-003-N.jpg","img/neutralC/CFD-WM-040-022-N.jpg","img/neutralC/CFD-WF-026-002-N.jpg","1","1","1","0","0","1","0.626138500000707","0.485283000000891","0.434390399999756","1","1","1","1","1","1","1","1","1"
"250011","img/neutralC/CFD-WF-026-002-N.jpg","img/neutralC/CFD-BF-003-003-N.jpg","img/neutralC/CFD-BM-211-174-N.jpg","1","1","1","1","0","0","0.434390399999756","0.626138500000707","0.577413399999386","1","1","1","1","1","1","1","1","1"
"250011","img/neutralC/CFD-BM-211-174-N.jpg","img/neutralC/CFD-WF-026-002-N.jpg","img/neutralC/CFD-LF-236-221-N.jpg","1","1","1","0","1","1","0.577413399999386","0.434390399999756","0.456217200000538","1","1","1","1","1","1","1","1","1"
"250011","img/neutralC/CFD-LF-236-221-N.jpg","img/neutralC/CFD-BM-211-174-N.jpg","img/neutralC/CFD-AM-215-120-N.jpg","1","1","1","1","0","1","0.456217200000538","0.577413399999386","0.403144700000666","1","1","1","1","1","1","1","1","1"
"250011","img/neutralC/CFD-AM-215-120-N.jpg","img/neutralC/CFD-LF-236-221-N.jpg","img/neutralC/CFD-BM-015-015-N.jpg","1","1","1","1","1","0","0.403144700000666","0.456217200000538","0.485456600000362","1","1","1","1","1","1","1","1","1"
"250011","img/neutralC/CFD-BM-015-015-N.jpg","img/neutralC/CFD-AM-215-120-N.jpg","img/neutralC/CFD-LM-252-076-N.jpg","1","1","1","0","1","1","0.485456600000362","0.403144700000666","0.432202699999834","1","1","1","1","1","1","1","1","1"
"250011","img/neutralC/CFD-LM-252-076-N.jpg","img/neutralC/CFD-BM-015-015-N.jpg","img/neutralC/CFD-BF-255-140-N.jpg","1","1","1","1","0","1","0.432202699999834","0.485456600000362","0.68784179999966","1","1","1","1","1","1","1","1","1"
"250011","img/neutralC/CFD-BF-255-140-N.jpg","img/neutralC/CFD-LM-252-076-N.jpg","img/neutralC/CFD-WM-038-003-N.jpg","1","1","1","1","1","0","0.68784179999966","0.432202699999834","0.465570899999875","1","1","1","1","1","1","1","1","1"
"250011","img/neutralC/CFD-WM-038-003-N.jpg","img/neutralC/CFD-BF-255-140-N.jpg","img/neutralC/CFD-BM-247-240-N.jpg","1","1","0","0","1","0","0.465570899999875","0.68784179999966","0.728693300000486","1","1","1","1","1","1","1","1","1"
"250011","img/neutralC/CFD-BM-247-240-N.jpg","img/neutralC/CFD-WM-038-003-N.jpg","img/neutralC/CFD-BF-201-080-N.jpg","0","1","1","0","0","1","0.728693300000486","0.465570899999875","0.465902899999492","1","1","1","1","1","1","1","1","1"
"250011","img/neutralC/CFD-BF-201-080-N.jpg","img/neutralC/CFD-BM-247-240-N.jpg","img/neutralC/CFD-WF-022-017-N.jpg","1","0","1","1","0","0","0.465902899999492","0.728693300000486","0.617838600000141","1","1","1","1","1","1","1","1","1"
"250011","img/neutralC/CFD-WF-022-017-N.jpg","img/neutralC/CFD-BF-201-080-N.jpg","img/neutralC/CFD-LF-216-121-N.jpg","1","1","1","0","1","1","0.617838600000141","0.465902899999492","0.413588700000219","1","1","1","1","1","1","1","1","1"
"250011","img/neutralC/CFD-LF-216-121-N.jpg","img/neutralC/CFD-WF-022-017-N.jpg","img/neutralC/CFD-BF-028-001-N.jpg","1","1","1","1","0","1","0.413588700000219","0.617838600000141","0.492255099999966","1","1","1","1","1","1","1","1","1"
"250011","img/neutralC/CFD-BF-028-001-N.jpg","img/neutralC/CFD-LF-216-121-N.jpg","img/neutralC/CFD-IF-718-001-N.jpg","1","1","1","1","1","1","0.492255099999966","0.413588700000219","0.526013699999567","1","1","1","1","1","1","1","1","1"
"250011","img/neutralC/CFD-IF-718-001-N.jpg","img/neutralC/CFD-BF-028-001-N.jpg","img/neutralC/CFD-BF-208-266-N.jpg","1","1","1","1","1","0","0.526013699999567","0.492255099999966","0.526226299999507","1","1","1","1","1","1","1","1","1"
"250011","img/neutralC/CFD-BF-208-266-N.jpg","img/neutralC/CFD-IF-718-001-N.jpg",NA,"1","1",NA,"0","1",NA,"0.526226299999507","0.526013699999567",NA,"1","1",NA,"1","1",NA,"1","1",NA
"250011","img/neutralC/CFD-WF-210-086-N.jpg",NA,"img/neutralC/CFD-LM-204-001-N.jpg","0",NA,"0","0",NA,"0",NA,NA,NA,"0",NA,"0","0",NA,"0","0",NA,"0"
"250011","img/neutralC/CFD-LM-204-001-N.jpg","img/neutralC/CFD-WF-210-086-N.jpg","img/neutralC/CFD-BF-217-189-N.jpg","0","0","0","0","0","0",NA,NA,"0.868717399999696","0","0","1","0","0","1","0","0","1"
"250011","img/neutralC/CFD-BF-217-189-N.jpg","img/neutralC/CFD-LM-204-001-N.jpg","img/neutralC/CFD-AF-234-208-N.jpg","0","0","0","0","0","1","0.868717399999696",NA,NA,"1","0","0","1","0","0","1","0","0"
"250011","img/neutralC/CFD-AF-234-208-N.jpg","img/neutralC/CFD-BF-217-189-N.jpg","img/neutralC/CFD-MF-302-027-N.jpg","0","0","1","1","0","0",NA,"0.868717399999696","0.576645899999676","0","1","1","0","1","1","0","1","1"
"250011","img/neutralC/CFD-MF-302-027-N.jpg","img/neutralC/CFD-AF-234-208-N.jpg","img/neutralC/CFD-BF-235-168-N.jpg","1","0","0","0","1","1","0.576645899999676",NA,NA,"1","0","0","1","0","0","1","0","0"
"250011","img/neutralC/CFD-BF-235-168-N.jpg","img/neutralC/CFD-MF-302-027-N.jpg","img/neutralC/CFD-BM-215-155-N.jpg","0","1","1","1","0","0",NA,"0.576645899999676","1.07765220000056","0","1","1","0","1","1","0","1","1"
"250011","img/neutralC/CFD-BM-215-155-N.jpg","img/neutralC/CFD-BF-235-168-N.jpg","img/neutralC/CFD-BM-004-002-N.jpg","1","0","0","0","1","0","1.07765220000056",NA,"1.6054649000007","1","0","1","1","0","1","1","0","1"
"250011","img/neutralC/CFD-BM-004-002-N.jpg","img/neutralC/CFD-BM-215-155-N.jpg","img/neutralC/CFD-BF-020-002-N.jpg","0","1","1","0","0","1","1.6054649000007","1.07765220000056","0.515963099999681","1","1","1","1","1","1","1","1","1"
"250011","img/neutralC/CFD-BF-020-002-N.jpg","img/neutralC/CFD-BM-004-002-N.jpg","img/neutralC/CFD-WM-018-002-N.jpg","1","0","1","1","0","0","0.515963099999681","1.6054649000007","0.561775400000442","1","1","1","1","1","1","1","1","1"
"250011","img/neutralC/CFD-WM-018-002-N.jpg","img/neutralC/CFD-BF-020-002-N.jpg","img/neutralC/CFD-IM-678-482-N.jpg","1","1","1","0","1","0","0.561775400000442","0.515963099999681","0.591106599999875","1","1","1","1","1","1","1","1","1"
"250011","img/neutralC/CFD-IM-678-482-N.jpg","img/neutralC/CFD-WM-018-002-N.jpg","img/neutralC/CFD-LF-239-148-N.jpg","1","1","1","0","0","0","0.591106599999875","0.561775400000442","0.572651000000405","1","1","1","1","1","1","1","1","1"
"250011","img/neutralC/CFD-LF-239-148-N.jpg","img/neutralC/CFD-IM-678-482-N.jpg","img/neutralC/CFD-IF-636-011-N.jpg","1","1","1","0","0","1","0.572651000000405","0.591106599999875","0.458667799999603","1","1","1","1","1","1","1","1","1"
"250011","img/neutralC/CFD-IF-636-011-N.jpg","img/neutralC/CFD-LF-239-148-N.jpg","img/neutralC/CFD-IM-635-010-N.jpg","1","1","1","1","0","1","0.458667799999603","0.572651000000405","0.412878300000557","1","1","1","1","1","1","1","1","1"
"250011","img/neutralC/CFD-IM-635-010-N.jpg","img/neutralC/CFD-IF-636-011-N.jpg","img/neutralC/CFD-IM-669-111-N.jpg","1","1","1","1","1","1","0.412878300000557","0.458667799999603","0.475044900000284","1","1","1","1","1","1","1","1","1"
"250011","img/neutralC/CFD-IM-669-111-N.jpg","img/neutralC/CFD-IM-635-010-N.jpg","img/neutralC/CFD-WM-253-119-N.jpg","1","1","1","1","1","1","0.475044900000284","0.412878300000557","0.579670500000248","1","1","1","1","1","1","1","1","1"
"250011","img/neutralC/CFD-WM-253-119-N.jpg","img/neutralC/CFD-IM-669-111-N.jpg","img/neutralC/CFD-AF-250-200-N.jpg","1","1","1","1","1","1","0.579670500000248","0.475044900000284","0.547897000000376","1","1","1","1","1","1","1","1","1"
"250011","img/neutralC/CFD-AF-250-200-N.jpg","img/neutralC/CFD-WM-253-119-N.jpg","img/neutralC/CFD-AM-245-111-N.jpg","1","1","1","1","1","1","0.547897000000376","0.579670500000248","0.534567900000184","1","1","1","1","1","1","1","1","1"
"250011","img/neutralC/CFD-AM-245-111-N.jpg","img/neutralC/CFD-AF-250-200-N.jpg","img/neutralC/CFD-AM-233-236-N.jpg","1","1","1","1","1","1","0.534567900000184","0.547897000000376","0.529388900000413","1","1","1","1","1","1","1","1","1"
"250011","img/neutralC/CFD-AM-233-236-N.jpg","img/neutralC/CFD-AM-245-111-N.jpg","img/neutralC/CFD-AF-244-168-N.jpg","1","1","1","1","1","0","0.529388900000413","0.534567900000184","0.539488999999776","1","1","1","1","1","1","1","1","1"
"250011","img/neutralC/CFD-AF-244-168-N.jpg","img/neutralC/CFD-AM-233-236-N.jpg","img/neutralC/CFD-AF-246-242-N.jpg","1","1","1","0","1","0","0.539488999999776","0.529388900000413","0.538669300000038","1","1","1","1","1","1","1","1","1"
"250011","img/neutralC/CFD-AF-246-242-N.jpg","img/neutralC/CFD-AF-244-168-N.jpg","img/neutralC/CFD-LM-241-125-N.jpg","1","1","1","0","0","1","0.538669300000038","0.539488999999776","0.468206500000633","1","1","1","1","1","1","1","1","1"
"250011","img/neutralC/CFD-LM-241-125-N.jpg","img/neutralC/CFD-AF-246-242-N.jpg","img/neutralC/CFD-IM-632-097-N.jpg","1","1","1","1","0","0","0.468206500000633","0.538669300000038","0.527848699999595","1","1","1","1","1","1","1","1","1"
"250011","img/neutralC/CFD-IM-632-097-N.jpg","img/neutralC/CFD-LM-241-125-N.jpg","img/neutralC/CFD-AF-205-155-N.jpg","1","1","1","0","1","0","0.527848699999595","0.468206500000633","0.67037209999944","1","1","1","1","1","1","1","1","1"
"250011","img/neutralC/CFD-AF-205-155-N.jpg","img/neutralC/CFD-IM-632-097-N.jpg","img/neutralC/CFD-BF-042-026-N.jpg","1","1","1","0","0","1","0.67037209999944","0.527848699999595","0.49987450000026","1","1","1","1","1","1","1","1","1"
"250011","img/neutralC/CFD-BF-042-026-N.jpg","img/neutralC/CFD-AF-205-155-N.jpg","img/neutralC/CFD-WF-235-121-N.jpg","1","1","0","1","0","0","0.49987450000026","0.67037209999944","0.858324400000129","1","1","1","1","1","1","1","1","1"
"250011","img/neutralC/CFD-WF-235-121-N.jpg","img/neutralC/CFD-BF-042-026-N.jpg","img/neutralC/CFD-MF-307-002-N.jpg","0","1","1","0","1","1","0.858324400000129","0.49987450000026","0.425680600000305","1","1","1","1","1","1","1","1","1"
"250011","img/neutralC/CFD-MF-307-002-N.jpg","img/neutralC/CFD-WF-235-121-N.jpg","img/neutralC/CFD-AM-225-102-N.jpg","1","0","1","1","0","0","0.425680600000305","0.858324400000129","0.510585699999865","1","1","1","1","1","1","1","1","1"
"250011","img/neutralC/CFD-AM-225-102-N.jpg","img/neutralC/CFD-MF-307-002-N.jpg","img/neutralC/CFD-IF-732-260-N.jpg","1","1","1","0","1","0","0.510585699999865","0.425680600000305","0.584095200000775","1","1","1","1","1","1","1","1","1"
"250011","img/neutralC/CFD-IF-732-260-N.jpg","img/neutralC/CFD-AM-225-102-N.jpg","img/neutralC/CFD-BF-040-003-N.jpg","1","1","1","0","0","1","0.584095200000775","0.510585699999865","0.718433600000026","1","1","1","1","1","1","1","1","1"
"250011","img/neutralC/CFD-BF-040-003-N.jpg","img/neutralC/CFD-IF-732-260-N.jpg","img/neutralC/CFD-AF-213-126-N.jpg","1","1","0","1","0","1","0.718433600000026","0.584095200000775","0.511753099999623","1","1","1","1","1","1","1","1","1"
"250011","img/neutralC/CFD-AF-213-126-N.jpg","img/neutralC/CFD-BF-040-003-N.jpg","img/neutralC/CFD-BF-206-143-N.jpg","0","1","1","1","1","1","0.511753099999623","0.718433600000026","0.659672700000556","1","1","1","1","1","1","1","1","1"
"250011","img/neutralC/CFD-BF-206-143-N.jpg","img/neutralC/CFD-AF-213-126-N.jpg",NA,"1","0",NA,"1","1",NA,"0.659672700000556","0.511753099999623",NA,"1","1",NA,"1","1",NA,"1","1",NA
