"participant_id","current_trial_face","pre_trial_face","post_trial_face","current_trial_accuracy","pre_trial_accuracy","post_trial_accuracy","current_trial_congruency","pre_trial_congruency","post_trial_congruency","current_trial_rt","pre_trial_rt","post_trial_rt","current_trial_responded","pre_trial_responded","post_trial_responded","current_trial_legitResponse","pre_trial_legitResponse","post_trial_legitResponse","current_trial_resp_nums","pre_trial_resp_nums","post_trial_resp_nums"
"250009","img/neutralC/CFD-BF-214-308-N.jpg",NA,"img/neutralC/CFD-AM-230-150-N.jpg","0",NA,"1","1",NA,"0","1.57694379996974",NA,"0.734242600039579","1",NA,"1","1",NA,"1","1",NA,"1"
"250009","img/neutralC/CFD-AM-230-150-N.jpg","img/neutralC/CFD-BF-214-308-N.jpg","img/neutralC/CFD-WM-034-030-N.jpg","1","0","1","0","1","1","0.734242600039579","1.57694379996974","0.586572600062937","1","1","1","1","1","1","1","1","1"
"250009","img/neutralC/CFD-WM-034-030-N.jpg","img/neutralC/CFD-AM-230-150-N.jpg","img/neutralC/CFD-IM-721-341-N.jpg","1","1","1","1","0","1","0.586572600062937","0.734242600039579","0.576698899967596","1","1","1","1","1","1","1","1","1"
"250009","img/neutralC/CFD-IM-721-341-N.jpg","img/neutralC/CFD-WM-034-030-N.jpg","img/neutralC/CFD-LM-213-061-N.jpg","1","1","1","1","1","0","0.576698899967596","0.586572600062937","0.623300699982792","1","1","1","1","1","1","1","1","1"
"250009","img/neutralC/CFD-LM-213-061-N.jpg","img/neutralC/CFD-IM-721-341-N.jpg","img/neutralC/CFD-IM-726-248-N.jpg","1","1","1","0","1","0","0.623300699982792","0.576698899967596","0.697615100070834","1","1","1","1","1","1","1","1","1"
"250009","img/neutralC/CFD-IM-726-248-N.jpg","img/neutralC/CFD-LM-213-061-N.jpg","img/neutralC/CFD-BF-036-027-N.jpg","1","1","1","0","0","0","0.697615100070834","0.623300699982792","0.606483699986711","1","1","1","1","1","1","1","1","1"
"250009","img/neutralC/CFD-BF-036-027-N.jpg","img/neutralC/CFD-IM-726-248-N.jpg","img/neutralC/CFD-LF-204-133-N.jpg","1","1","1","0","0","1","0.606483699986711","0.697615100070834","0.918408599914983","1","1","1","1","1","1","1","1","1"
"250009","img/neutralC/CFD-LF-204-133-N.jpg","img/neutralC/CFD-BF-036-027-N.jpg","img/neutralC/CFD-IF-742-103-N.jpg","1","1","1","1","0","1","0.918408599914983","0.606483699986711","0.747058899956755","1","1","1","1","1","1","1","1","1"
"250009","img/neutralC/CFD-IF-742-103-N.jpg","img/neutralC/CFD-LF-204-133-N.jpg","img/neutralC/CFD-IM-696-001-N.jpg","1","1","1","1","1","0","0.747058899956755","0.918408599914983","0.541373200016096","1","1","1","1","1","1","1","1","1"
"250009","img/neutralC/CFD-IM-696-001-N.jpg","img/neutralC/CFD-IF-742-103-N.jpg","img/neutralC/CFD-BM-036-003-N.jpg","1","1","1","0","1","1","0.541373200016096","0.747058899956755","0.559156899922527","1","1","1","1","1","1","1","1","1"
"250009","img/neutralC/CFD-BM-036-003-N.jpg","img/neutralC/CFD-IM-696-001-N.jpg","img/neutralC/CFD-WM-248-036-N.jpg","1","1","1","1","0","1","0.559156899922527","0.541373200016096","0.601055600098334","1","1","1","1","1","1","1","1","1"
"250009","img/neutralC/CFD-WM-248-036-N.jpg","img/neutralC/CFD-BM-036-003-N.jpg","img/neutralC/CFD-BM-238-242-N.jpg","1","1","1","1","1","0","0.601055600098334","0.559156899922527","0.696417500032112","1","1","1","1","1","1","1","1","1"
"250009","img/neutralC/CFD-BM-238-242-N.jpg","img/neutralC/CFD-WM-248-036-N.jpg","img/neutralC/CFD-BF-006-017-N.jpg","1","1","1","0","1","0","0.696417500032112","0.601055600098334","0.850306099979207","1","1","1","1","1","1","1","1","1"
"250009","img/neutralC/CFD-BF-006-017-N.jpg","img/neutralC/CFD-BM-238-242-N.jpg","img/neutralC/CFD-IM-707-105-N.jpg","1","1","1","0","0","1","0.850306099979207","0.696417500032112","0.579965500044636","1","1","1","1","1","1","1","1","1"
"250009","img/neutralC/CFD-IM-707-105-N.jpg","img/neutralC/CFD-BF-006-017-N.jpg","img/neutralC/CFD-BF-002-001-N.jpg","1","1","1","1","0","0","0.579965500044636","0.850306099979207","0.82890789990779","1","1","1","1","1","1","1","1","1"
"250009","img/neutralC/CFD-BF-002-001-N.jpg","img/neutralC/CFD-IM-707-105-N.jpg","img/neutralC/CFD-BM-241-235-N.jpg","1","1","1","0","1","0","0.82890789990779","0.579965500044636","0.514548400067724","1","1","1","1","1","1","1","1","1"
"250009","img/neutralC/CFD-BM-241-235-N.jpg","img/neutralC/CFD-BF-002-001-N.jpg","img/neutralC/CFD-BM-207-024-N.jpg","1","1","1","0","0","1","0.514548400067724","0.82890789990779","0.445086100022308","1","1","1","1","1","1","1","1","1"
"250009","img/neutralC/CFD-BM-207-024-N.jpg","img/neutralC/CFD-BM-241-235-N.jpg","img/neutralC/CFD-BF-247-179-N.jpg","1","1","1","1","0","0","0.445086100022308","0.514548400067724","0.630611400003545","1","1","1","1","1","1","1","1","1"
"250009","img/neutralC/CFD-BF-247-179-N.jpg","img/neutralC/CFD-BM-207-024-N.jpg","img/neutralC/CFD-BF-207-004-N.jpg","1","1","1","0","1","1","0.630611400003545","0.445086100022308","0.73997190000955","1","1","1","1","1","1","1","1","1"
"250009","img/neutralC/CFD-BF-207-004-N.jpg","img/neutralC/CFD-BF-247-179-N.jpg","img/neutralC/CFD-WF-029-002-N.jpg","1","1","1","1","0","0","0.73997190000955","0.630611400003545","0.628890599939041","1","1","1","1","1","1","1","1","1"
"250009","img/neutralC/CFD-WF-029-002-N.jpg","img/neutralC/CFD-BF-207-004-N.jpg","img/neutralC/CFD-WF-208-068-N.jpg","1","1","1","0","1","1","0.628890599939041","0.73997190000955","0.549340400029905","1","1","1","1","1","1","1","1","1"
"250009","img/neutralC/CFD-WF-208-068-N.jpg","img/neutralC/CFD-WF-029-002-N.jpg","img/neutralC/CFD-WF-234-086-N.jpg","1","1","1","1","0","1","0.549340400029905","0.628890599939041","0.710738099995069","1","1","1","1","1","1","1","1","1"
"250009","img/neutralC/CFD-WF-234-086-N.jpg","img/neutralC/CFD-WF-208-068-N.jpg","img/neutralC/CFD-IF-729-393-N.jpg","1","1","1","1","1","0","0.710738099995069","0.549340400029905","0.874438500031829","1","1","1","1","1","1","1","1","1"
"250009","img/neutralC/CFD-IF-729-393-N.jpg","img/neutralC/CFD-WF-234-086-N.jpg","img/neutralC/CFD-WM-014-002-N.jpg","1","1","1","0","1","0","0.874438500031829","0.710738099995069","0.621618100092746","1","1","1","1","1","1","1","1","1"
"250009","img/neutralC/CFD-WM-014-002-N.jpg","img/neutralC/CFD-IF-729-393-N.jpg","img/neutralC/CFD-IF-677-452-1-N.jpg","1","1","1","0","0","1","0.621618100092746","0.874438500031829","0.637700200080872","1","1","1","1","1","1","1","1","1"
"250009","img/neutralC/CFD-IF-677-452-1-N.jpg","img/neutralC/CFD-WM-014-002-N.jpg","img/neutralC/CFD-BF-236-177-N.jpg","1","1","1","1","0","0","0.637700200080872","0.621618100092746","0.608136299997568","1","1","1","1","1","1","1","1","1"
"250009","img/neutralC/CFD-BF-236-177-N.jpg","img/neutralC/CFD-IF-677-452-1-N.jpg","img/neutralC/CFD-MF-301-024-N.jpg","1","1","1","0","1","0","0.608136299997568","0.637700200080872","0.748992500011809","1","1","1","1","1","1","1","1","1"
"250009","img/neutralC/CFD-MF-301-024-N.jpg","img/neutralC/CFD-BF-236-177-N.jpg","img/neutralC/CFD-WF-233-112-N.jpg","1","1","1","0","0","1","0.748992500011809","0.608136299997568","0.697579300031066","1","1","1","1","1","1","1","1","1"
"250009","img/neutralC/CFD-WF-233-112-N.jpg","img/neutralC/CFD-MF-301-024-N.jpg","img/neutralC/CFD-BF-027-002-N.jpg","1","1","1","1","0","1","0.697579300031066","0.748992500011809","0.853043199982494","1","1","1","1","1","1","1","1","1"
"250009","img/neutralC/CFD-BF-027-002-N.jpg","img/neutralC/CFD-WF-233-112-N.jpg","img/neutralC/CFD-BF-044-034-N.jpg","1","1","1","1","1","0","0.853043199982494","0.697579300031066","0.57842969999183","1","1","1","1","1","1","1","1","1"
"250009","img/neutralC/CFD-BF-044-034-N.jpg","img/neutralC/CFD-BF-027-002-N.jpg","img/neutralC/CFD-BF-011-002-N.jpg","1","1","1","0","1","1","0.57842969999183","0.853043199982494","0.611944300006144","1","1","1","1","1","1","1","1","1"
"250009","img/neutralC/CFD-BF-011-002-N.jpg","img/neutralC/CFD-BF-044-034-N.jpg",NA,"1","1",NA,"1","0",NA,"0.611944300006144","0.57842969999183",NA,"1","1",NA,"1","1",NA,"1","1",NA
"250009","img/neutralC/CFD-LM-226-175-N.jpg",NA,"img/neutralC/CFD-LF-247-051-N.jpg","0",NA,"1","0",NA,"1","1.07127349998336",NA,"0.524748900090344","1",NA,"1","1",NA,"1","1",NA,"1"
"250009","img/neutralC/CFD-LF-247-051-N.jpg","img/neutralC/CFD-LM-226-175-N.jpg","img/neutralC/CFD-LF-250-169-N.jpg","1","0","1","1","0","1","0.524748900090344","1.07127349998336","0.534441199968569","1","1","1","1","1","1","1","1","1"
"250009","img/neutralC/CFD-LF-250-169-N.jpg","img/neutralC/CFD-LF-247-051-N.jpg","img/neutralC/CFD-LF-242-121-N.jpg","1","1","1","1","1","0","0.534441199968569","0.524748900090344","0.678930500056595","1","1","1","1","1","1","1","1","1"
"250009","img/neutralC/CFD-LF-242-121-N.jpg","img/neutralC/CFD-LF-250-169-N.jpg","img/neutralC/CFD-BM-005-003-N.jpg","1","1","1","0","1","1","0.678930500056595","0.534441199968569","0.681294900015928","1","1","1","1","1","1","1","1","1"
"250009","img/neutralC/CFD-BM-005-003-N.jpg","img/neutralC/CFD-LF-242-121-N.jpg","img/neutralC/CFD-AF-241-141-N.jpg","1","1","1","1","0","1","0.681294900015928","0.678930500056595","0.630238799960352","1","1","1","1","1","1","1","1","1"
"250009","img/neutralC/CFD-AF-241-141-N.jpg","img/neutralC/CFD-BM-005-003-N.jpg","img/neutralC/CFD-WM-227-099-N.jpg","1","1","1","1","1","1","0.630238799960352","0.681294900015928","0.648517800029367","1","1","1","1","1","1","1","1","1"
"250009","img/neutralC/CFD-WM-227-099-N.jpg","img/neutralC/CFD-AF-241-141-N.jpg","img/neutralC/CFD-WF-209-052-N.jpg","1","1","1","1","1","1","0.648517800029367","0.630238799960352","0.648655599914491","1","1","1","1","1","1","1","1","1"
"250009","img/neutralC/CFD-WF-209-052-N.jpg","img/neutralC/CFD-WM-227-099-N.jpg","img/neutralC/CFD-IM-653-008-N.jpg","1","1","1","1","1","0","0.648655599914491","0.648517800029367","0.793843799969181","1","1","1","1","1","1","1","1","1"
"250009","img/neutralC/CFD-IM-653-008-N.jpg","img/neutralC/CFD-WF-209-052-N.jpg","img/neutralC/CFD-WM-242-011-N.jpg","1","1","1","0","1","0","0.793843799969181","0.648655599914491","0.853243499994278","1","1","1","1","1","1","1","1","1"
"250009","img/neutralC/CFD-WM-242-011-N.jpg","img/neutralC/CFD-IM-653-008-N.jpg","img/neutralC/CFD-WM-258-125-N.jpg","1","1","1","0","0","0","0.853243499994278","0.793843799969181","0.638780600042082","1","1","1","1","1","1","1","1","1"
"250009","img/neutralC/CFD-WM-258-125-N.jpg","img/neutralC/CFD-WM-242-011-N.jpg","img/neutralC/CFD-AF-202-122-N.jpg","1","1","1","0","0","1","0.638780600042082","0.853243499994278","0.906275800080039","1","1","1","1","1","1","1","1","1"
"250009","img/neutralC/CFD-AF-202-122-N.jpg","img/neutralC/CFD-WM-258-125-N.jpg","img/neutralC/CFD-BM-018-001-N.jpg","1","1","1","1","0","1","0.906275800080039","0.638780600042082","0.614852900034748","1","1","1","1","1","1","1","1","1"
"250009","img/neutralC/CFD-BM-018-001-N.jpg","img/neutralC/CFD-AF-202-122-N.jpg","img/neutralC/CFD-LM-233-171-N.jpg","1","1","1","1","1","0","0.614852900034748","0.906275800080039","0.57800480001606","1","1","1","1","1","1","1","1","1"
"250009","img/neutralC/CFD-LM-233-171-N.jpg","img/neutralC/CFD-BM-018-001-N.jpg","img/neutralC/CFD-BF-238-190-N.jpg","1","1","1","0","1","1","0.57800480001606","0.614852900034748","0.476579100009985","1","1","1","1","1","1","1","1","1"
"250009","img/neutralC/CFD-BF-238-190-N.jpg","img/neutralC/CFD-LM-233-171-N.jpg","img/neutralC/CFD-BF-010-001-N.jpg","1","1","1","1","0","1","0.476579100009985","0.57800480001606","0.568561700056307","1","1","1","1","1","1","1","1","1"
"250009","img/neutralC/CFD-BF-010-001-N.jpg","img/neutralC/CFD-BF-238-190-N.jpg","img/neutralC/CFD-IM-617-174-N.jpg","1","1","1","1","1","0","0.568561700056307","0.476579100009985","0.61726039997302","1","1","1","1","1","1","1","1","1"
"250009","img/neutralC/CFD-IM-617-174-N.jpg","img/neutralC/CFD-BF-010-001-N.jpg","img/neutralC/CFD-IF-665-015-N.jpg","1","1","1","0","1","0","0.61726039997302","0.568561700056307","0.705098000005819","1","1","1","1","1","1","1","1","1"
"250009","img/neutralC/CFD-IF-665-015-N.jpg","img/neutralC/CFD-IM-617-174-N.jpg","img/neutralC/CFD-WM-017-002-N.jpg","1","1","1","0","0","0","0.705098000005819","0.61726039997302","0.641794299939647","1","1","1","1","1","1","1","1","1"
"250009","img/neutralC/CFD-WM-017-002-N.jpg","img/neutralC/CFD-IF-665-015-N.jpg","img/neutralC/CFD-LF-245-166-N.jpg","1","1","1","0","0","1","0.641794299939647","0.705098000005819","0.868286499986425","1","1","1","1","1","1","1","1","1"
"250009","img/neutralC/CFD-LF-245-166-N.jpg","img/neutralC/CFD-WM-017-002-N.jpg","img/neutralC/CFD-IM-727-195-N.jpg","1","1","1","1","0","1","0.868286499986425","0.641794299939647","0.80753710004501","1","1","1","1","1","1","1","1","1"
"250009","img/neutralC/CFD-IM-727-195-N.jpg","img/neutralC/CFD-LF-245-166-N.jpg","img/neutralC/CFD-IM-638-250-1-N.jpg","1","1","1","1","1","1","0.80753710004501","0.868286499986425","0.757345200050622","1","1","1","1","1","1","1","1","1"
"250009","img/neutralC/CFD-IM-638-250-1-N.jpg","img/neutralC/CFD-IM-727-195-N.jpg","img/neutralC/CFD-BM-212-117-N.jpg","1","1","1","1","1","0","0.757345200050622","0.80753710004501","0.806321799987927","1","1","1","1","1","1","1","1","1"
"250009","img/neutralC/CFD-BM-212-117-N.jpg","img/neutralC/CFD-IM-638-250-1-N.jpg","img/neutralC/CFD-MF-313-002-N.jpg","1","1","1","0","1","0","0.806321799987927","0.757345200050622","0.722750800079666","1","1","1","1","1","1","1","1","1"
"250009","img/neutralC/CFD-MF-313-002-N.jpg","img/neutralC/CFD-BM-212-117-N.jpg","img/neutralC/CFD-BM-231-155-N.jpg","1","1","1","0","0","1","0.722750800079666","0.806321799987927","0.67944219999481","1","1","1","1","1","1","1","1","1"
"250009","img/neutralC/CFD-BM-231-155-N.jpg","img/neutralC/CFD-MF-313-002-N.jpg","img/neutralC/CFD-AF-206-079-N.jpg","1","1","1","1","0","1","0.67944219999481","0.722750800079666","0.6420735999709","1","1","1","1","1","1","1","1","1"
"250009","img/neutralC/CFD-AF-206-079-N.jpg","img/neutralC/CFD-BM-231-155-N.jpg","img/neutralC/CFD-IM-657-308-N.jpg","1","1","1","1","1","0","0.6420735999709","0.67944219999481","1.24374309997074","1","1","1","1","1","1","1","1","1"
"250009","img/neutralC/CFD-IM-657-308-N.jpg","img/neutralC/CFD-AF-206-079-N.jpg","img/neutralC/CFD-IF-620-218-N.jpg","1","1","1","0","1","0","1.24374309997074","0.6420735999709","0.682875499944203","1","1","1","1","1","1","1","1","1"
"250009","img/neutralC/CFD-IF-620-218-N.jpg","img/neutralC/CFD-IM-657-308-N.jpg","img/neutralC/CFD-IM-686-097-N.jpg","1","1","1","0","0","0","0.682875499944203","1.24374309997074","0.684044199995697","1","1","1","1","1","1","1","1","1"
"250009","img/neutralC/CFD-IM-686-097-N.jpg","img/neutralC/CFD-IF-620-218-N.jpg","img/neutralC/CFD-BM-026-002-N.jpg","1","1","1","0","0","0","0.684044199995697","0.682875499944203","1.00318569992669","1","1","1","1","1","1","1","1","1"
"250009","img/neutralC/CFD-BM-026-002-N.jpg","img/neutralC/CFD-IM-686-097-N.jpg","img/neutralC/CFD-BF-033-028-N.jpg","1","1","1","0","0","0","1.00318569992669","0.684044199995697","0.733829900040291","1","1","1","1","1","1","1","1","1"
"250009","img/neutralC/CFD-BF-033-028-N.jpg","img/neutralC/CFD-BM-026-002-N.jpg","img/neutralC/CFD-LM-219-295-N.jpg","1","1","1","0","0","1","0.733829900040291","1.00318569992669","0.562956999987364","1","1","1","1","1","1","1","1","1"
"250009","img/neutralC/CFD-LM-219-295-N.jpg","img/neutralC/CFD-BF-033-028-N.jpg",NA,"1","1",NA,"1","0",NA,"0.562956999987364","0.733829900040291",NA,"1","1",NA,"1","1",NA,"1","1",NA
"250009","img/neutralC/CFD-BM-248-128-N.jpg",NA,"img/neutralC/CFD-AF-240-206-N.jpg","0",NA,"1","0",NA,"0","1.01970009994693",NA,"0.775872000027448","1",NA,"1","1",NA,"1","1",NA,"1"
"250009","img/neutralC/CFD-AF-240-206-N.jpg","img/neutralC/CFD-BM-248-128-N.jpg","img/neutralC/CFD-IF-642-295-N.jpg","1","0","1","0","0","1","0.775872000027448","1.01970009994693","0.559995000017807","1","1","1","1","1","1","1","1","1"
"250009","img/neutralC/CFD-IF-642-295-N.jpg","img/neutralC/CFD-AF-240-206-N.jpg","img/neutralC/CFD-MF-309-002-N.jpg","1","1","1","1","0","0","0.559995000017807","0.775872000027448","0.915628400049172","1","1","1","1","1","1","1","1","1"
"250009","img/neutralC/CFD-MF-309-002-N.jpg","img/neutralC/CFD-IF-642-295-N.jpg","img/neutralC/CFD-WM-212-097-N.jpg","1","1","1","0","1","0","0.915628400049172","0.559995000017807","0.848746000090614","1","1","1","1","1","1","1","1","1"
"250009","img/neutralC/CFD-WM-212-097-N.jpg","img/neutralC/CFD-MF-309-002-N.jpg","img/neutralC/CFD-BM-205-001-N.jpg","1","1","1","0","0","0","0.848746000090614","0.915628400049172","0.57414120004978","1","1","1","1","1","1","1","1","1"
"250009","img/neutralC/CFD-BM-205-001-N.jpg","img/neutralC/CFD-WM-212-097-N.jpg","img/neutralC/CFD-WM-012-001-N.jpg","1","1","1","0","0","1","0.57414120004978","0.848746000090614","0.502093099988997","1","1","1","1","1","1","1","1","1"
"250009","img/neutralC/CFD-WM-012-001-N.jpg","img/neutralC/CFD-BM-205-001-N.jpg","img/neutralC/CFD-WM-019-003-N.jpg","1","1","1","1","0","1","0.502093099988997","0.57414120004978","0.534099800046533","1","1","1","1","1","1","1","1","1"
"250009","img/neutralC/CFD-WM-019-003-N.jpg","img/neutralC/CFD-WM-012-001-N.jpg","img/neutralC/CFD-BF-212-315-N.jpg","1","1","1","1","1","1","0.534099800046533","0.502093099988997","0.67582359991502","1","1","1","1","1","1","1","1","1"
"250009","img/neutralC/CFD-BF-212-315-N.jpg","img/neutralC/CFD-WM-019-003-N.jpg","img/neutralC/CFD-IM-646-023-N.jpg","1","1","1","1","1","1","0.67582359991502","0.534099800046533","0.701318499981426","1","1","1","1","1","1","1","1","1"
"250009","img/neutralC/CFD-IM-646-023-N.jpg","img/neutralC/CFD-BF-212-315-N.jpg","img/neutralC/CFD-BF-041-001-N.jpg","1","1","1","1","1","1","0.701318499981426","0.67582359991502","0.945621300023049","1","1","1","1","1","1","1","1","1"
"250009","img/neutralC/CFD-BF-041-001-N.jpg","img/neutralC/CFD-IM-646-023-N.jpg","img/neutralC/CFD-BM-251-013-N.jpg","1","1","1","1","1","1","0.945621300023049","0.701318499981426","0.537946299999021","1","1","1","1","1","1","1","1","1"
"250009","img/neutralC/CFD-BM-251-013-N.jpg","img/neutralC/CFD-BF-041-001-N.jpg","img/neutralC/CFD-MM-317-061-N.jpg","1","1","1","1","1","1","0.537946299999021","0.945621300023049","0.69180199992843","1","1","1","1","1","1","1","1","1"
"250009","img/neutralC/CFD-MM-317-061-N.jpg","img/neutralC/CFD-BM-251-013-N.jpg","img/neutralC/CFD-LM-201-057-N.jpg","1","1","1","1","1","1","0.69180199992843","0.537946299999021","0.639960100059398","1","1","1","1","1","1","1","1","1"
"250009","img/neutralC/CFD-LM-201-057-N.jpg","img/neutralC/CFD-MM-317-061-N.jpg","img/neutralC/CFD-BF-228-212-N.jpg","1","1","1","1","1","0","0.639960100059398","0.69180199992843","0.68337110010907","1","1","1","1","1","1","1","1","1"
"250009","img/neutralC/CFD-BF-228-212-N.jpg","img/neutralC/CFD-LM-201-057-N.jpg","img/neutralC/CFD-WM-006-002-N.jpg","1","1","1","0","1","0","0.68337110010907","0.639960100059398","0.639171999995597","1","1","1","1","1","1","1","1","1"
"250009","img/neutralC/CFD-WM-006-002-N.jpg","img/neutralC/CFD-BF-228-212-N.jpg","img/neutralC/CFD-MF-335-002-N.jpg","1","1","1","0","0","0","0.639171999995597","0.68337110010907","0.617666300036944","1","1","1","1","1","1","1","1","1"
"250009","img/neutralC/CFD-MF-335-002-N.jpg","img/neutralC/CFD-WM-006-002-N.jpg","img/neutralC/CFD-LM-243-075-N.jpg","1","1","1","0","0","0","0.617666300036944","0.639171999995597","0.587904599960893","1","1","1","1","1","1","1","1","1"
"250009","img/neutralC/CFD-LM-243-075-N.jpg","img/neutralC/CFD-MF-335-002-N.jpg","img/neutralC/CFD-WF-017-003-N.jpg","1","1","1","0","0","1","0.587904599960893","0.617666300036944","0.547716000000946","1","1","1","1","1","1","1","1","1"
"250009","img/neutralC/CFD-WF-017-003-N.jpg","img/neutralC/CFD-LM-243-075-N.jpg","img/neutralC/CFD-WM-249-239-N.jpg","1","1","1","1","0","1","0.547716000000946","0.587904599960893","0.611715800012462","1","1","1","1","1","1","1","1","1"
"250009","img/neutralC/CFD-WM-249-239-N.jpg","img/neutralC/CFD-WF-017-003-N.jpg","img/neutralC/CFD-AM-247-165-N.jpg","1","1","1","1","1","1","0.611715800012462","0.547716000000946","0.754737599985674","1","1","1","1","1","1","1","1","1"
"250009","img/neutralC/CFD-AM-247-165-N.jpg","img/neutralC/CFD-WM-249-239-N.jpg","img/neutralC/CFD-LM-214-165-N.jpg","1","1","1","1","1","1","0.754737599985674","0.611715800012462","0.588022999931127","1","1","1","1","1","1","1","1","1"
"250009","img/neutralC/CFD-LM-214-165-N.jpg","img/neutralC/CFD-AM-247-165-N.jpg","img/neutralC/CFD-LM-244-068-N.jpg","1","1","1","1","1","1","0.588022999931127","0.754737599985674","0.708513400051743","1","1","1","1","1","1","1","1","1"
"250009","img/neutralC/CFD-LM-244-068-N.jpg","img/neutralC/CFD-LM-214-165-N.jpg","img/neutralC/CFD-WF-005-010-N.jpg","1","1","1","1","1","0","0.708513400051743","0.588022999931127","0.922632700065151","1","1","1","1","1","1","1","1","1"
"250009","img/neutralC/CFD-WF-005-010-N.jpg","img/neutralC/CFD-LM-244-068-N.jpg","img/neutralC/CFD-WM-215-041-N.jpg","1","1","1","0","1","0","0.922632700065151","0.708513400051743","0.738591899978928","1","1","1","1","1","1","1","1","1"
"250009","img/neutralC/CFD-WM-215-041-N.jpg","img/neutralC/CFD-WF-005-010-N.jpg","img/neutralC/CFD-WF-228-196-N.jpg","1","1","1","0","0","0","0.738591899978928","0.922632700065151","0.652946599991992","1","1","1","1","1","1","1","1","1"
"250009","img/neutralC/CFD-WF-228-196-N.jpg","img/neutralC/CFD-WM-215-041-N.jpg","img/neutralC/CFD-BF-202-109-N.jpg","1","1","1","0","0","1","0.652946599991992","0.738591899978928","0.667808800004423","1","1","1","1","1","1","1","1","1"
"250009","img/neutralC/CFD-BF-202-109-N.jpg","img/neutralC/CFD-WF-228-196-N.jpg","img/neutralC/CFD-LM-216-082-N.jpg","1","1","1","1","0","0","0.667808800004423","0.652946599991992","0.609974200022407","1","1","1","1","1","1","1","1","1"
"250009","img/neutralC/CFD-LM-216-082-N.jpg","img/neutralC/CFD-BF-202-109-N.jpg","img/neutralC/CFD-BF-025-002-N.jpg","1","1","1","0","1","0","0.609974200022407","0.667808800004423","0.620599300018512","1","1","1","1","1","1","1","1","1"
"250009","img/neutralC/CFD-BF-025-002-N.jpg","img/neutralC/CFD-LM-216-082-N.jpg","img/neutralC/CFD-IM-648-337-N.jpg","1","1","1","0","0","0","0.620599300018512","0.609974200022407","0.714843699941412","1","1","1","1","1","1","1","1","1"
"250009","img/neutralC/CFD-IM-648-337-N.jpg","img/neutralC/CFD-BF-025-002-N.jpg","img/neutralC/CFD-WF-240-083-N.jpg","1","1","1","0","0","0","0.714843699941412","0.620599300018512","0.86719230003655","1","1","1","1","1","1","1","1","1"
"250009","img/neutralC/CFD-WF-240-083-N.jpg","img/neutralC/CFD-IM-648-337-N.jpg","img/neutralC/CFD-WM-026-001-N.jpg","1","1","1","0","0","1","0.86719230003655","0.714843699941412","0.661875599995255","1","1","1","1","1","1","1","1","1"
"250009","img/neutralC/CFD-WM-026-001-N.jpg","img/neutralC/CFD-WF-240-083-N.jpg",NA,"1","1",NA,"1","0",NA,"0.661875599995255","0.86719230003655",NA,"1","1",NA,"1","1",NA,"1","1",NA
"250009","img/neutralC/CFD-AF-233-190-N.jpg",NA,"img/neutralC/CFD-WM-015-002-N.jpg","1",NA,"1","0",NA,"0","1.10848629998509",NA,"0.73829560005106","1",NA,"1","1",NA,"1","1",NA,"1"
"250009","img/neutralC/CFD-WM-015-002-N.jpg","img/neutralC/CFD-AF-233-190-N.jpg","img/neutralC/CFD-WF-007-001-N.jpg","1","1","1","0","0","1","0.73829560005106","1.10848629998509","0.546537699992768","1","1","1","1","1","1","1","1","1"
"250009","img/neutralC/CFD-WF-007-001-N.jpg","img/neutralC/CFD-WM-015-002-N.jpg","img/neutralC/CFD-LF-206-078-N.jpg","1","1","1","1","0","1","0.546537699992768","0.73829560005106","0.565955099998973","1","1","1","1","1","1","1","1","1"
"250009","img/neutralC/CFD-LF-206-078-N.jpg","img/neutralC/CFD-WF-007-001-N.jpg","img/neutralC/CFD-IF-660-464-N.jpg","1","1","1","1","1","0","0.565955099998973","0.546537699992768","0.904906899901107","1","1","1","1","1","1","1","1","1"
"250009","img/neutralC/CFD-IF-660-464-N.jpg","img/neutralC/CFD-LF-206-078-N.jpg","img/neutralC/CFD-AF-253-130-N.jpg","1","1","1","0","1","1","0.904906899901107","0.565955099998973","0.863082500058226","1","1","1","1","1","1","1","1","1"
"250009","img/neutralC/CFD-AF-253-130-N.jpg","img/neutralC/CFD-IF-660-464-N.jpg","img/neutralC/CFD-WF-244-163-N.jpg","1","1","1","1","0","1","0.863082500058226","0.904906899901107","1.08170560002327","1","1","1","1","1","1","1","1","1"
"250009","img/neutralC/CFD-WF-244-163-N.jpg","img/neutralC/CFD-AF-253-130-N.jpg","img/neutralC/CFD-WF-030-002-N.jpg","1","1","1","1","1","0","1.08170560002327","0.863082500058226","0.847676099976525","1","1","1","1","1","1","1","1","1"
"250009","img/neutralC/CFD-WF-030-002-N.jpg","img/neutralC/CFD-WF-244-163-N.jpg","img/neutralC/CFD-BM-250-170-N.jpg","1","1","1","0","1","1","0.847676099976525","1.08170560002327","0.909070400055498","1","1","1","1","1","1","1","1","1"
"250009","img/neutralC/CFD-BM-250-170-N.jpg","img/neutralC/CFD-WF-030-002-N.jpg","img/neutralC/CFD-BM-001-014-N.jpg","1","1","1","1","0","0","0.909070400055498","0.847676099976525","0.866885000024922","1","1","1","1","1","1","1","1","1"
"250009","img/neutralC/CFD-BM-001-014-N.jpg","img/neutralC/CFD-BM-250-170-N.jpg","img/neutralC/CFD-BF-237-172-N.jpg","1","1","1","0","1","1","0.866885000024922","0.909070400055498","0.635862699942663","1","1","1","1","1","1","1","1","1"
"250009","img/neutralC/CFD-BF-237-172-N.jpg","img/neutralC/CFD-BM-001-014-N.jpg","img/neutralC/CFD-AM-220-134-N.jpg","1","1","1","1","0","0","0.635862699942663","0.866885000024922","0.894042699947022","1","1","1","1","1","1","1","1","1"
"250009","img/neutralC/CFD-AM-220-134-N.jpg","img/neutralC/CFD-BF-237-172-N.jpg","img/neutralC/CFD-BM-217-082-N.jpg","1","1","1","0","1","0","0.894042699947022","0.635862699942663","0.635698300087824","1","1","1","1","1","1","1","1","1"
"250009","img/neutralC/CFD-BM-217-082-N.jpg","img/neutralC/CFD-AM-220-134-N.jpg","img/neutralC/CFD-WF-222-092-N.jpg","1","1","1","0","0","1","0.635698300087824","0.894042699947022","0.723231600015424","1","1","1","1","1","1","1","1","1"
"250009","img/neutralC/CFD-WF-222-092-N.jpg","img/neutralC/CFD-BM-217-082-N.jpg","img/neutralC/CFD-IM-667-369-N.jpg","1","1","1","1","0","0","0.723231600015424","0.635698300087824","1.28871590003837","1","1","1","1","1","1","1","1","1"
"250009","img/neutralC/CFD-IM-667-369-N.jpg","img/neutralC/CFD-WF-222-092-N.jpg","img/neutralC/CFD-MM-324-069-N.jpg","1","1","1","0","1","1","1.28871590003837","0.723231600015424","0.555138500058092","1","1","1","1","1","1","1","1","1"
"250009","img/neutralC/CFD-MM-324-069-N.jpg","img/neutralC/CFD-IM-667-369-N.jpg","img/neutralC/CFD-WM-218-074-N.jpg","1","1","1","1","0","1","0.555138500058092","1.28871590003837","0.800060899928212","1","1","1","1","1","1","1","1","1"
"250009","img/neutralC/CFD-WM-218-074-N.jpg","img/neutralC/CFD-MM-324-069-N.jpg","img/neutralC/CFD-IM-680-369-N.jpg","1","1","1","1","1","1","0.800060899928212","0.555138500058092","0.502493100007996","1","1","1","1","1","1","1","1","1"
"250009","img/neutralC/CFD-IM-680-369-N.jpg","img/neutralC/CFD-WM-218-074-N.jpg","img/neutralC/CFD-LM-225-130-N.jpg","1","1","1","1","1","0","0.502493100007996","0.800060899928212","0.580183599959128","1","1","1","1","1","1","1","1","1"
"250009","img/neutralC/CFD-LM-225-130-N.jpg","img/neutralC/CFD-IM-680-369-N.jpg","img/neutralC/CFD-IM-702-101-N.jpg","1","1","1","0","1","1","0.580183599959128","0.502493100007996","0.634493199991994","1","1","1","1","1","1","1","1","1"
"250009","img/neutralC/CFD-IM-702-101-N.jpg","img/neutralC/CFD-LM-225-130-N.jpg","img/neutralC/CFD-LF-255-088-N.jpg","1","1","1","1","0","0","0.634493199991994","0.580183599959128","1.0288890999509","1","1","1","1","1","1","1","1","1"
"250009","img/neutralC/CFD-LF-255-088-N.jpg","img/neutralC/CFD-IM-702-101-N.jpg","img/neutralC/CFD-IM-664-651-N.jpg","1","1","1","0","1","1","1.0288890999509","0.634493199991994","0.658340199966915","1","1","1","1","1","1","1","1","1"
"250009","img/neutralC/CFD-IM-664-651-N.jpg","img/neutralC/CFD-LF-255-088-N.jpg","img/neutralC/CFD-IM-706-002-N.jpg","1","1","1","1","0","0","0.658340199966915","1.0288890999509","0.87421679997351","1","1","1","1","1","1","1","1","1"
"250009","img/neutralC/CFD-IM-706-002-N.jpg","img/neutralC/CFD-IM-664-651-N.jpg","img/neutralC/CFD-WM-209-038-N.jpg","1","1","1","0","1","0","0.87421679997351","0.658340199966915","0.600666599930264","1","1","1","1","1","1","1","1","1"
"250009","img/neutralC/CFD-WM-209-038-N.jpg","img/neutralC/CFD-IM-706-002-N.jpg","img/neutralC/CFD-MF-303-013-N.jpg","1","1","1","0","0","0","0.600666599930264","0.87421679997351","0.634054699912667","1","1","1","1","1","1","1","1","1"
"250009","img/neutralC/CFD-MF-303-013-N.jpg","img/neutralC/CFD-WM-209-038-N.jpg","img/neutralC/CFD-IF-626-375-N.jpg","1","1","1","0","0","0","0.634054699912667","0.600666599930264","0.574455299996771","1","1","1","1","1","1","1","1","1"
"250009","img/neutralC/CFD-IF-626-375-N.jpg","img/neutralC/CFD-MF-303-013-N.jpg","img/neutralC/CFD-MF-343-001-N.jpg","1","1","1","0","0","1","0.574455299996771","0.634054699912667","0.602711200015619","1","1","1","1","1","1","1","1","1"
"250009","img/neutralC/CFD-MF-343-001-N.jpg","img/neutralC/CFD-IF-626-375-N.jpg","img/neutralC/CFD-MF-316-001-N.jpg","1","1","1","1","0","0","0.602711200015619","0.574455299996771","0.568417600006796","1","1","1","1","1","1","1","1","1"
"250009","img/neutralC/CFD-MF-316-001-N.jpg","img/neutralC/CFD-MF-343-001-N.jpg","img/neutralC/CFD-BF-014-002-N.jpg","1","1","1","0","1","1","0.568417600006796","0.602711200015619","0.571053799940273","1","1","1","1","1","1","1","1","1"
"250009","img/neutralC/CFD-BF-014-002-N.jpg","img/neutralC/CFD-MF-316-001-N.jpg","img/neutralC/CFD-MF-357-002-N.jpg","1","1","1","1","0","0","0.571053799940273","0.568417600006796","0.683825699961744","1","1","1","1","1","1","1","1","1"
"250009","img/neutralC/CFD-MF-357-002-N.jpg","img/neutralC/CFD-BF-014-002-N.jpg","img/neutralC/CFD-MF-305-014-N.jpg","1","1","1","0","1","1","0.683825699961744","0.571053799940273","0.515258300001733","1","1","1","1","1","1","1","1","1"
"250009","img/neutralC/CFD-MF-305-014-N.jpg","img/neutralC/CFD-MF-357-002-N.jpg","img/neutralC/CFD-LM-200-045-N.jpg","1","1","1","1","0","1","0.515258300001733","0.683825699961744","0.587358200107701","1","1","1","1","1","1","1","1","1"
"250009","img/neutralC/CFD-LM-200-045-N.jpg","img/neutralC/CFD-MF-305-014-N.jpg",NA,"1","1",NA,"1","1",NA,"0.587358200107701","0.515258300001733",NA,"1","1",NA,"1","1",NA,"1","1",NA
"250009","img/neutralC/CFD-WM-235-147-N.jpg",NA,"img/neutralC/CFD-AM-211-052-N.jpg","1",NA,"1","0",NA,"1","0.871105400030501",NA,"0.798428099951707","1",NA,"1","1",NA,"1","1",NA,"1"
"250009","img/neutralC/CFD-AM-211-052-N.jpg","img/neutralC/CFD-WM-235-147-N.jpg","img/neutralC/CFD-MF-352-054-N.jpg","1","1","1","1","0","0","0.798428099951707","0.871105400030501","0.622549300082028","1","1","1","1","1","1","1","1","1"
"250009","img/neutralC/CFD-MF-352-054-N.jpg","img/neutralC/CFD-AM-211-052-N.jpg","img/neutralC/CFD-IM-703-182-N.jpg","1","1","1","0","1","1","0.622549300082028","0.798428099951707","0.620605299947783","1","1","1","1","1","1","1","1","1"
"250009","img/neutralC/CFD-IM-703-182-N.jpg","img/neutralC/CFD-MF-352-054-N.jpg","img/neutralC/CFD-WF-036-023-N.jpg","1","1","1","1","0","0","0.620605299947783","0.622549300082028","0.626743900007568","1","1","1","1","1","1","1","1","1"
"250009","img/neutralC/CFD-WF-036-023-N.jpg","img/neutralC/CFD-IM-703-182-N.jpg","img/neutralC/CFD-MF-359-019-N.jpg","1","1","1","0","1","0","0.626743900007568","0.620605299947783","0.526436700019985","1","1","1","1","1","1","1","1","1"
"250009","img/neutralC/CFD-MF-359-019-N.jpg","img/neutralC/CFD-WF-036-023-N.jpg","img/neutralC/CFD-BF-229-179-N.jpg","1","1","1","0","0","0","0.526436700019985","0.626743900007568","0.747417600010522","1","1","1","1","1","1","1","1","1"
"250009","img/neutralC/CFD-BF-229-179-N.jpg","img/neutralC/CFD-MF-359-019-N.jpg","img/neutralC/CFD-WM-219-008-N.jpg","1","1","1","0","0","0","0.747417600010522","0.526436700019985","0.631317000021227","1","1","1","1","1","1","1","1","1"
"250009","img/neutralC/CFD-WM-219-008-N.jpg","img/neutralC/CFD-BF-229-179-N.jpg","img/neutralC/CFD-BF-226-119-N.jpg","1","1","1","0","0","1","0.631317000021227","0.747417600010522","0.546854699961841","1","1","1","1","1","1","1","1","1"
"250009","img/neutralC/CFD-BF-226-119-N.jpg","img/neutralC/CFD-WM-219-008-N.jpg","img/neutralC/CFD-IM-645-001-N.jpg","1","1","1","1","0","0","0.546854699961841","0.631317000021227","0.73036529996898","1","1","1","1","1","1","1","1","1"
"250009","img/neutralC/CFD-IM-645-001-N.jpg","img/neutralC/CFD-BF-226-119-N.jpg","img/neutralC/CFD-BF-232-187-N.jpg","1","1","1","0","1","1","0.73036529996898","0.546854699961841","0.641377700027078","1","1","1","1","1","1","1","1","1"
"250009","img/neutralC/CFD-BF-232-187-N.jpg","img/neutralC/CFD-IM-645-001-N.jpg","img/neutralC/CFD-IM-671-601-N.jpg","1","1","1","1","0","0","0.641377700027078","0.73036529996898","0.874087800038978","1","1","1","1","1","1","1","1","1"
"250009","img/neutralC/CFD-IM-671-601-N.jpg","img/neutralC/CFD-BF-232-187-N.jpg","img/neutralC/CFD-MF-333-012-N.jpg","1","1","1","0","1","0","0.874087800038978","0.641377700027078","0.771036399994045","1","1","1","1","1","1","1","1","1"
"250009","img/neutralC/CFD-MF-333-012-N.jpg","img/neutralC/CFD-IM-671-601-N.jpg","img/neutralC/CFD-WF-200-099-N.jpg","1","1","1","0","0","0","0.771036399994045","0.874087800038978","0.6834252999397","1","1","1","1","1","1","1","1","1"
"250009","img/neutralC/CFD-WF-200-099-N.jpg","img/neutralC/CFD-MF-333-012-N.jpg","img/neutralC/CFD-BM-253-004-N.jpg","1","1","1","0","0","1","0.6834252999397","0.771036399994045","0.8239193999907","1","1","1","1","1","1","1","1","1"
"250009","img/neutralC/CFD-BM-253-004-N.jpg","img/neutralC/CFD-WF-200-099-N.jpg","img/neutralC/CFD-WF-001-003-N.jpg","1","1","1","1","0","1","0.8239193999907","0.6834252999397","0.88677040010225","1","1","1","1","1","1","1","1","1"
"250009","img/neutralC/CFD-WF-001-003-N.jpg","img/neutralC/CFD-BM-253-004-N.jpg","img/neutralC/CFD-IF-650-315-N.jpg","1","1","1","1","1","0","0.88677040010225","0.8239193999907","0.732277299975976","1","1","1","1","1","1","1","1","1"
"250009","img/neutralC/CFD-IF-650-315-N.jpg","img/neutralC/CFD-WF-001-003-N.jpg","img/neutralC/CFD-LM-228-188-N.jpg","1","1","1","0","1","1","0.732277299975976","0.88677040010225","0.769189700018615","1","1","1","1","1","1","1","1","1"
"250009","img/neutralC/CFD-LM-228-188-N.jpg","img/neutralC/CFD-IF-650-315-N.jpg","img/neutralC/CFD-WF-214-122-N.jpg","1","1","1","1","0","1","0.769189700018615","0.732277299975976","0.788004300091416","1","1","1","1","1","1","1","1","1"
"250009","img/neutralC/CFD-WF-214-122-N.jpg","img/neutralC/CFD-LM-228-188-N.jpg","img/neutralC/CFD-BM-225-154-N.jpg","1","1","1","1","1","1","0.788004300091416","0.769189700018615","0.819185000029393","1","1","1","1","1","1","1","1","1"
"250009","img/neutralC/CFD-BM-225-154-N.jpg","img/neutralC/CFD-WF-214-122-N.jpg","img/neutralC/CFD-AM-251-124-N.jpg","1","1","1","1","1","0","0.819185000029393","0.788004300091416","1.01815110002644","1","1","1","1","1","1","1","1","1"
"250009","img/neutralC/CFD-AM-251-124-N.jpg","img/neutralC/CFD-BM-225-154-N.jpg","img/neutralC/CFD-IM-616-214-N.jpg","1","1","1","0","1","0","1.01815110002644","0.819185000029393","0.582746400032192","1","1","1","1","1","1","1","1","1"
"250009","img/neutralC/CFD-IM-616-214-N.jpg","img/neutralC/CFD-AM-251-124-N.jpg","img/neutralC/CFD-IM-743-006-N.jpg","1","1","1","0","0","1","0.582746400032192","1.01815110002644","0.568453699932434","1","1","1","1","1","1","1","1","1"
"250009","img/neutralC/CFD-IM-743-006-N.jpg","img/neutralC/CFD-IM-616-214-N.jpg","img/neutralC/CFD-AM-242-176-N.jpg","1","1","1","1","0","1","0.568453699932434","0.582746400032192","0.528900699922815","1","1","1","1","1","1","1","1","1"
"250009","img/neutralC/CFD-AM-242-176-N.jpg","img/neutralC/CFD-IM-743-006-N.jpg","img/neutralC/CFD-WM-020-001-N.jpg","1","1","1","1","1","1","0.528900699922815","0.568453699932434","0.648665699991398","1","1","1","1","1","1","1","1","1"
"250009","img/neutralC/CFD-WM-020-001-N.jpg","img/neutralC/CFD-AM-242-176-N.jpg","img/neutralC/CFD-WM-004-010-N.jpg","1","1","1","1","1","0","0.648665699991398","0.528900699922815","0.784899900085293","1","1","1","1","1","1","1","1","1"
"250009","img/neutralC/CFD-WM-004-010-N.jpg","img/neutralC/CFD-WM-020-001-N.jpg","img/neutralC/CFD-WM-033-025-N.jpg","1","1","1","0","1","1","0.784899900085293","0.648665699991398","0.701816799934022","1","1","1","1","1","1","1","1","1"
"250009","img/neutralC/CFD-WM-033-025-N.jpg","img/neutralC/CFD-WM-004-010-N.jpg","img/neutralC/CFD-IF-623-129-N.jpg","1","1","1","1","0","1","0.701816799934022","0.784899900085293","0.621409900020808","1","1","1","1","1","1","1","1","1"
"250009","img/neutralC/CFD-IF-623-129-N.jpg","img/neutralC/CFD-WM-033-025-N.jpg","img/neutralC/CFD-LF-218-072-N.jpg","1","1","1","1","1","0","0.621409900020808","0.701816799934022","0.842117300024256","1","1","1","1","1","1","1","1","1"
"250009","img/neutralC/CFD-LF-218-072-N.jpg","img/neutralC/CFD-IF-623-129-N.jpg","img/neutralC/CFD-LF-220-120-N.jpg","1","1","1","0","1","1","0.842117300024256","0.621409900020808","0.745322999893688","1","1","1","1","1","1","1","1","1"
"250009","img/neutralC/CFD-LF-220-120-N.jpg","img/neutralC/CFD-LF-218-072-N.jpg","img/neutralC/CFD-BF-038-037-N.jpg","1","1","1","1","0","1","0.745322999893688","0.842117300024256","0.856267299968749","1","1","1","1","1","1","1","1","1"
"250009","img/neutralC/CFD-BF-038-037-N.jpg","img/neutralC/CFD-LF-220-120-N.jpg","img/neutralC/CFD-LM-237-264-N.jpg","1","1","0","1","1","0","0.856267299968749","0.745322999893688","1.01850530004594","1","1","1","1","1","1","1","1","1"
"250009","img/neutralC/CFD-LM-237-264-N.jpg","img/neutralC/CFD-BF-038-037-N.jpg",NA,"0","1",NA,"0","1",NA,"1.01850530004594","0.856267299968749",NA,"1","1",NA,"1","1",NA,"1","1",NA
"250009","img/neutralC/CFD-WM-213-076-N.jpg",NA,"img/neutralC/CFD-AF-215-70-N.jpg","1",NA,"1","1",NA,"0","0.931848300038837",NA,"1.14019339997321","1",NA,"1","1",NA,"1","1",NA,"1"
"250009","img/neutralC/CFD-AF-215-70-N.jpg","img/neutralC/CFD-WM-213-076-N.jpg","img/neutralC/CFD-IM-604-014-N.jpg","1","1","0","0","1","0","1.14019339997321","0.931848300038837","0.787742300075479","1","1","1","1","1","1","1","1","1"
"250009","img/neutralC/CFD-IM-604-014-N.jpg","img/neutralC/CFD-AF-215-70-N.jpg","img/neutralC/CFD-BM-243-218-N.jpg","0","1","1","0","0","1","0.787742300075479","1.14019339997321","0.872547100065276","1","1","1","1","1","1","1","1","1"
"250009","img/neutralC/CFD-BM-243-218-N.jpg","img/neutralC/CFD-IM-604-014-N.jpg","img/neutralC/CFD-IM-685-004-N.jpg","1","0","1","1","0","1","0.872547100065276","0.787742300075479","0.918661899981089","1","1","1","1","1","1","1","1","1"
"250009","img/neutralC/CFD-IM-685-004-N.jpg","img/neutralC/CFD-BM-243-218-N.jpg","img/neutralC/CFD-WF-248-129-N.jpg","1","1","1","1","1","0","0.918661899981089","0.872547100065276","0.786452899919823","1","1","1","1","1","1","1","1","1"
"250009","img/neutralC/CFD-WF-248-129-N.jpg","img/neutralC/CFD-IM-685-004-N.jpg","img/neutralC/CFD-WM-232-070-N.jpg","1","1","1","0","1","0","0.786452899919823","0.918661899981089","0.78023219993338","1","1","1","1","1","1","1","1","1"
"250009","img/neutralC/CFD-WM-232-070-N.jpg","img/neutralC/CFD-WF-248-129-N.jpg","img/neutralC/CFD-MF-300-002-N.jpg","1","1","1","0","0","0","0.78023219993338","0.786452899919823","0.698666299926117","1","1","1","1","1","1","1","1","1"
"250009","img/neutralC/CFD-MF-300-002-N.jpg","img/neutralC/CFD-WM-232-070-N.jpg","img/neutralC/CFD-MF-340-026-N.jpg","1","1","1","0","0","1","0.698666299926117","0.78023219993338","0.846199700026773","1","1","1","1","1","1","1","1","1"
"250009","img/neutralC/CFD-MF-340-026-N.jpg","img/neutralC/CFD-MF-300-002-N.jpg","img/neutralC/CFD-IF-608-390-N.jpg","1","1","1","1","0","1","0.846199700026773","0.698666299926117","0.662348399986513","1","1","1","1","1","1","1","1","1"
"250009","img/neutralC/CFD-IF-608-390-N.jpg","img/neutralC/CFD-MF-340-026-N.jpg","img/neutralC/CFD-IM-709-103-N.jpg","1","1","1","1","1","0","0.662348399986513","0.846199700026773","0.717639900045469","1","1","1","1","1","1","1","1","1"
"250009","img/neutralC/CFD-IM-709-103-N.jpg","img/neutralC/CFD-IF-608-390-N.jpg","img/neutralC/CFD-MM-304-002-N.jpg","1","1","1","0","1","1","0.717639900045469","0.662348399986513","0.686128700035624","1","1","1","1","1","1","1","1","1"
"250009","img/neutralC/CFD-MM-304-002-N.jpg","img/neutralC/CFD-IM-709-103-N.jpg","img/neutralC/CFD-MF-329-001-N.jpg","1","1","1","1","0","0","0.686128700035624","0.717639900045469","1.28901950002182","1","1","1","1","1","1","1","1","1"
"250009","img/neutralC/CFD-MF-329-001-N.jpg","img/neutralC/CFD-MM-304-002-N.jpg","img/neutralC/CFD-LF-226-174-N.jpg","1","1","1","0","1","0","1.28901950002182","0.686128700035624","1.27391109999735","1","1","1","1","1","1","1","1","1"
"250009","img/neutralC/CFD-LF-226-174-N.jpg","img/neutralC/CFD-MF-329-001-N.jpg","img/neutralC/CFD-WF-012-002-N.jpg","1","1","1","0","0","1","1.27391109999735","1.28901950002182","0.904216399998404","1","1","1","1","1","1","1","1","1"
"250009","img/neutralC/CFD-WF-012-002-N.jpg","img/neutralC/CFD-LF-226-174-N.jpg","img/neutralC/CFD-IM-637-007-N.jpg","1","1","1","1","0","0","0.904216399998404","1.27391109999735","0.734553399961442","1","1","1","1","1","1","1","1","1"
"250009","img/neutralC/CFD-IM-637-007-N.jpg","img/neutralC/CFD-WF-012-002-N.jpg","img/neutralC/CFD-WF-008-002-N.jpg","1","1","1","0","1","1","0.734553399961442","0.904216399998404","0.682252699974924","1","1","1","1","1","1","1","1","1"
"250009","img/neutralC/CFD-WF-008-002-N.jpg","img/neutralC/CFD-IM-637-007-N.jpg","img/neutralC/CFD-AM-236-090-N.jpg","1","1","1","1","0","1","0.682252699974924","0.734553399961442","0.7632750000339","1","1","1","1","1","1","1","1","1"
"250009","img/neutralC/CFD-AM-236-090-N.jpg","img/neutralC/CFD-WF-008-002-N.jpg","img/neutralC/CFD-LM-217-162-N.jpg","1","1","1","1","1","0","0.7632750000339","0.682252699974924","0.711919799912721","1","1","1","1","1","1","1","1","1"
"250009","img/neutralC/CFD-LM-217-162-N.jpg","img/neutralC/CFD-AM-236-090-N.jpg","img/neutralC/CFD-IF-619-197-N.jpg","1","1","1","0","1","0","0.711919799912721","0.7632750000339","0.846945800003596","1","1","1","1","1","1","1","1","1"
"250009","img/neutralC/CFD-IF-619-197-N.jpg","img/neutralC/CFD-LM-217-162-N.jpg","img/neutralC/CFD-WM-024-015-N.jpg","1","1","1","0","0","1","0.846945800003596","0.711919799912721","0.618236899957992","1","1","1","1","1","1","1","1","1"
"250009","img/neutralC/CFD-WM-024-015-N.jpg","img/neutralC/CFD-IF-619-197-N.jpg","img/neutralC/CFD-WF-212-050-N.jpg","1","1","1","1","0","0","0.618236899957992","0.846945800003596","0.745384000008926","1","1","1","1","1","1","1","1","1"
"250009","img/neutralC/CFD-WF-212-050-N.jpg","img/neutralC/CFD-WM-024-015-N.jpg","img/neutralC/CFD-IM-675-015-N.jpg","1","1","1","0","1","1","0.745384000008926","0.618236899957992","0.886687799938954","1","1","1","1","1","1","1","1","1"
"250009","img/neutralC/CFD-IM-675-015-N.jpg","img/neutralC/CFD-WF-212-050-N.jpg","img/neutralC/CFD-BF-043-003-N.jpg","1","1","1","1","0","0","0.886687799938954","0.745384000008926","0.808399800094776","1","1","1","1","1","1","1","1","1"
"250009","img/neutralC/CFD-BF-043-003-N.jpg","img/neutralC/CFD-IM-675-015-N.jpg","img/neutralC/CFD-AF-254-167-N.jpg","1","1","1","0","1","1","0.808399800094776","0.886687799938954","0.616385399946012","1","1","1","1","1","1","1","1","1"
"250009","img/neutralC/CFD-AF-254-167-N.jpg","img/neutralC/CFD-BF-043-003-N.jpg","img/neutralC/CFD-BM-039-029-N.jpg","1","1","1","1","0","1","0.616385399946012","0.808399800094776","0.88314419996459","1","1","1","1","1","1","1","1","1"
"250009","img/neutralC/CFD-BM-039-029-N.jpg","img/neutralC/CFD-AF-254-167-N.jpg","img/neutralC/CFD-BF-051-035-N.jpg","1","1","0","1","1","0","0.88314419996459","0.616385399946012","1.01438190008048","1","1","1","1","1","1","1","1","1"
"250009","img/neutralC/CFD-BF-051-035-N.jpg","img/neutralC/CFD-BM-039-029-N.jpg","img/neutralC/CFD-LF-201-035-N.jpg","0","1","1","0","1","1","1.01438190008048","0.88314419996459","0.971628000028431","1","1","1","1","1","1","1","1","1"
"250009","img/neutralC/CFD-LF-201-035-N.jpg","img/neutralC/CFD-BF-051-035-N.jpg","img/neutralC/CFD-WF-217-085-N.jpg","1","0","1","1","0","1","0.971628000028431","1.01438190008048","0.83163099992089","1","1","1","1","1","1","1","1","1"
"250009","img/neutralC/CFD-WF-217-085-N.jpg","img/neutralC/CFD-LF-201-035-N.jpg","img/neutralC/CFD-BF-224-002-N.jpg","1","1","1","1","1","1","0.83163099992089","0.971628000028431","0.631260999944061","1","1","1","1","1","1","1","1","1"
"250009","img/neutralC/CFD-BF-224-002-N.jpg","img/neutralC/CFD-WF-217-085-N.jpg","img/neutralC/CFD-AF-229-160-N.jpg","1","1","1","1","1","0","0.631260999944061","0.83163099992089","0.574525899952278","1","1","1","1","1","1","1","1","1"
"250009","img/neutralC/CFD-AF-229-160-N.jpg","img/neutralC/CFD-BF-224-002-N.jpg","img/neutralC/CFD-MF-327-002-N.jpg","1","1","1","0","1","0","0.574525899952278","0.631260999944061","0.643155400059186","1","1","1","1","1","1","1","1","1"
"250009","img/neutralC/CFD-MF-327-002-N.jpg","img/neutralC/CFD-AF-229-160-N.jpg",NA,"1","1",NA,"0","0",NA,"0.643155400059186","0.574525899952278",NA,"1","1",NA,"1","1",NA,"1","1",NA
"250009","img/neutralC/CFD-BF-205-141-N.jpg",NA,"img/neutralC/CFD-BM-033-003-N.jpg","0",NA,"1","0",NA,"0","1.03325300000142",NA,"0.638657800038345","1",NA,"1","1",NA,"1","1",NA,"1"
"250009","img/neutralC/CFD-BM-033-003-N.jpg","img/neutralC/CFD-BF-205-141-N.jpg","img/neutralC/CFD-LF-230-203-N.jpg","1","0","1","0","0","0","0.638657800038345","1.03325300000142","0.588135599973612","1","1","1","1","1","1","1","1","1"
"250009","img/neutralC/CFD-LF-230-203-N.jpg","img/neutralC/CFD-BM-033-003-N.jpg","img/neutralC/CFD-MF-337-026-N.jpg","1","1","1","0","0","1","0.588135599973612","0.638657800038345","0.575056100031361","1","1","1","1","1","1","1","1","1"
"250009","img/neutralC/CFD-MF-337-026-N.jpg","img/neutralC/CFD-LF-230-203-N.jpg","img/neutralC/CFD-WM-011-002-N.jpg","1","1","1","1","0","0","0.575056100031361","0.588135599973612","0.554409799980931","1","1","1","1","1","1","1","1","1"
"250009","img/neutralC/CFD-WM-011-002-N.jpg","img/neutralC/CFD-MF-337-026-N.jpg","img/neutralC/CFD-WF-224-099-N.jpg","1","1","1","0","1","0","0.554409799980931","0.575056100031361","0.684639299986884","1","1","1","1","1","1","1","1","1"
"250009","img/neutralC/CFD-WF-224-099-N.jpg","img/neutralC/CFD-WM-011-002-N.jpg","img/neutralC/CFD-IM-684-008-N.jpg","1","1","1","0","0","1","0.684639299986884","0.554409799980931","0.631573199992999","1","1","1","1","1","1","1","1","1"
"250009","img/neutralC/CFD-IM-684-008-N.jpg","img/neutralC/CFD-WF-224-099-N.jpg","img/neutralC/CFD-LM-218-183-N.jpg","1","1","1","1","0","1","0.631573199992999","0.684639299986884","0.533609199919738","1","1","1","1","1","1","1","1","1"
"250009","img/neutralC/CFD-LM-218-183-N.jpg","img/neutralC/CFD-IM-684-008-N.jpg","img/neutralC/CFD-IF-634-382-N.jpg","1","1","1","1","1","1","0.533609199919738","0.631573199992999","0.802871000021696","1","1","1","1","1","1","1","1","1"
"250009","img/neutralC/CFD-IF-634-382-N.jpg","img/neutralC/CFD-LM-218-183-N.jpg","img/neutralC/CFD-IF-710-016-N.jpg","1","1","1","1","1","0","0.802871000021696","0.533609199919738","0.894658999983221","1","1","1","1","1","1","1","1","1"
"250009","img/neutralC/CFD-IF-710-016-N.jpg","img/neutralC/CFD-IF-634-382-N.jpg","img/neutralC/CFD-AM-212-050-N.jpg","1","1","1","0","1","1","0.894658999983221","0.802871000021696","0.687339599942788","1","1","1","1","1","1","1","1","1"
"250009","img/neutralC/CFD-AM-212-050-N.jpg","img/neutralC/CFD-IF-710-016-N.jpg","img/neutralC/CFD-LM-215-247-N.jpg","1","1","1","1","0","0","0.687339599942788","0.894658999983221","0.914258499979042","1","1","1","1","1","1","1","1","1"
"250009","img/neutralC/CFD-LM-215-247-N.jpg","img/neutralC/CFD-AM-212-050-N.jpg","img/neutralC/CFD-BM-041-035-N.jpg","1","1","1","0","1","0","0.914258499979042","0.687339599942788","0.809015700011514","1","1","1","1","1","1","1","1","1"
"250009","img/neutralC/CFD-BM-041-035-N.jpg","img/neutralC/CFD-LM-215-247-N.jpg","img/neutralC/CFD-LF-224-176-N.jpg","1","1","1","0","0","0","0.809015700011514","0.914258499979042","0.77574780001305","1","1","1","1","1","1","1","1","1"
"250009","img/neutralC/CFD-LF-224-176-N.jpg","img/neutralC/CFD-BM-041-035-N.jpg","img/neutralC/CFD-LF-214-090-N.jpg","1","1","1","0","0","0","0.77574780001305","0.809015700011514","0.649789100047201","1","1","1","1","1","1","1","1","1"
"250009","img/neutralC/CFD-LF-214-090-N.jpg","img/neutralC/CFD-LF-224-176-N.jpg","img/neutralC/CFD-BM-239-136-N.jpg","1","1","1","0","0","1","0.649789100047201","0.77574780001305","0.716414600028656","1","1","1","1","1","1","1","1","1"
"250009","img/neutralC/CFD-BM-239-136-N.jpg","img/neutralC/CFD-LF-214-090-N.jpg","img/neutralC/CFD-IF-693-172-N.jpg","1","1","1","1","0","0","0.716414600028656","0.649789100047201","0.59640749997925","1","1","1","1","1","1","1","1","1"
"250009","img/neutralC/CFD-IF-693-172-N.jpg","img/neutralC/CFD-BM-239-136-N.jpg","img/neutralC/CFD-BF-039-031-N.jpg","1","1","1","0","1","1","0.59640749997925","0.716414600028656","0.58599349996075","1","1","1","1","1","1","1","1","1"
"250009","img/neutralC/CFD-BF-039-031-N.jpg","img/neutralC/CFD-IF-693-172-N.jpg","img/neutralC/CFD-WF-250-167-N.jpg","1","1","1","1","0","1","0.58599349996075","0.59640749997925","0.592494599986821","1","1","1","1","1","1","1","1","1"
"250009","img/neutralC/CFD-WF-250-167-N.jpg","img/neutralC/CFD-BF-039-031-N.jpg","img/neutralC/CFD-BM-019-002-N.jpg","1","1","1","1","1","0","0.592494599986821","0.58599349996075","0.824725899961777","1","1","1","1","1","1","1","1","1"
"250009","img/neutralC/CFD-BM-019-002-N.jpg","img/neutralC/CFD-WF-250-167-N.jpg","img/neutralC/CFD-WM-021-001-N.jpg","1","1","1","0","1","1","0.824725899961777","0.592494599986821","0.627451799926348","1","1","1","1","1","1","1","1","1"
"250009","img/neutralC/CFD-WM-021-001-N.jpg","img/neutralC/CFD-BM-019-002-N.jpg","img/neutralC/CFD-AF-231-357-N.jpg","1","1","1","1","0","1","0.627451799926348","0.824725899961777","0.671168400091119","1","1","1","1","1","1","1","1","1"
"250009","img/neutralC/CFD-AF-231-357-N.jpg","img/neutralC/CFD-WM-021-001-N.jpg","img/neutralC/CFD-LF-203-066-N.jpg","1","1","1","1","1","0","0.671168400091119","0.627451799926348","0.69758650008589","1","1","1","1","1","1","1","1","1"
"250009","img/neutralC/CFD-LF-203-066-N.jpg","img/neutralC/CFD-AF-231-357-N.jpg","img/neutralC/CFD-AM-201-076-N.jpg","1","1","1","0","1","1","0.69758650008589","0.671168400091119","0.873564100009389","1","1","1","1","1","1","1","1","1"
"250009","img/neutralC/CFD-AM-201-076-N.jpg","img/neutralC/CFD-LF-203-066-N.jpg","img/neutralC/CFD-WF-213-031-N.jpg","1","1","1","1","0","1","0.873564100009389","0.69758650008589","0.678967399988323","1","1","1","1","1","1","1","1","1"
"250009","img/neutralC/CFD-WF-213-031-N.jpg","img/neutralC/CFD-AM-201-076-N.jpg","img/neutralC/CFD-BF-253-202-N.jpg","1","1","1","1","1","0","0.678967399988323","0.873564100009389","0.743402799940668","1","1","1","1","1","1","1","1","1"
"250009","img/neutralC/CFD-BF-253-202-N.jpg","img/neutralC/CFD-WF-213-031-N.jpg","img/neutralC/CFD-BF-029-031-N.jpg","1","1","1","0","1","1","0.743402799940668","0.678967399988323","0.618110500043258","1","1","1","1","1","1","1","1","1"
"250009","img/neutralC/CFD-BF-029-031-N.jpg","img/neutralC/CFD-BF-253-202-N.jpg","img/neutralC/CFD-WM-041-021-N.jpg","1","1","1","1","0","0","0.618110500043258","0.743402799940668","0.711193399969488","1","1","1","1","1","1","1","1","1"
"250009","img/neutralC/CFD-WM-041-021-N.jpg","img/neutralC/CFD-BF-029-031-N.jpg","img/neutralC/CFD-BF-213-188-N.jpg","1","1","1","0","1","1","0.711193399969488","0.618110500043258","0.744773299898952","1","1","1","1","1","1","1","1","1"
"250009","img/neutralC/CFD-BF-213-188-N.jpg","img/neutralC/CFD-WM-041-021-N.jpg","img/neutralC/CFD-IM-651-308-N.jpg","1","1","1","1","0","0","0.744773299898952","0.711193399969488","0.855774700059555","1","1","1","1","1","1","1","1","1"
"250009","img/neutralC/CFD-IM-651-308-N.jpg","img/neutralC/CFD-BF-213-188-N.jpg","img/neutralC/CFD-MM-316-156-N.jpg","1","1","1","0","1","1","0.855774700059555","0.744773299898952","0.903606200008653","1","1","1","1","1","1","1","1","1"
"250009","img/neutralC/CFD-MM-316-156-N.jpg","img/neutralC/CFD-IM-651-308-N.jpg","img/neutralC/CFD-LF-205-100-N.jpg","1","1","1","1","0","1","0.903606200008653","0.855774700059555","0.644465000019409","1","1","1","1","1","1","1","1","1"
"250009","img/neutralC/CFD-LF-205-100-N.jpg","img/neutralC/CFD-MM-316-156-N.jpg",NA,"1","1",NA,"1","1",NA,"0.644465000019409","0.903606200008653",NA,"1","1",NA,"1","1",NA,"1","1",NA
"250009","img/neutralC/CFD-IM-669-111-N.jpg",NA,"img/neutralC/CFD-WF-235-121-N.jpg","1",NA,"1","1",NA,"0","1.02114769991022",NA,"0.672918099910021","1",NA,"1","1",NA,"1","1",NA,"1"
"250009","img/neutralC/CFD-WF-235-121-N.jpg","img/neutralC/CFD-IM-669-111-N.jpg","img/neutralC/CFD-LF-239-148-N.jpg","1","1","1","0","1","0","0.672918099910021","1.02114769991022","0.610748099978082","1","1","1","1","1","1","1","1","1"
"250009","img/neutralC/CFD-LF-239-148-N.jpg","img/neutralC/CFD-WF-235-121-N.jpg","img/neutralC/CFD-AF-250-200-N.jpg","1","1","1","0","0","1","0.610748099978082","0.672918099910021","0.861981700058095","1","1","1","1","1","1","1","1","1"
"250009","img/neutralC/CFD-AF-250-200-N.jpg","img/neutralC/CFD-LF-239-148-N.jpg","img/neutralC/CFD-AF-213-126-N.jpg","1","1","1","1","0","1","0.861981700058095","0.610748099978082","0.681276999996044","1","1","1","1","1","1","1","1","1"
"250009","img/neutralC/CFD-AF-213-126-N.jpg","img/neutralC/CFD-AF-250-200-N.jpg","img/neutralC/CFD-AM-225-102-N.jpg","1","1","1","1","1","0","0.681276999996044","0.861981700058095","0.537399900029413","1","1","1","1","1","1","1","1","1"
"250009","img/neutralC/CFD-AM-225-102-N.jpg","img/neutralC/CFD-AF-213-126-N.jpg","img/neutralC/CFD-AF-244-168-N.jpg","1","1","1","0","1","0","0.537399900029413","0.681276999996044","0.608720500022173","1","1","1","1","1","1","1","1","1"
"250009","img/neutralC/CFD-AF-244-168-N.jpg","img/neutralC/CFD-AM-225-102-N.jpg","img/neutralC/CFD-BF-040-003-N.jpg","1","1","1","0","0","1","0.608720500022173","0.537399900029413","0.513999399961904","1","1","1","1","1","1","1","1","1"
"250009","img/neutralC/CFD-BF-040-003-N.jpg","img/neutralC/CFD-AF-244-168-N.jpg","img/neutralC/CFD-IM-632-097-N.jpg","1","1","1","1","0","0","0.513999399961904","0.608720500022173","0.674082600045949","1","1","1","1","1","1","1","1","1"
"250009","img/neutralC/CFD-IM-632-097-N.jpg","img/neutralC/CFD-BF-040-003-N.jpg","img/neutralC/CFD-AM-233-236-N.jpg","1","1","1","0","1","1","0.674082600045949","0.513999399961904","0.746934299939312","1","1","1","1","1","1","1","1","1"
"250009","img/neutralC/CFD-AM-233-236-N.jpg","img/neutralC/CFD-IM-632-097-N.jpg","img/neutralC/CFD-AF-246-242-N.jpg","1","1","1","1","0","0","0.746934299939312","0.674082600045949","0.813230500090867","1","1","1","1","1","1","1","1","1"
"250009","img/neutralC/CFD-AF-246-242-N.jpg","img/neutralC/CFD-AM-233-236-N.jpg","img/neutralC/CFD-IF-732-260-N.jpg","1","1","1","0","1","0","0.813230500090867","0.746934299939312","0.715454900055192","1","1","1","1","1","1","1","1","1"
"250009","img/neutralC/CFD-IF-732-260-N.jpg","img/neutralC/CFD-AF-246-242-N.jpg","img/neutralC/CFD-IM-678-482-N.jpg","1","1","1","0","0","0","0.715454900055192","0.813230500090867","0.810585700091906","1","1","1","1","1","1","1","1","1"
"250009","img/neutralC/CFD-IM-678-482-N.jpg","img/neutralC/CFD-IF-732-260-N.jpg","img/neutralC/CFD-MF-302-027-N.jpg","1","1","1","0","0","0","0.810585700091906","0.715454900055192","0.962090199929662","1","1","1","1","1","1","1","1","1"
"250009","img/neutralC/CFD-MF-302-027-N.jpg","img/neutralC/CFD-IM-678-482-N.jpg","img/neutralC/CFD-IM-635-010-N.jpg","1","1","1","0","0","1","0.962090199929662","0.810585700091906","0.615921299904585","1","1","1","1","1","1","1","1","1"
"250009","img/neutralC/CFD-IM-635-010-N.jpg","img/neutralC/CFD-MF-302-027-N.jpg","img/neutralC/CFD-BF-020-002-N.jpg","1","1","1","1","0","1","0.615921299904585","0.962090199929662","0.756418200093322","1","1","1","1","1","1","1","1","1"
"250009","img/neutralC/CFD-BF-020-002-N.jpg","img/neutralC/CFD-IM-635-010-N.jpg","img/neutralC/CFD-BF-206-143-N.jpg","1","1","1","1","1","1","0.756418200093322","0.615921299904585","1.00463079998735","1","1","1","1","1","1","1","1","1"
"250009","img/neutralC/CFD-BF-206-143-N.jpg","img/neutralC/CFD-BF-020-002-N.jpg","img/neutralC/CFD-BF-217-189-N.jpg","1","1","1","1","1","0","1.00463079998735","0.756418200093322","0.97236450004857","1","1","1","1","1","1","1","1","1"
"250009","img/neutralC/CFD-BF-217-189-N.jpg","img/neutralC/CFD-BF-206-143-N.jpg","img/neutralC/CFD-LM-241-125-N.jpg","1","1","1","0","1","1","0.97236450004857","1.00463079998735","0.964547699899413","1","1","1","1","1","1","1","1","1"
"250009","img/neutralC/CFD-LM-241-125-N.jpg","img/neutralC/CFD-BF-217-189-N.jpg","img/neutralC/CFD-IF-636-011-N.jpg","1","1","1","1","0","1","0.964547699899413","0.97236450004857","0.848896599956788","1","1","1","1","1","1","1","1","1"
"250009","img/neutralC/CFD-IF-636-011-N.jpg","img/neutralC/CFD-LM-241-125-N.jpg","img/neutralC/CFD-MF-307-002-N.jpg","1","1","1","1","1","1","0.848896599956788","0.964547699899413","0.686487799976021","1","1","1","1","1","1","1","1","1"
"250009","img/neutralC/CFD-MF-307-002-N.jpg","img/neutralC/CFD-IF-636-011-N.jpg","img/neutralC/CFD-BF-042-026-N.jpg","1","1","1","1","1","1","0.686487799976021","0.848896599956788","0.619017099961638","1","1","1","1","1","1","1","1","1"
"250009","img/neutralC/CFD-BF-042-026-N.jpg","img/neutralC/CFD-MF-307-002-N.jpg","img/neutralC/CFD-AF-234-208-N.jpg","1","1","1","1","1","1","0.619017099961638","0.686487799976021","0.697988100000657","1","1","1","1","1","1","1","1","1"
"250009","img/neutralC/CFD-AF-234-208-N.jpg","img/neutralC/CFD-BF-042-026-N.jpg","img/neutralC/CFD-WF-210-086-N.jpg","1","1","1","1","1","0","0.697988100000657","0.619017099961638","0.927769199945033","1","1","1","1","1","1","1","1","1"
"250009","img/neutralC/CFD-WF-210-086-N.jpg","img/neutralC/CFD-AF-234-208-N.jpg","img/neutralC/CFD-LM-204-001-N.jpg","1","1","1","0","1","0","0.927769199945033","0.697988100000657","0.630725399940275","1","1","1","1","1","1","1","1","1"
"250009","img/neutralC/CFD-LM-204-001-N.jpg","img/neutralC/CFD-WF-210-086-N.jpg","img/neutralC/CFD-WM-253-119-N.jpg","1","1","1","0","0","1","0.630725399940275","0.927769199945033","1.02409850002732","1","1","1","1","1","1","1","1","1"
"250009","img/neutralC/CFD-WM-253-119-N.jpg","img/neutralC/CFD-LM-204-001-N.jpg","img/neutralC/CFD-AM-245-111-N.jpg","1","1","1","1","0","1","1.02409850002732","0.630725399940275","0.990034500020556","1","1","1","1","1","1","1","1","1"
"250009","img/neutralC/CFD-AM-245-111-N.jpg","img/neutralC/CFD-WM-253-119-N.jpg","img/neutralC/CFD-BF-235-168-N.jpg","1","1","1","1","1","1","0.990034500020556","1.02409850002732","0.98088419996202","1","1","1","1","1","1","1","1","1"
"250009","img/neutralC/CFD-BF-235-168-N.jpg","img/neutralC/CFD-AM-245-111-N.jpg","img/neutralC/CFD-BM-215-155-N.jpg","1","1","1","1","1","0","0.98088419996202","0.990034500020556","0.753499099984765","1","1","1","1","1","1","1","1","1"
"250009","img/neutralC/CFD-BM-215-155-N.jpg","img/neutralC/CFD-BF-235-168-N.jpg","img/neutralC/CFD-BM-004-002-N.jpg","1","1","1","0","1","0","0.753499099984765","0.98088419996202","1.76611949992366","1","1","1","1","1","1","1","1","1"
"250009","img/neutralC/CFD-BM-004-002-N.jpg","img/neutralC/CFD-BM-215-155-N.jpg","img/neutralC/CFD-AF-205-155-N.jpg","1","1","1","0","0","0","1.76611949992366","0.753499099984765","0.899607299943455","1","1","1","1","1","1","1","1","1"
"250009","img/neutralC/CFD-AF-205-155-N.jpg","img/neutralC/CFD-BM-004-002-N.jpg","img/neutralC/CFD-WM-018-002-N.jpg","1","1","1","0","0","0","0.899607299943455","1.76611949992366","0.906219299999066","1","1","1","1","1","1","1","1","1"
"250009","img/neutralC/CFD-WM-018-002-N.jpg","img/neutralC/CFD-AF-205-155-N.jpg",NA,"1","1",NA,"0","0",NA,"0.906219299999066","0.899607299943455",NA,"1","1",NA,"1","1",NA,"1","1",NA
"250009","img/neutralC/CFD-LF-225-164-N.jpg",NA,"img/neutralC/CFD-IM-659-359-N.jpg","1",NA,"0","1",NA,"0","1.01694709993899",NA,"1.00554540008307","1",NA,"1","1",NA,"1","1",NA,"1"
"250009","img/neutralC/CFD-IM-659-359-N.jpg","img/neutralC/CFD-LF-225-164-N.jpg","img/neutralC/CFD-LM-238-129-N.jpg","0","1","1","0","1","1","1.00554540008307","1.01694709993899","0.760005800053477","1","1","1","1","1","1","1","1","1"
"250009","img/neutralC/CFD-LM-238-129-N.jpg","img/neutralC/CFD-IM-659-359-N.jpg","img/neutralC/CFD-WF-033-002-N.jpg","1","0","1","1","0","1","0.760005800053477","1.00554540008307","0.63771360006649","1","1","1","1","1","1","1","1","1"
"250009","img/neutralC/CFD-WF-033-002-N.jpg","img/neutralC/CFD-LM-238-129-N.jpg","img/neutralC/CFD-BM-013-002-N.jpg","1","1","1","1","1","1","0.63771360006649","0.760005800053477","0.613035300048068","1","1","1","1","1","1","1","1","1"
"250009","img/neutralC/CFD-BM-013-002-N.jpg","img/neutralC/CFD-WF-033-002-N.jpg","img/neutralC/CFD-WM-254-152-N.jpg","1","1","1","1","1","1","0.613035300048068","0.63771360006649","0.84418320003897","1","1","1","1","1","1","1","1","1"
"250009","img/neutralC/CFD-WM-254-152-N.jpg","img/neutralC/CFD-BM-013-002-N.jpg","img/neutralC/CFD-MF-312-002-N.jpg","1","1","1","1","1","1","0.84418320003897","0.613035300048068","0.612954100011848","1","1","1","1","1","1","1","1","1"
"250009","img/neutralC/CFD-MF-312-002-N.jpg","img/neutralC/CFD-WM-254-152-N.jpg","img/neutralC/CFD-IF-673-389-N.jpg","1","1","1","1","1","0","0.612954100011848","0.84418320003897","1.19538499996997","1","1","1","1","1","1","1","1","1"
"250009","img/neutralC/CFD-IF-673-389-N.jpg","img/neutralC/CFD-MF-312-002-N.jpg","img/neutralC/CFD-AM-221-184-N.jpg","1","1","1","0","1","1","1.19538499996997","0.612954100011848","0.681026399950497","1","1","1","1","1","1","1","1","1"
"250009","img/neutralC/CFD-AM-221-184-N.jpg","img/neutralC/CFD-IF-673-389-N.jpg","img/neutralC/CFD-IM-738-191-N.jpg","1","1","1","1","0","0","0.681026399950497","1.19538499996997","1.05221699993126","1","1","1","1","1","1","1","1","1"
"250009","img/neutralC/CFD-IM-738-191-N.jpg","img/neutralC/CFD-AM-221-184-N.jpg","img/neutralC/CFD-BM-003-003-N.jpg","1","1","0","0","1","0","1.05221699993126","0.681026399950497","0.63467329996638","1","1","1","1","1","1","1","1","1"
"250009","img/neutralC/CFD-BM-003-003-N.jpg","img/neutralC/CFD-IM-738-191-N.jpg","img/neutralC/CFD-LF-241-188-N.jpg","0","1","1","0","0","0","0.63467329996638","1.05221699993126","1.28351089998614","1","1","1","1","1","1","1","1","1"
"250009","img/neutralC/CFD-LF-241-188-N.jpg","img/neutralC/CFD-BM-003-003-N.jpg","img/neutralC/CFD-LF-208-127-N.jpg","1","0","1","0","0","0","1.28351089998614","0.63467329996638","0.759597400086932","1","1","1","1","1","1","1","1","1"
"250009","img/neutralC/CFD-LF-208-127-N.jpg","img/neutralC/CFD-LF-241-188-N.jpg","img/neutralC/CFD-WF-223-133-N.jpg","1","1","1","0","0","0","0.759597400086932","1.28351089998614","0.767779399990104","1","1","1","1","1","1","1","1","1"
"250009","img/neutralC/CFD-WF-223-133-N.jpg","img/neutralC/CFD-LF-208-127-N.jpg","img/neutralC/CFD-LM-247-095-N.jpg","1","1","1","0","0","0","0.767779399990104","0.759597400086932","0.501312499982305","1","1","1","1","1","1","1","1","1"
"250009","img/neutralC/CFD-LM-247-095-N.jpg","img/neutralC/CFD-WF-223-133-N.jpg","img/neutralC/CFD-BM-010-003-N.jpg","1","1","1","0","0","0","0.501312499982305","0.767779399990104","0.789769599912688","1","1","1","1","1","1","1","1","1"
"250009","img/neutralC/CFD-BM-010-003-N.jpg","img/neutralC/CFD-LM-247-095-N.jpg","img/neutralC/CFD-BF-004-014-N.jpg","1","1","1","0","0","1","0.789769599912688","0.501312499982305","0.97391920001246","1","1","1","1","1","1","1","1","1"
"250009","img/neutralC/CFD-BF-004-014-N.jpg","img/neutralC/CFD-BM-010-003-N.jpg","img/neutralC/CFD-WM-202-107-N.jpg","1","1","1","1","0","1","0.97391920001246","0.789769599912688","0.645035999943502","1","1","1","1","1","1","1","1","1"
"250009","img/neutralC/CFD-WM-202-107-N.jpg","img/neutralC/CFD-BF-004-014-N.jpg","img/neutralC/CFD-WM-228-065-N.jpg","1","1","1","1","1","0","0.645035999943502","0.97391920001246","0.720820400048979","1","1","1","1","1","1","1","1","1"
"250009","img/neutralC/CFD-WM-228-065-N.jpg","img/neutralC/CFD-WM-202-107-N.jpg","img/neutralC/CFD-IF-744-114-N.jpg","1","1","1","0","1","0","0.720820400048979","0.645035999943502","0.695544600021094","1","1","1","1","1","1","1","1","1"
"250009","img/neutralC/CFD-IF-744-114-N.jpg","img/neutralC/CFD-WM-228-065-N.jpg","img/neutralC/CFD-MF-336-016-N.jpg","1","1","1","0","0","1","0.695544600021094","0.720820400048979","0.785273400018923","1","1","1","1","1","1","1","1","1"
"250009","img/neutralC/CFD-MF-336-016-N.jpg","img/neutralC/CFD-IF-744-114-N.jpg","img/neutralC/CFD-AF-239-171-N.jpg","1","1","1","1","0","1","0.785273400018923","0.695544600021094","0.771298300009221","1","1","1","1","1","1","1","1","1"
"250009","img/neutralC/CFD-AF-239-171-N.jpg","img/neutralC/CFD-MF-336-016-N.jpg","img/neutralC/CFD-BF-222-240-N.jpg","1","1","1","1","1","0","0.771298300009221","0.785273400018923","0.635964900022373","1","1","1","1","1","1","1","1","1"
"250009","img/neutralC/CFD-BF-222-240-N.jpg","img/neutralC/CFD-AF-239-171-N.jpg","img/neutralC/CFD-AF-227-207-N.jpg","1","1","1","0","1","1","0.635964900022373","0.771298300009221","0.637756600044668","1","1","1","1","1","1","1","1","1"
"250009","img/neutralC/CFD-AF-227-207-N.jpg","img/neutralC/CFD-BF-222-240-N.jpg","img/neutralC/CFD-BM-028-002-N.jpg","1","1","1","1","0","1","0.637756600044668","0.635964900022373","1.01534839998931","1","1","1","1","1","1","1","1","1"
"250009","img/neutralC/CFD-BM-028-002-N.jpg","img/neutralC/CFD-AF-227-207-N.jpg","img/neutralC/CFD-IF-625-225-N.jpg","1","1","1","1","1","0","1.01534839998931","0.637756600044668","0.980149399954826","1","1","1","1","1","1","1","1","1"
"250009","img/neutralC/CFD-IF-625-225-N.jpg","img/neutralC/CFD-BM-028-002-N.jpg","img/neutralC/CFD-WF-006-002-N.jpg","1","1","1","0","1","0","0.980149399954826","1.01534839998931","0.778925199992955","1","1","1","1","1","1","1","1","1"
"250009","img/neutralC/CFD-WF-006-002-N.jpg","img/neutralC/CFD-IF-625-225-N.jpg","img/neutralC/CFD-BM-213-134-N.jpg","1","1","1","0","0","1","0.778925199992955","0.980149399954826","0.88715870003216","1","1","1","1","1","1","1","1","1"
"250009","img/neutralC/CFD-BM-213-134-N.jpg","img/neutralC/CFD-WF-006-002-N.jpg","img/neutralC/CFD-LF-210-220-N.jpg","1","1","1","1","0","1","0.88715870003216","0.778925199992955","0.644001599983312","1","1","1","1","1","1","1","1","1"
"250009","img/neutralC/CFD-LF-210-220-N.jpg","img/neutralC/CFD-BM-213-134-N.jpg","img/neutralC/CFD-BF-045-003-N.jpg","1","1","0","1","1","0","0.644001599983312","0.88715870003216","1.00933350005653","1","1","1","1","1","1","1","1","1"
"250009","img/neutralC/CFD-BF-045-003-N.jpg","img/neutralC/CFD-LF-210-220-N.jpg","img/neutralC/CFD-IM-701-312-N.jpg","0","1","1","0","1","0","1.00933350005653","0.644001599983312","0.849904800066724","1","1","1","1","1","1","1","1","1"
"250009","img/neutralC/CFD-IM-701-312-N.jpg","img/neutralC/CFD-BF-045-003-N.jpg","img/neutralC/CFD-AF-210-050-N.jpg","1","0","1","0","0","1","0.849904800066724","1.00933350005653","0.68022470001597","1","1","1","1","1","1","1","1","1"
"250009","img/neutralC/CFD-AF-210-050-N.jpg","img/neutralC/CFD-IM-701-312-N.jpg",NA,"1","1",NA,"1","0",NA,"0.68022470001597","0.849904800066724",NA,"1","1",NA,"1","1",NA,"1","1",NA
"250009","img/neutralC/CFD-WM-025-002-N.jpg",NA,"img/neutralC/CFD-IM-689-263-N.jpg","1",NA,"1","0",NA,"1","1.98661759996321",NA,"0.860584800015204","1",NA,"1","1",NA,"1","1",NA,"1"
"250009","img/neutralC/CFD-IM-689-263-N.jpg","img/neutralC/CFD-WM-025-002-N.jpg","img/neutralC/CFD-AM-205-153-N.jpg","1","1","1","1","0","1","0.860584800015204","1.98661759996321","0.681953100021929","1","1","1","1","1","1","1","1","1"
"250009","img/neutralC/CFD-AM-205-153-N.jpg","img/neutralC/CFD-IM-689-263-N.jpg","img/neutralC/CFD-BM-043-071-N.jpg","1","1","1","1","1","0","0.681953100021929","0.860584800015204","0.703624499961734","1","1","1","1","1","1","1","1","1"
"250009","img/neutralC/CFD-BM-043-071-N.jpg","img/neutralC/CFD-AM-205-153-N.jpg","img/neutralC/CFD-AF-237-223-N.jpg","1","1","1","0","1","0","0.703624499961734","0.681953100021929","0.846523700049147","1","1","1","1","1","1","1","1","1"
"250009","img/neutralC/CFD-AF-237-223-N.jpg","img/neutralC/CFD-BM-043-071-N.jpg","img/neutralC/CFD-MM-306-010-N.jpg","1","1","1","0","0","0","0.846523700049147","0.703624499961734","1.09601199999452","1","1","1","1","1","1","1","1","1"
"250009","img/neutralC/CFD-MM-306-010-N.jpg","img/neutralC/CFD-AF-237-223-N.jpg","img/neutralC/CFD-BM-009-002-N.jpg","1","1","1","0","0","1","1.09601199999452","0.846523700049147","0.944433699944057","1","1","1","1","1","1","1","1","1"
"250009","img/neutralC/CFD-BM-009-002-N.jpg","img/neutralC/CFD-MM-306-010-N.jpg","img/neutralC/CFD-IM-606-008-N.jpg","1","1","1","1","0","0","0.944433699944057","1.09601199999452","0.813037600019015","1","1","1","1","1","1","1","1","1"
"250009","img/neutralC/CFD-IM-606-008-N.jpg","img/neutralC/CFD-BM-009-002-N.jpg","img/neutralC/CFD-IF-676-017-N.jpg","1","1","1","0","1","1","0.813037600019015","0.944433699944057","0.829351900028996","1","1","1","1","1","1","1","1","1"
"250009","img/neutralC/CFD-IF-676-017-N.jpg","img/neutralC/CFD-IM-606-008-N.jpg","img/neutralC/CFD-MF-328-020-N.jpg","1","1","1","1","0","0","0.829351900028996","0.813037600019015","0.671869999961928","1","1","1","1","1","1","1","1","1"
"250009","img/neutralC/CFD-MF-328-020-N.jpg","img/neutralC/CFD-IF-676-017-N.jpg","img/neutralC/CFD-IM-615-167-N.jpg","1","1","1","0","1","0","0.671869999961928","0.829351900028996","0.771425000042655","1","1","1","1","1","1","1","1","1"
"250009","img/neutralC/CFD-IM-615-167-N.jpg","img/neutralC/CFD-MF-328-020-N.jpg","img/neutralC/CFD-AM-219-101-N.jpg","1","1","1","0","0","0","0.771425000042655","0.671869999961928","0.781042699934915","1","1","1","1","1","1","1","1","1"
"250009","img/neutralC/CFD-AM-219-101-N.jpg","img/neutralC/CFD-IM-615-167-N.jpg","img/neutralC/CFD-WF-243-148-N.jpg","1","1","1","0","0","0","0.781042699934915","0.771425000042655","0.656419599894434","1","1","1","1","1","1","1","1","1"
"250009","img/neutralC/CFD-WF-243-148-N.jpg","img/neutralC/CFD-AM-219-101-N.jpg","img/neutralC/CFD-BM-227-191-N.jpg","1","1","1","0","0","1","0.656419599894434","0.781042699934915","0.893063199939206","1","1","1","1","1","1","1","1","1"
"250009","img/neutralC/CFD-BM-227-191-N.jpg","img/neutralC/CFD-WF-243-148-N.jpg","img/neutralC/CFD-BF-244-231-N.jpg","1","1","1","1","0","1","0.893063199939206","0.656419599894434","0.690397500060499","1","1","1","1","1","1","1","1","1"
"250009","img/neutralC/CFD-BF-244-231-N.jpg","img/neutralC/CFD-BM-227-191-N.jpg","img/neutralC/CFD-WF-009-001-N.jpg","1","1","1","1","1","1","0.690397500060499","0.893063199939206","1.3139824999962","1","1","1","1","1","1","1","1","1"
"250009","img/neutralC/CFD-WF-009-001-N.jpg","img/neutralC/CFD-BF-244-231-N.jpg","img/neutralC/CFD-WF-221-005-N.jpg","1","1","0","1","1","0","1.3139824999962","0.690397500060499","1.99301430000924","1","1","1","1","1","1","1","1","1"
"250009","img/neutralC/CFD-WF-221-005-N.jpg","img/neutralC/CFD-WF-009-001-N.jpg","img/neutralC/CFD-LF-238-154-N.jpg","0","1","1","0","1","1","1.99301430000924","1.3139824999962","0.691680999938399","1","1","1","1","1","1","1","1","1"
"250009","img/neutralC/CFD-LF-238-154-N.jpg","img/neutralC/CFD-WF-221-005-N.jpg","img/neutralC/CFD-WM-028-003-N.jpg","1","0","1","1","0","1","0.691680999938399","1.99301430000924","0.646488700062037","1","1","1","1","1","1","1","1","1"
"250009","img/neutralC/CFD-WM-028-003-N.jpg","img/neutralC/CFD-LF-238-154-N.jpg","img/neutralC/CFD-AM-243-212-N.jpg","1","1","1","1","1","1","0.646488700062037","0.691680999938399","0.61288929998409","1","1","1","1","1","1","1","1","1"
"250009","img/neutralC/CFD-AM-243-212-N.jpg","img/neutralC/CFD-WM-028-003-N.jpg","img/neutralC/CFD-WF-207-014-N.jpg","1","1","1","1","1","1","0.61288929998409","0.646488700062037","0.775427800021134","1","1","1","1","1","1","1","1","1"
"250009","img/neutralC/CFD-WF-207-014-N.jpg","img/neutralC/CFD-AM-243-212-N.jpg","img/neutralC/CFD-WM-023-001-N.jpg","1","1","1","1","1","0","0.775427800021134","0.61288929998409","1.03051840001717","1","1","1","1","1","1","1","1","1"
"250009","img/neutralC/CFD-WM-023-001-N.jpg","img/neutralC/CFD-WF-207-014-N.jpg","img/neutralC/CFD-BM-020-001-N.jpg","1","1","1","0","1","0","1.03051840001717","0.775427800021134","0.873122200020589","1","1","1","1","1","1","1","1","1"
"250009","img/neutralC/CFD-BM-020-001-N.jpg","img/neutralC/CFD-WM-023-001-N.jpg","img/neutralC/CFD-LF-222-147-N.jpg","1","1","1","0","0","0","0.873122200020589","1.03051840001717","1.09556629997678","1","1","1","1","1","1","1","1","1"
"250009","img/neutralC/CFD-LF-222-147-N.jpg","img/neutralC/CFD-BM-020-001-N.jpg","img/neutralC/CFD-BM-030-003-N.jpg","1","1","1","0","0","0","1.09556629997678","0.873122200020589","0.700938800000586","1","1","1","1","1","1","1","1","1"
"250009","img/neutralC/CFD-BM-030-003-N.jpg","img/neutralC/CFD-LF-222-147-N.jpg","img/neutralC/CFD-LF-212-066-N.jpg","1","1","1","0","0","1","0.700938800000586","1.09556629997678","0.542649000068195","1","1","1","1","1","1","1","1","1"
"250009","img/neutralC/CFD-LF-212-066-N.jpg","img/neutralC/CFD-BM-030-003-N.jpg","img/neutralC/CFD-WF-241-210-N.jpg","1","1","1","1","0","0","0.542649000068195","0.700938800000586","0.677895099972375","1","1","1","1","1","1","1","1","1"
"250009","img/neutralC/CFD-WF-241-210-N.jpg","img/neutralC/CFD-LF-212-066-N.jpg","img/neutralC/CFD-BM-021-021-N.jpg","1","1","1","0","1","1","0.677895099972375","0.542649000068195","0.616252699983306","1","1","1","1","1","1","1","1","1"
"250009","img/neutralC/CFD-BM-021-021-N.jpg","img/neutralC/CFD-WF-241-210-N.jpg","img/neutralC/CFD-AM-249-163-N.jpg","1","1","1","1","0","1","0.616252699983306","0.677895099972375","0.560758400009945","1","1","1","1","1","1","1","1","1"
"250009","img/neutralC/CFD-AM-249-163-N.jpg","img/neutralC/CFD-BM-021-021-N.jpg","img/neutralC/CFD-IM-697-015-N.jpg","1","1","1","1","1","1","0.560758400009945","0.616252699983306","0.612503899959847","1","1","1","1","1","1","1","1","1"
"250009","img/neutralC/CFD-IM-697-015-N.jpg","img/neutralC/CFD-AM-249-163-N.jpg","img/neutralC/CFD-BF-012-001-N.jpg","1","1","1","1","1","0","0.612503899959847","0.560758400009945","0.771629200084135","1","1","1","1","1","1","1","1","1"
"250009","img/neutralC/CFD-BF-012-001-N.jpg","img/neutralC/CFD-IM-697-015-N.jpg","img/neutralC/CFD-LM-240-013-N.jpg","1","1","1","0","1","1","0.771629200084135","0.612503899959847","0.513821600005031","1","1","1","1","1","1","1","1","1"
"250009","img/neutralC/CFD-LM-240-013-N.jpg","img/neutralC/CFD-BF-012-001-N.jpg",NA,"1","1",NA,"1","0",NA,"0.513821600005031","0.771629200084135",NA,"1","1",NA,"1","1",NA,"1","1",NA
"250009","img/neutralC/CFD-AF-221-147-N.jpg",NA,"img/neutralC/CFD-AM-244-222-N.jpg","0",NA,"1","0",NA,"0","1.24867490003817",NA,"1.49176899995655","1",NA,"1","1",NA,"1","1",NA,"1"
"250009","img/neutralC/CFD-AM-244-222-N.jpg","img/neutralC/CFD-AF-221-147-N.jpg","img/neutralC/CFD-LF-211-003-N.jpg","1","0","1","0","0","0","1.49176899995655","1.24867490003817","0.820493600098416","1","1","1","1","1","1","1","1","1"
"250009","img/neutralC/CFD-LF-211-003-N.jpg","img/neutralC/CFD-AM-244-222-N.jpg","img/neutralC/CFD-MF-321-003-N.jpg","1","1","1","0","0","0","0.820493600098416","1.49176899995655","0.602287499932572","1","1","1","1","1","1","1","1","1"
"250009","img/neutralC/CFD-MF-321-003-N.jpg","img/neutralC/CFD-LF-211-003-N.jpg","img/neutralC/CFD-BF-018-039-N.jpg","1","1","1","0","0","1","0.602287499932572","0.820493600098416","1.09877479996067","1","1","1","1","1","1","1","1","1"
"250009","img/neutralC/CFD-BF-018-039-N.jpg","img/neutralC/CFD-MF-321-003-N.jpg","img/neutralC/CFD-WF-238-023-N.jpg","1","1","1","1","0","0","1.09877479996067","0.602287499932572","0.661813199985772","1","1","1","1","1","1","1","1","1"
"250009","img/neutralC/CFD-WF-238-023-N.jpg","img/neutralC/CFD-BF-018-039-N.jpg","img/neutralC/CFD-MF-318-022-N.jpg","1","1","1","0","1","1","0.661813199985772","1.09877479996067","0.730420300038531","1","1","1","1","1","1","1","1","1"
"250009","img/neutralC/CFD-MF-318-022-N.jpg","img/neutralC/CFD-WF-238-023-N.jpg","img/neutralC/CFD-WM-009-002-N.jpg","1","1","1","1","0","0","0.730420300038531","0.661813199985772","0.496491799945943","1","1","1","1","1","1","1","1","1"
"250009","img/neutralC/CFD-WM-009-002-N.jpg","img/neutralC/CFD-MF-318-022-N.jpg","img/neutralC/CFD-LF-215-157-N.jpg","1","1","1","0","1","0","0.496491799945943","0.730420300038531","0.550316600012593","1","1","1","1","1","1","1","1","1"
"250009","img/neutralC/CFD-LF-215-157-N.jpg","img/neutralC/CFD-WM-009-002-N.jpg","img/neutralC/CFD-BM-204-003-N.jpg","1","1","1","0","0","0","0.550316600012593","0.496491799945943","0.585677900002338","1","1","1","1","1","1","1","1","1"
"250009","img/neutralC/CFD-BM-204-003-N.jpg","img/neutralC/CFD-LF-215-157-N.jpg","img/neutralC/CFD-MM-321-021-N.jpg","1","1","1","0","0","0","0.585677900002338","0.550316600012593","0.620510100037791","1","1","1","1","1","1","1","1","1"
"250009","img/neutralC/CFD-MM-321-021-N.jpg","img/neutralC/CFD-BM-204-003-N.jpg","img/neutralC/CFD-IM-700-009-N.jpg","1","1","1","0","0","1","0.620510100037791","0.585677900002338","0.608830999932252","1","1","1","1","1","1","1","1","1"
"250009","img/neutralC/CFD-IM-700-009-N.jpg","img/neutralC/CFD-MM-321-021-N.jpg","img/neutralC/CFD-WF-226-095-N.jpg","1","1","1","1","0","1","0.608830999932252","0.620510100037791","0.728896199958399","1","1","1","1","1","1","1","1","1"
"250009","img/neutralC/CFD-WF-226-095-N.jpg","img/neutralC/CFD-IM-700-009-N.jpg","img/neutralC/CFD-BF-254-201-N.jpg","1","1","1","1","1","0","0.728896199958399","0.608830999932252","0.622189299901947","1","1","1","1","1","1","1","1","1"
"250009","img/neutralC/CFD-BF-254-201-N.jpg","img/neutralC/CFD-WF-226-095-N.jpg","img/neutralC/CFD-WM-013-001-N.jpg","1","1","1","0","1","1","0.622189299901947","0.728896199958399","0.81793729995843","1","1","1","1","1","1","1","1","1"
"250009","img/neutralC/CFD-WM-013-001-N.jpg","img/neutralC/CFD-BF-254-201-N.jpg","img/neutralC/CFD-BF-218-207-N.jpg","1","1","1","1","0","1","0.81793729995843","0.622189299901947","0.585600799997337","1","1","1","1","1","1","1","1","1"
"250009","img/neutralC/CFD-BF-218-207-N.jpg","img/neutralC/CFD-WM-013-001-N.jpg","img/neutralC/CFD-MF-342-022-N.jpg","1","1","1","1","1","1","0.585600799997337","0.81793729995843","0.638951300061308","1","1","1","1","1","1","1","1","1"
"250009","img/neutralC/CFD-MF-342-022-N.jpg","img/neutralC/CFD-BF-218-207-N.jpg","img/neutralC/CFD-AF-232-078-N.jpg","1","1","1","1","1","1","0.638951300061308","0.585600799997337","0.916684100055136","1","1","1","1","1","1","1","1","1"
"250009","img/neutralC/CFD-AF-232-078-N.jpg","img/neutralC/CFD-MF-342-022-N.jpg","img/neutralC/CFD-WM-255-219-N.jpg","1","1","1","1","1","0","0.916684100055136","0.638951300061308","0.648889599950053","1","1","1","1","1","1","1","1","1"
"250009","img/neutralC/CFD-WM-255-219-N.jpg","img/neutralC/CFD-AF-232-078-N.jpg","img/neutralC/CFD-BM-200-046-N.jpg","1","1","1","0","1","0","0.648889599950053","0.916684100055136","0.545799799961969","1","1","1","1","1","1","1","1","1"
"250009","img/neutralC/CFD-BM-200-046-N.jpg","img/neutralC/CFD-WM-255-219-N.jpg","img/neutralC/CFD-WM-237-052-N.jpg","1","1","1","0","0","1","0.545799799961969","0.648889599950053","0.734896500012837","1","1","1","1","1","1","1","1","1"
"250009","img/neutralC/CFD-WM-237-052-N.jpg","img/neutralC/CFD-BM-200-046-N.jpg","img/neutralC/CFD-WM-201-063-N.jpg","1","1","1","1","0","1","0.734896500012837","0.545799799961969","0.777471999987029","1","1","1","1","1","1","1","1","1"
"250009","img/neutralC/CFD-WM-201-063-N.jpg","img/neutralC/CFD-WM-237-052-N.jpg","img/neutralC/CFD-WF-023-003-N.jpg","1","1","1","1","1","1","0.777471999987029","0.734896500012837","0.501986899995245","1","1","1","1","1","1","1","1","1"
"250009","img/neutralC/CFD-WF-023-003-N.jpg","img/neutralC/CFD-WM-201-063-N.jpg","img/neutralC/CFD-WF-018-017-N.jpg","1","1","1","1","1","1","0.501986899995245","0.777471999987029","1.19069810002111","1","1","1","1","1","1","1","1","1"
"250009","img/neutralC/CFD-WF-018-017-N.jpg","img/neutralC/CFD-WF-023-003-N.jpg","img/neutralC/CFD-WM-221-091-N.jpg","1","1","1","1","1","0","1.19069810002111","0.501986899995245","0.726278599933721","1","1","1","1","1","1","1","1","1"
"250009","img/neutralC/CFD-WM-221-091-N.jpg","img/neutralC/CFD-WF-018-017-N.jpg","img/neutralC/CFD-LM-253-075-N.jpg","1","1","1","0","1","0","0.726278599933721","1.19069810002111","0.594008500105701","1","1","1","1","1","1","1","1","1"
"250009","img/neutralC/CFD-LM-253-075-N.jpg","img/neutralC/CFD-WM-221-091-N.jpg","img/neutralC/CFD-IM-719-221-N.jpg","1","1","1","0","0","0","0.594008500105701","0.726278599933721","0.707512099994346","1","1","1","1","1","1","1","1","1"
"250009","img/neutralC/CFD-IM-719-221-N.jpg","img/neutralC/CFD-LM-253-075-N.jpg","img/neutralC/CFD-WF-027-003-N.jpg","1","1","1","0","0","1","0.707512099994346","0.594008500105701","0.498208399978466","1","1","1","1","1","1","1","1","1"
"250009","img/neutralC/CFD-WF-027-003-N.jpg","img/neutralC/CFD-IM-719-221-N.jpg","img/neutralC/CFD-BM-023-029-N.jpg","1","1","1","1","0","1","0.498208399978466","0.707512099994346","0.543192700017244","1","1","1","1","1","1","1","1","1"
"250009","img/neutralC/CFD-BM-023-029-N.jpg","img/neutralC/CFD-WF-027-003-N.jpg","img/neutralC/CFD-IM-627-178-N.jpg","1","1","1","1","1","1","0.543192700017244","0.498208399978466","0.784801400033757","1","1","1","1","1","1","1","1","1"
"250009","img/neutralC/CFD-IM-627-178-N.jpg","img/neutralC/CFD-BM-023-029-N.jpg","img/neutralC/CFD-IF-629-234-N.jpg","1","1","1","1","1","0","0.784801400033757","0.543192700017244","1.08662209997419","1","1","1","1","1","1","1","1","1"
"250009","img/neutralC/CFD-IF-629-234-N.jpg","img/neutralC/CFD-IM-627-178-N.jpg","img/neutralC/CFD-WF-245-084-N.jpg","1","1","1","0","1","1","1.08662209997419","0.784801400033757","0.603067599935457","1","1","1","1","1","1","1","1","1"
"250009","img/neutralC/CFD-WF-245-084-N.jpg","img/neutralC/CFD-IF-629-234-N.jpg",NA,"1","1",NA,"1","0",NA,"0.603067599935457","1.08662209997419",NA,"1","1",NA,"1","1",NA,"1","1",NA
"250009","img/neutralC/CFD-IM-674-281-N.jpg",NA,"img/neutralC/CFD-BM-015-015-N.jpg","1",NA,"1","1",NA,"0","0.91167930001393",NA,"0.639257099945098","1",NA,"1","1",NA,"1","1",NA,"1"
"250009","img/neutralC/CFD-BM-015-015-N.jpg","img/neutralC/CFD-IM-674-281-N.jpg","img/neutralC/CFD-WM-225-127-N.jpg","1","1","1","0","1","0","0.639257099945098","0.91167930001393","0.526969800004736","1","1","1","1","1","1","1","1","1"
"250009","img/neutralC/CFD-WM-225-127-N.jpg","img/neutralC/CFD-BM-015-015-N.jpg","img/neutralC/CFD-BF-255-140-N.jpg","1","1","1","0","0","1","0.526969800004736","0.639257099945098","0.522694999934174","1","1","1","1","1","1","1","1","1"
"250009","img/neutralC/CFD-BF-255-140-N.jpg","img/neutralC/CFD-WM-225-127-N.jpg","img/neutralC/CFD-LM-252-076-N.jpg","1","1","1","1","0","1","0.522694999934174","0.526969800004736","0.588833500049077","1","1","1","1","1","1","1","1","1"
"250009","img/neutralC/CFD-LM-252-076-N.jpg","img/neutralC/CFD-BF-255-140-N.jpg","img/neutralC/CFD-IF-672-305-N.jpg","1","1","1","1","1","0","0.588833500049077","0.522694999934174","0.58889520005323","1","1","1","1","1","1","1","1","1"
"250009","img/neutralC/CFD-IF-672-305-N.jpg","img/neutralC/CFD-LM-252-076-N.jpg","img/neutralC/CFD-BF-028-001-N.jpg","1","1","1","0","1","1","0.58889520005323","0.588833500049077","0.566602800041437","1","1","1","1","1","1","1","1","1"
"250009","img/neutralC/CFD-BF-028-001-N.jpg","img/neutralC/CFD-IF-672-305-N.jpg","img/neutralC/CFD-BF-204-189-N.jpg","1","1","1","1","0","1","0.566602800041437","0.58889520005323","0.620854099979624","1","1","1","1","1","1","1","1","1"
"250009","img/neutralC/CFD-BF-204-189-N.jpg","img/neutralC/CFD-BF-028-001-N.jpg","img/neutralC/CFD-BF-208-266-N.jpg","1","1","1","1","1","0","0.620854099979624","0.566602800041437","0.566503999987617","1","1","1","1","1","1","1","1","1"
"250009","img/neutralC/CFD-BF-208-266-N.jpg","img/neutralC/CFD-BF-204-189-N.jpg","img/neutralC/CFD-BM-029-024-N.jpg","1","1","1","0","1","1","0.566503999987617","0.620854099979624","0.50162899994757","1","1","1","1","1","1","1","1","1"
"250009","img/neutralC/CFD-BM-029-024-N.jpg","img/neutralC/CFD-BF-208-266-N.jpg","img/neutralC/CFD-WF-026-002-N.jpg","1","1","1","1","0","1","0.50162899994757","0.566503999987617","0.621019800077192","1","1","1","1","1","1","1","1","1"
"250009","img/neutralC/CFD-WF-026-002-N.jpg","img/neutralC/CFD-BM-029-024-N.jpg","img/neutralC/CFD-WM-040-022-N.jpg","1","1","1","1","1","0","0.621019800077192","0.50162899994757","0.595286900061183","1","1","1","1","1","1","1","1","1"
"250009","img/neutralC/CFD-WM-040-022-N.jpg","img/neutralC/CFD-WF-026-002-N.jpg","img/neutralC/CFD-AM-217-085-N.jpg","1","1","1","0","1","0","0.595286900061183","0.621019800077192","0.664307500002906","1","1","1","1","1","1","1","1","1"
"250009","img/neutralC/CFD-AM-217-085-N.jpg","img/neutralC/CFD-WM-040-022-N.jpg","img/neutralC/CFD-BF-003-003-N.jpg","1","1","1","0","0","0","0.664307500002906","0.595286900061183","0.527918500010855","1","1","1","1","1","1","1","1","1"
"250009","img/neutralC/CFD-BF-003-003-N.jpg","img/neutralC/CFD-AM-217-085-N.jpg","img/neutralC/CFD-AM-215-120-N.jpg","1","1","1","0","0","1","0.527918500010855","0.664307500002906","0.705849100020714","1","1","1","1","1","1","1","1","1"
"250009","img/neutralC/CFD-AM-215-120-N.jpg","img/neutralC/CFD-BF-003-003-N.jpg","img/neutralC/CFD-WM-257-161-N.jpg","1","1","1","1","0","1","0.705849100020714","0.527918500010855","0.489039100008085","1","1","1","1","1","1","1","1","1"
"250009","img/neutralC/CFD-WM-257-161-N.jpg","img/neutralC/CFD-AM-215-120-N.jpg","img/neutralC/CFD-BF-023-010-N.jpg","1","1","1","1","1","1","0.489039100008085","0.705849100020714","0.554695599945262","1","1","1","1","1","1","1","1","1"
"250009","img/neutralC/CFD-BF-023-010-N.jpg","img/neutralC/CFD-WM-257-161-N.jpg","img/neutralC/CFD-AM-235-241-N.jpg","1","1","1","1","1","0","0.554695599945262","0.489039100008085","0.497284900047816","1","1","1","1","1","1","1","1","1"
"250009","img/neutralC/CFD-AM-235-241-N.jpg","img/neutralC/CFD-BF-023-010-N.jpg","img/neutralC/CFD-BM-027-001-N.jpg","1","1","1","0","1","0","0.497284900047816","0.554695599945262","0.542066500056535","1","1","1","1","1","1","1","1","1"
"250009","img/neutralC/CFD-BM-027-001-N.jpg","img/neutralC/CFD-AM-235-241-N.jpg","img/neutralC/CFD-LF-216-121-N.jpg","1","1","1","0","0","1","0.542066500056535","0.497284900047816","0.476674099918455","1","1","1","1","1","1","1","1","1"
"250009","img/neutralC/CFD-LF-216-121-N.jpg","img/neutralC/CFD-BM-027-001-N.jpg","img/neutralC/CFD-WF-022-017-N.jpg","1","1","1","1","0","0","0.476674099918455","0.542066500056535","0.702405399992131","1","1","1","1","1","1","1","1","1"
"250009","img/neutralC/CFD-WF-022-017-N.jpg","img/neutralC/CFD-LF-216-121-N.jpg","img/neutralC/CFD-WM-038-003-N.jpg","1","1","1","0","1","0","0.702405399992131","0.476674099918455","0.561562899965793","1","1","1","1","1","1","1","1","1"
"250009","img/neutralC/CFD-WM-038-003-N.jpg","img/neutralC/CFD-WF-022-017-N.jpg","img/neutralC/CFD-IM-728-041-N.jpg","1","1","1","0","0","0","0.561562899965793","0.702405399992131","0.67671180004254","1","1","1","1","1","1","1","1","1"
"250009","img/neutralC/CFD-IM-728-041-N.jpg","img/neutralC/CFD-WM-038-003-N.jpg","img/neutralC/CFD-IF-718-001-N.jpg","1","1","1","0","0","1","0.67671180004254","0.561562899965793","0.857783999992535","1","1","1","1","1","1","1","1","1"
"250009","img/neutralC/CFD-IF-718-001-N.jpg","img/neutralC/CFD-IM-728-041-N.jpg","img/neutralC/CFD-IM-639-263-N.jpg","1","1","1","1","0","1","0.857783999992535","0.67671180004254","0.935807700036094","1","1","1","1","1","1","1","1","1"
"250009","img/neutralC/CFD-IM-639-263-N.jpg","img/neutralC/CFD-IF-718-001-N.jpg","img/neutralC/CFD-WF-002-004-N.jpg","1","1","1","1","1","0","0.935807700036094","0.857783999992535","1.17403300001752","1","1","1","1","1","1","1","1","1"
"250009","img/neutralC/CFD-WF-002-004-N.jpg","img/neutralC/CFD-IM-639-263-N.jpg","img/neutralC/CFD-WM-002-009-N.jpg","1","1","1","0","1","0","1.17403300001752","0.935807700036094","0.601333099999465","1","1","1","1","1","1","1","1","1"
"250009","img/neutralC/CFD-WM-002-009-N.jpg","img/neutralC/CFD-WF-002-004-N.jpg","img/neutralC/CFD-LF-236-221-N.jpg","1","1","1","0","0","1","0.601333099999465","1.17403300001752","0.539230399997905","1","1","1","1","1","1","1","1","1"
"250009","img/neutralC/CFD-LF-236-221-N.jpg","img/neutralC/CFD-WM-002-009-N.jpg","img/neutralC/CFD-BF-201-080-N.jpg","1","1","1","1","0","1","0.539230399997905","0.601333099999465","0.764690299984068","1","1","1","1","1","1","1","1","1"
"250009","img/neutralC/CFD-BF-201-080-N.jpg","img/neutralC/CFD-LF-236-221-N.jpg","img/neutralC/CFD-MM-319-052-N.jpg","1","1","1","1","1","1","0.764690299984068","0.539230399997905","0.78776380000636","1","1","1","1","1","1","1","1","1"
"250009","img/neutralC/CFD-MM-319-052-N.jpg","img/neutralC/CFD-BF-201-080-N.jpg","img/neutralC/CFD-BM-211-174-N.jpg","1","1","1","1","1","0","0.78776380000636","0.764690299984068","0.620547499973327","1","1","1","1","1","1","1","1","1"
"250009","img/neutralC/CFD-BM-211-174-N.jpg","img/neutralC/CFD-MM-319-052-N.jpg","img/neutralC/CFD-BM-247-240-N.jpg","1","1","1","0","1","0","0.620547499973327","0.78776380000636","0.979199400055222","1","1","1","1","1","1","1","1","1"
"250009","img/neutralC/CFD-BM-247-240-N.jpg","img/neutralC/CFD-BM-211-174-N.jpg",NA,"1","1",NA,"0","0",NA,"0.979199400055222","0.620547499973327",NA,"1","1",NA,"1","1",NA,"1","1",NA
