"participant_id","current_trial_face","pre_trial_face","post_trial_face","current_trial_accuracy","pre_trial_accuracy","post_trial_accuracy","current_trial_congruency","pre_trial_congruency","post_trial_congruency","current_trial_rt","pre_trial_rt","post_trial_rt","current_trial_responded","pre_trial_responded","post_trial_responded","current_trial_legitResponse","pre_trial_legitResponse","post_trial_legitResponse","current_trial_resp_nums","pre_trial_resp_nums","post_trial_resp_nums"
"250067","img/neutralC/CFD-LM-216-082-N.jpg",NA,"img/neutralC/CFD-WM-212-097-N.jpg","1",NA,"0","0",NA,"0","1.33869790006429",NA,"0.657117999857292","1",NA,"1","1",NA,"1","1",NA,"1"
"250067","img/neutralC/CFD-WM-212-097-N.jpg","img/neutralC/CFD-LM-216-082-N.jpg","img/neutralC/CFD-IF-642-295-N.jpg","0","1","1","0","0","1","0.657117999857292","1.33869790006429","0.46600789995864","1","1","1","1","1","1","1","1","1"
"250067","img/neutralC/CFD-IF-642-295-N.jpg","img/neutralC/CFD-WM-212-097-N.jpg","img/neutralC/CFD-LM-214-165-N.jpg","1","0","1","1","0","1","0.46600789995864","0.657117999857292","0.444529300089926","1","1","1","1","1","1","1","1","1"
"250067","img/neutralC/CFD-LM-214-165-N.jpg","img/neutralC/CFD-IF-642-295-N.jpg","img/neutralC/CFD-WF-017-003-N.jpg","1","1","1","1","1","1","0.444529300089926","0.46600789995864","0.497562699951231","1","1","1","1","1","1","1","1","1"
"250067","img/neutralC/CFD-WF-017-003-N.jpg","img/neutralC/CFD-LM-214-165-N.jpg","img/neutralC/CFD-LM-201-057-N.jpg","1","1","1","1","1","1","0.497562699951231","0.444529300089926","0.512509600026533","1","1","1","1","1","1","1","1","1"
"250067","img/neutralC/CFD-LM-201-057-N.jpg","img/neutralC/CFD-WF-017-003-N.jpg","img/neutralC/CFD-WM-012-001-N.jpg","1","1","1","1","1","1","0.512509600026533","0.497562699951231","0.630056799855083","1","1","1","1","1","1","1","1","1"
"250067","img/neutralC/CFD-WM-012-001-N.jpg","img/neutralC/CFD-LM-201-057-N.jpg","img/neutralC/CFD-BM-251-013-N.jpg","1","1","1","1","1","1","0.630056799855083","0.512509600026533","0.40589620009996","1","1","1","1","1","1","1","1","1"
"250067","img/neutralC/CFD-BM-251-013-N.jpg","img/neutralC/CFD-WM-012-001-N.jpg","img/neutralC/CFD-BF-202-109-N.jpg","1","1","1","1","1","1","0.40589620009996","0.630056799855083","0.578847299795598","1","1","1","1","1","1","1","1","1"
"250067","img/neutralC/CFD-BF-202-109-N.jpg","img/neutralC/CFD-BM-251-013-N.jpg","img/neutralC/CFD-WF-240-083-N.jpg","1","1","1","1","1","0","0.578847299795598","0.40589620009996","0.682739299954847","1","1","1","1","1","1","1","1","1"
"250067","img/neutralC/CFD-WF-240-083-N.jpg","img/neutralC/CFD-BF-202-109-N.jpg","img/neutralC/CFD-BF-212-315-N.jpg","1","1","1","0","1","1","0.682739299954847","0.578847299795598","0.548981700092554","1","1","1","1","1","1","1","1","1"
"250067","img/neutralC/CFD-BF-212-315-N.jpg","img/neutralC/CFD-WF-240-083-N.jpg","img/neutralC/CFD-AF-240-206-N.jpg","1","1","1","1","0","0","0.548981700092554","0.682739299954847","0.668464999878779","1","1","1","1","1","1","1","1","1"
"250067","img/neutralC/CFD-AF-240-206-N.jpg","img/neutralC/CFD-BF-212-315-N.jpg","img/neutralC/CFD-WM-006-002-N.jpg","1","1","1","0","1","0","0.668464999878779","0.548981700092554","0.722656300058588","1","1","1","1","1","1","1","1","1"
"250067","img/neutralC/CFD-WM-006-002-N.jpg","img/neutralC/CFD-AF-240-206-N.jpg","img/neutralC/CFD-BF-025-002-N.jpg","1","1","1","0","0","0","0.722656300058588","0.668464999878779","0.679780700011179","1","1","1","1","1","1","1","1","1"
"250067","img/neutralC/CFD-BF-025-002-N.jpg","img/neutralC/CFD-WM-006-002-N.jpg","img/neutralC/CFD-WM-026-001-N.jpg","1","1","1","0","0","1","0.679780700011179","0.722656300058588","0.563630999997258","1","1","1","1","1","1","1","1","1"
"250067","img/neutralC/CFD-WM-026-001-N.jpg","img/neutralC/CFD-BF-025-002-N.jpg","img/neutralC/CFD-IM-646-023-N.jpg","1","1","1","1","0","1","0.563630999997258","0.679780700011179","0.474928800016642","1","1","1","1","1","1","1","1","1"
"250067","img/neutralC/CFD-IM-646-023-N.jpg","img/neutralC/CFD-WM-026-001-N.jpg","img/neutralC/CFD-LM-244-068-N.jpg","1","1","1","1","1","1","0.474928800016642","0.563630999997258","0.535634099971503","1","1","1","1","1","1","1","1","1"
"250067","img/neutralC/CFD-LM-244-068-N.jpg","img/neutralC/CFD-IM-646-023-N.jpg","img/neutralC/CFD-WM-249-239-N.jpg","1","1","1","1","1","1","0.535634099971503","0.474928800016642","0.605808099964634","1","1","1","1","1","1","1","1","1"
"250067","img/neutralC/CFD-WM-249-239-N.jpg","img/neutralC/CFD-LM-244-068-N.jpg","img/neutralC/CFD-WF-005-010-N.jpg","1","1","1","1","1","0","0.605808099964634","0.535634099971503","0.78437040001154","1","1","1","1","1","1","1","1","1"
"250067","img/neutralC/CFD-WF-005-010-N.jpg","img/neutralC/CFD-WM-249-239-N.jpg","img/neutralC/CFD-BF-041-001-N.jpg","1","1","1","0","1","1","0.78437040001154","0.605808099964634","0.633852099999785","1","1","1","1","1","1","1","1","1"
"250067","img/neutralC/CFD-BF-041-001-N.jpg","img/neutralC/CFD-WF-005-010-N.jpg","img/neutralC/CFD-WM-019-003-N.jpg","1","1","1","1","0","1","0.633852099999785","0.78437040001154","0.486323999939486","1","1","1","1","1","1","1","1","1"
"250067","img/neutralC/CFD-WM-019-003-N.jpg","img/neutralC/CFD-BF-041-001-N.jpg","img/neutralC/CFD-BM-248-128-N.jpg","1","1","0","1","1","0","0.486323999939486","0.633852099999785","0.85649779997766","1","1","1","1","1","1","1","1","1"
"250067","img/neutralC/CFD-BM-248-128-N.jpg","img/neutralC/CFD-WM-019-003-N.jpg","img/neutralC/CFD-BM-205-001-N.jpg","0","1","1","0","1","0","0.85649779997766","0.486323999939486","0.786887400085106","1","1","1","1","1","1","1","1","1"
"250067","img/neutralC/CFD-BM-205-001-N.jpg","img/neutralC/CFD-BM-248-128-N.jpg","img/neutralC/CFD-MF-309-002-N.jpg","1","0","1","0","0","0","0.786887400085106","0.85649779997766","0.491780299926177","1","1","1","1","1","1","1","1","1"
"250067","img/neutralC/CFD-MF-309-002-N.jpg","img/neutralC/CFD-BM-205-001-N.jpg","img/neutralC/CFD-BF-228-212-N.jpg","1","1","1","0","0","0","0.491780299926177","0.786887400085106","0.601504200138152","1","1","1","1","1","1","1","1","1"
"250067","img/neutralC/CFD-BF-228-212-N.jpg","img/neutralC/CFD-MF-309-002-N.jpg","img/neutralC/CFD-MF-335-002-N.jpg","1","1","1","0","0","0","0.601504200138152","0.491780299926177","0.520556800067425","1","1","1","1","1","1","1","1","1"
"250067","img/neutralC/CFD-MF-335-002-N.jpg","img/neutralC/CFD-BF-228-212-N.jpg","img/neutralC/CFD-WM-215-041-N.jpg","1","1","1","0","0","0","0.520556800067425","0.601504200138152","0.589695199858397","1","1","1","1","1","1","1","1","1"
"250067","img/neutralC/CFD-WM-215-041-N.jpg","img/neutralC/CFD-MF-335-002-N.jpg","img/neutralC/CFD-IM-648-337-N.jpg","1","1","1","0","0","0","0.589695199858397","0.520556800067425","0.671150699956343","1","1","1","1","1","1","1","1","1"
"250067","img/neutralC/CFD-IM-648-337-N.jpg","img/neutralC/CFD-WM-215-041-N.jpg","img/neutralC/CFD-AM-247-165-N.jpg","1","1","1","0","0","1","0.671150699956343","0.589695199858397","0.567850900115445","1","1","1","1","1","1","1","1","1"
"250067","img/neutralC/CFD-AM-247-165-N.jpg","img/neutralC/CFD-IM-648-337-N.jpg","img/neutralC/CFD-WF-228-196-N.jpg","1","1","1","1","0","0","0.567850900115445","0.671150699956343","0.66383060021326","1","1","1","1","1","1","1","1","1"
"250067","img/neutralC/CFD-WF-228-196-N.jpg","img/neutralC/CFD-AM-247-165-N.jpg","img/neutralC/CFD-MM-317-061-N.jpg","1","1","1","0","1","1","0.66383060021326","0.567850900115445","0.732390000019222","1","1","1","1","1","1","1","1","1"
"250067","img/neutralC/CFD-MM-317-061-N.jpg","img/neutralC/CFD-WF-228-196-N.jpg","img/neutralC/CFD-LM-243-075-N.jpg","1","1","1","1","0","0","0.732390000019222","0.66383060021326","0.62139410013333","1","1","1","1","1","1","1","1","1"
"250067","img/neutralC/CFD-LM-243-075-N.jpg","img/neutralC/CFD-MM-317-061-N.jpg",NA,"1","1",NA,"0","1",NA,"0.62139410013333","0.732390000019222",NA,"1","1",NA,"1","1",NA,"1","1",NA
"250067","img/neutralC/CFD-LF-242-121-N.jpg",NA,"img/neutralC/CFD-BM-018-001-N.jpg","1",NA,"1","0",NA,"1","0.522704400122166",NA,"0.407786600058898","1",NA,"1","1",NA,"1","1",NA,"1"
"250067","img/neutralC/CFD-BM-018-001-N.jpg","img/neutralC/CFD-LF-242-121-N.jpg","img/neutralC/CFD-LM-219-295-N.jpg","1","1","1","1","0","1","0.407786600058898","0.522704400122166","0.319908499950543","1","1","1","1","1","1","1","1","1"
"250067","img/neutralC/CFD-LM-219-295-N.jpg","img/neutralC/CFD-BM-018-001-N.jpg","img/neutralC/CFD-LM-226-175-N.jpg","1","1","0","1","1","0","0.319908499950543","0.407786600058898","0.400015600025654","1","1","1","1","1","1","1","1","2"
"250067","img/neutralC/CFD-LM-226-175-N.jpg","img/neutralC/CFD-LM-219-295-N.jpg","img/neutralC/CFD-IF-665-015-N.jpg","0","1","1","0","1","0","0.400015600025654","0.319908499950543","0.524182100081816","1","1","1","1","1","1","2","1","1"
"250067","img/neutralC/CFD-IF-665-015-N.jpg","img/neutralC/CFD-LM-226-175-N.jpg","img/neutralC/CFD-LF-250-169-N.jpg","1","0","0","0","0","1","0.524182100081816","0.400015600025654","0.3968849000521","1","1","1","1","1","1","1","2","1"
"250067","img/neutralC/CFD-LF-250-169-N.jpg","img/neutralC/CFD-IF-665-015-N.jpg","img/neutralC/CFD-WM-258-125-N.jpg","0","1","1","1","0","0","0.3968849000521","0.524182100081816","0.607342799892649","1","1","1","1","1","1","1","1","1"
"250067","img/neutralC/CFD-WM-258-125-N.jpg","img/neutralC/CFD-LF-250-169-N.jpg","img/neutralC/CFD-BM-212-117-N.jpg","1","0","1","0","1","0","0.607342799892649","0.3968849000521","0.494179799919948","1","1","1","1","1","1","1","1","1"
"250067","img/neutralC/CFD-BM-212-117-N.jpg","img/neutralC/CFD-WM-258-125-N.jpg","img/neutralC/CFD-BF-238-190-N.jpg","1","1","1","0","0","1","0.494179799919948","0.607342799892649","0.394381999969482","1","1","1","1","1","1","1","1","1"
"250067","img/neutralC/CFD-BF-238-190-N.jpg","img/neutralC/CFD-BM-212-117-N.jpg","img/neutralC/CFD-LF-247-051-N.jpg","1","1","1","1","0","1","0.394381999969482","0.494179799919948","0.394899500068277","1","1","1","1","1","1","1","1","1"
"250067","img/neutralC/CFD-LF-247-051-N.jpg","img/neutralC/CFD-BF-238-190-N.jpg","img/neutralC/CFD-WF-209-052-N.jpg","1","1","1","1","1","1","0.394899500068277","0.394381999969482","0.42425199993886","1","1","1","1","1","1","1","1","1"
"250067","img/neutralC/CFD-WF-209-052-N.jpg","img/neutralC/CFD-LF-247-051-N.jpg","img/neutralC/CFD-AF-241-141-N.jpg","1","1","1","1","1","1","0.42425199993886","0.394899500068277","0.376646800199524","1","1","1","1","1","1","1","1","1"
"250067","img/neutralC/CFD-AF-241-141-N.jpg","img/neutralC/CFD-WF-209-052-N.jpg","img/neutralC/CFD-WM-242-011-N.jpg","1","1","0","1","1","0","0.376646800199524","0.42425199993886","0.396926499903202","1","1","1","1","1","1","1","1","2"
"250067","img/neutralC/CFD-WM-242-011-N.jpg","img/neutralC/CFD-AF-241-141-N.jpg","img/neutralC/CFD-BM-231-155-N.jpg","0","1","1","0","1","1","0.396926499903202","0.376646800199524","0.519903300097212","1","1","1","1","1","1","2","1","1"
"250067","img/neutralC/CFD-BM-231-155-N.jpg","img/neutralC/CFD-WM-242-011-N.jpg","img/neutralC/CFD-BM-026-002-N.jpg","1","0","0","1","0","0","0.519903300097212","0.396926499903202","0.364167700055987","1","1","1","1","1","1","1","2","1"
"250067","img/neutralC/CFD-BM-026-002-N.jpg","img/neutralC/CFD-BM-231-155-N.jpg","img/neutralC/CFD-IM-653-008-N.jpg","0","1","1","0","1","0","0.364167700055987","0.519903300097212","0.579780099913478","1","1","1","1","1","1","1","1","1"
"250067","img/neutralC/CFD-IM-653-008-N.jpg","img/neutralC/CFD-BM-026-002-N.jpg","img/neutralC/CFD-MF-313-002-N.jpg","1","0","1","0","0","0","0.579780099913478","0.364167700055987","0.479653400136158","1","1","1","1","1","1","1","1","1"
"250067","img/neutralC/CFD-MF-313-002-N.jpg","img/neutralC/CFD-IM-653-008-N.jpg","img/neutralC/CFD-IM-638-250-1-N.jpg","1","1","1","0","0","1","0.479653400136158","0.579780099913478","0.335577399935573","1","1","1","1","1","1","1","1","1"
"250067","img/neutralC/CFD-IM-638-250-1-N.jpg","img/neutralC/CFD-MF-313-002-N.jpg","img/neutralC/CFD-LM-233-171-N.jpg","1","1","1","1","0","0","0.335577399935573","0.479653400136158","0.542633699951693","1","1","1","1","1","1","1","1","1"
"250067","img/neutralC/CFD-LM-233-171-N.jpg","img/neutralC/CFD-IM-638-250-1-N.jpg","img/neutralC/CFD-IM-657-308-N.jpg","1","1","1","0","1","0","0.542633699951693","0.335577399935573","0.339743200223893","1","1","1","1","1","1","1","1","1"
"250067","img/neutralC/CFD-IM-657-308-N.jpg","img/neutralC/CFD-LM-233-171-N.jpg","img/neutralC/CFD-IF-620-218-N.jpg","1","1","0","0","0","0","0.339743200223893","0.542633699951693","0.457492099842057","1","1","1","1","1","1","1","1","2"
"250067","img/neutralC/CFD-IF-620-218-N.jpg","img/neutralC/CFD-IM-657-308-N.jpg","img/neutralC/CFD-WM-017-002-N.jpg","0","1","1","0","0","0","0.457492099842057","0.339743200223893","0.593064000131562","1","1","1","1","1","1","2","1","1"
"250067","img/neutralC/CFD-WM-017-002-N.jpg","img/neutralC/CFD-IF-620-218-N.jpg","img/neutralC/CFD-IM-617-174-N.jpg","1","0","1","0","0","0","0.593064000131562","0.457492099842057","0.46250839997083","1","1","1","1","1","1","1","2","1"
"250067","img/neutralC/CFD-IM-617-174-N.jpg","img/neutralC/CFD-WM-017-002-N.jpg","img/neutralC/CFD-BF-033-028-N.jpg","1","1","1","0","0","0","0.46250839997083","0.593064000131562","0.539156900020316","1","1","1","1","1","1","1","1","1"
"250067","img/neutralC/CFD-BF-033-028-N.jpg","img/neutralC/CFD-IM-617-174-N.jpg","img/neutralC/CFD-LF-245-166-N.jpg","1","1","1","0","0","1","0.539156900020316","0.46250839997083","0.430245300056413","1","1","1","1","1","1","1","1","1"
"250067","img/neutralC/CFD-LF-245-166-N.jpg","img/neutralC/CFD-BF-033-028-N.jpg","img/neutralC/CFD-BF-010-001-N.jpg","1","1","1","1","0","1","0.430245300056413","0.539156900020316","0.371909599984065","1","1","1","1","1","1","1","1","1"
"250067","img/neutralC/CFD-BF-010-001-N.jpg","img/neutralC/CFD-LF-245-166-N.jpg","img/neutralC/CFD-AF-202-122-N.jpg","1","1","1","1","1","1","0.371909599984065","0.430245300056413","0.396173200104386","1","1","1","1","1","1","1","1","1"
"250067","img/neutralC/CFD-AF-202-122-N.jpg","img/neutralC/CFD-BF-010-001-N.jpg","img/neutralC/CFD-IM-727-195-N.jpg","1","1","1","1","1","1","0.396173200104386","0.371909599984065","0.499160500010476","1","1","1","1","1","1","1","1","1"
"250067","img/neutralC/CFD-IM-727-195-N.jpg","img/neutralC/CFD-AF-202-122-N.jpg","img/neutralC/CFD-IM-686-097-N.jpg","1","1","0","1","1","0","0.499160500010476","0.396173200104386","0.350028299959376","1","1","1","1","1","1","1","1","1"
"250067","img/neutralC/CFD-IM-686-097-N.jpg","img/neutralC/CFD-IM-727-195-N.jpg","img/neutralC/CFD-WM-227-099-N.jpg","0","1","1","0","1","1","0.350028299959376","0.499160500010476","0.410904800053686","1","1","1","1","1","1","1","1","1"
"250067","img/neutralC/CFD-WM-227-099-N.jpg","img/neutralC/CFD-IM-686-097-N.jpg","img/neutralC/CFD-BM-005-003-N.jpg","1","0","1","1","0","1","0.410904800053686","0.350028299959376","0.38470850000158","1","1","1","1","1","1","1","1","1"
"250067","img/neutralC/CFD-BM-005-003-N.jpg","img/neutralC/CFD-WM-227-099-N.jpg","img/neutralC/CFD-AF-206-079-N.jpg","1","1","1","1","1","1","0.38470850000158","0.410904800053686","0.433674100087956","1","1","1","1","1","1","1","1","1"
"250067","img/neutralC/CFD-AF-206-079-N.jpg","img/neutralC/CFD-BM-005-003-N.jpg",NA,"1","1",NA,"1","1",NA,"0.433674100087956","0.38470850000158",NA,"1","1",NA,"1","1",NA,"1","1",NA
"250067","img/neutralC/CFD-BM-215-155-N.jpg",NA,"img/neutralC/CFD-LF-239-148-N.jpg","0",NA,"1","0",NA,"0","0.539387200027704",NA,"0.59233109978959","1",NA,"1","1",NA,"1","1",NA,"1"
"250067","img/neutralC/CFD-LF-239-148-N.jpg","img/neutralC/CFD-BM-215-155-N.jpg","img/neutralC/CFD-BF-040-003-N.jpg","1","0","1","0","0","1","0.59233109978959","0.539387200027704","0.362723200116307","1","1","1","1","1","1","1","1","1"
"250067","img/neutralC/CFD-BF-040-003-N.jpg","img/neutralC/CFD-LF-239-148-N.jpg","img/neutralC/CFD-AM-245-111-N.jpg","1","1","1","1","0","1","0.362723200116307","0.59233109978959","0.356659099925309","1","1","1","1","1","1","1","1","2"
"250067","img/neutralC/CFD-AM-245-111-N.jpg","img/neutralC/CFD-BF-040-003-N.jpg","img/neutralC/CFD-LM-241-125-N.jpg","1","1","1","1","1","1","0.356659099925309","0.362723200116307","0.306398099986836","1","1","1","1","1","1","2","1","1"
"250067","img/neutralC/CFD-LM-241-125-N.jpg","img/neutralC/CFD-AM-245-111-N.jpg","img/neutralC/CFD-IF-636-011-N.jpg","1","1","1","1","1","1","0.306398099986836","0.356659099925309","0.322990099899471","1","1","1","1","1","1","1","2","1"
"250067","img/neutralC/CFD-IF-636-011-N.jpg","img/neutralC/CFD-LM-241-125-N.jpg","img/neutralC/CFD-AF-246-242-N.jpg","1","1","0","1","1","0","0.322990099899471","0.306398099986836","0.372880199924111","1","1","1","1","1","1","1","1","1"
"250067","img/neutralC/CFD-AF-246-242-N.jpg","img/neutralC/CFD-IF-636-011-N.jpg","img/neutralC/CFD-LM-204-001-N.jpg","0","1","1","0","1","0","0.372880199924111","0.322990099899471","0.560387799981982","1","1","1","1","1","1","1","1","1"
"250067","img/neutralC/CFD-LM-204-001-N.jpg","img/neutralC/CFD-AF-246-242-N.jpg","img/neutralC/CFD-BF-235-168-N.jpg","1","0","1","0","0","1","0.560387799981982","0.372880199924111","0.30833619995974","1","1","1","1","1","1","1","1","1"
"250067","img/neutralC/CFD-BF-235-168-N.jpg","img/neutralC/CFD-LM-204-001-N.jpg","img/neutralC/CFD-AF-244-168-N.jpg","1","1","1","1","0","0","0.30833619995974","0.560387799981982","0.349369900068268","1","1","1","1","1","1","1","1","1"
"250067","img/neutralC/CFD-AF-244-168-N.jpg","img/neutralC/CFD-BF-235-168-N.jpg","img/neutralC/CFD-AF-205-155-N.jpg","1","1","0","0","1","0","0.349369900068268","0.30833619995974","0.316939799813554","1","1","1","1","1","1","1","1","1"
"250067","img/neutralC/CFD-AF-205-155-N.jpg","img/neutralC/CFD-AF-244-168-N.jpg","img/neutralC/CFD-IM-678-482-N.jpg","0","1","1","0","0","0","0.316939799813554","0.349369900068268","0.475090600084513","1","1","1","1","1","1","1","1","1"
"250067","img/neutralC/CFD-IM-678-482-N.jpg","img/neutralC/CFD-AF-205-155-N.jpg","img/neutralC/CFD-BF-020-002-N.jpg","1","0","1","0","0","1","0.475090600084513","0.316939799813554","0.459210500121117","1","1","1","1","1","1","1","1","1"
"250067","img/neutralC/CFD-BF-020-002-N.jpg","img/neutralC/CFD-IM-678-482-N.jpg","img/neutralC/CFD-WM-018-002-N.jpg","1","1","1","1","0","0","0.459210500121117","0.475090600084513","0.401009700028226","1","1","1","1","1","1","1","1","1"
"250067","img/neutralC/CFD-WM-018-002-N.jpg","img/neutralC/CFD-BF-020-002-N.jpg","img/neutralC/CFD-WF-235-121-N.jpg","1","1","1","0","1","0","0.401009700028226","0.459210500121117","0.51983610005118","1","1","1","1","1","1","1","1","1"
"250067","img/neutralC/CFD-WF-235-121-N.jpg","img/neutralC/CFD-WM-018-002-N.jpg","img/neutralC/CFD-BF-217-189-N.jpg","1","1","1","0","0","0","0.51983610005118","0.401009700028226","0.526580899953842","1","1","1","1","1","1","1","1","1"
"250067","img/neutralC/CFD-BF-217-189-N.jpg","img/neutralC/CFD-WF-235-121-N.jpg","img/neutralC/CFD-AM-233-236-N.jpg","1","1","1","0","0","1","0.526580899953842","0.51983610005118","0.411493899999186","1","1","1","1","1","1","1","1","1"
"250067","img/neutralC/CFD-AM-233-236-N.jpg","img/neutralC/CFD-BF-217-189-N.jpg","img/neutralC/CFD-IM-635-010-N.jpg","1","1","0","1","0","1","0.411493899999186","0.526580899953842","0.408966700080782","1","1","1","1","1","1","1","1","1"
"250067","img/neutralC/CFD-IM-635-010-N.jpg","img/neutralC/CFD-AM-233-236-N.jpg","img/neutralC/CFD-MF-307-002-N.jpg","0","1","1","1","1","1","0.408966700080782","0.411493899999186","0.468725700164214","1","1","1","1","1","1","1","1","1"
"250067","img/neutralC/CFD-MF-307-002-N.jpg","img/neutralC/CFD-IM-635-010-N.jpg","img/neutralC/CFD-IM-632-097-N.jpg","1","0","0","1","1","0","0.468725700164214","0.408966700080782","0.436711800051853","1","1","1","1","1","1","1","1","1"
"250067","img/neutralC/CFD-IM-632-097-N.jpg","img/neutralC/CFD-MF-307-002-N.jpg","img/neutralC/CFD-WF-210-086-N.jpg","0","1","1","0","1","0","0.436711800051853","0.468725700164214","0.599437100114301","1","1","1","1","1","1","1","1","1"
"250067","img/neutralC/CFD-WF-210-086-N.jpg","img/neutralC/CFD-IM-632-097-N.jpg","img/neutralC/CFD-AM-225-102-N.jpg","1","0","1","0","0","0","0.599437100114301","0.436711800051853","0.592188999988139","1","1","1","1","1","1","1","1","1"
"250067","img/neutralC/CFD-AM-225-102-N.jpg","img/neutralC/CFD-WF-210-086-N.jpg","img/neutralC/CFD-AF-234-208-N.jpg","1","1","1","0","0","1","0.592188999988139","0.599437100114301","0.429350499995053","1","1","1","1","1","1","1","1","1"
"250067","img/neutralC/CFD-AF-234-208-N.jpg","img/neutralC/CFD-AM-225-102-N.jpg","img/neutralC/CFD-BM-004-002-N.jpg","1","1","1","1","0","0","0.429350499995053","0.592188999988139","0.371822400018573","1","1","1","1","1","1","1","1","1"
"250067","img/neutralC/CFD-BM-004-002-N.jpg","img/neutralC/CFD-AF-234-208-N.jpg","img/neutralC/CFD-WM-253-119-N.jpg","1","1","1","0","1","1","0.371822400018573","0.429350499995053","0.396876800106838","1","1","1","1","1","1","1","1","1"
"250067","img/neutralC/CFD-WM-253-119-N.jpg","img/neutralC/CFD-BM-004-002-N.jpg","img/neutralC/CFD-BF-042-026-N.jpg","1","1","1","1","0","1","0.396876800106838","0.371822400018573","0.326256199972704","1","1","1","1","1","1","1","1","1"
"250067","img/neutralC/CFD-BF-042-026-N.jpg","img/neutralC/CFD-WM-253-119-N.jpg","img/neutralC/CFD-MF-302-027-N.jpg","1","1","1","1","1","0","0.326256199972704","0.396876800106838","0.622490699868649","1","1","1","1","1","1","1","1","1"
"250067","img/neutralC/CFD-MF-302-027-N.jpg","img/neutralC/CFD-BF-042-026-N.jpg","img/neutralC/CFD-BF-206-143-N.jpg","1","1","1","0","1","1","0.622490699868649","0.326256199972704","0.312692200066522","1","1","1","1","1","1","1","1","1"
"250067","img/neutralC/CFD-BF-206-143-N.jpg","img/neutralC/CFD-MF-302-027-N.jpg","img/neutralC/CFD-AF-250-200-N.jpg","1","1","1","1","0","1","0.312692200066522","0.622490699868649","0.391074700048193","1","1","1","1","1","1","1","1","1"
"250067","img/neutralC/CFD-AF-250-200-N.jpg","img/neutralC/CFD-BF-206-143-N.jpg","img/neutralC/CFD-IF-732-260-N.jpg","1","1","1","1","1","0","0.391074700048193","0.312692200066522","0.551095400005579","1","1","1","1","1","1","1","1","1"
"250067","img/neutralC/CFD-IF-732-260-N.jpg","img/neutralC/CFD-AF-250-200-N.jpg","img/neutralC/CFD-IM-669-111-N.jpg","1","1","1","0","1","1","0.551095400005579","0.391074700048193","0.318093199981377","1","1","1","1","1","1","1","1","1"
"250067","img/neutralC/CFD-IM-669-111-N.jpg","img/neutralC/CFD-IF-732-260-N.jpg","img/neutralC/CFD-AF-213-126-N.jpg","1","1","1","1","0","1","0.318093199981377","0.551095400005579","0.412101299967617","1","1","1","1","1","1","1","1","1"
"250067","img/neutralC/CFD-AF-213-126-N.jpg","img/neutralC/CFD-IM-669-111-N.jpg",NA,"1","1",NA,"1","1",NA,"0.412101299967617","0.318093199981377",NA,"1","1",NA,"1","1",NA,"1","1",NA
"250067","img/neutralC/CFD-BM-036-003-N.jpg",NA,"img/neutralC/CFD-BM-241-235-N.jpg","1",NA,"0","1",NA,"0","0.619304100051522",NA,"0.352800300111994","1",NA,"1","1",NA,"1","1",NA,"1"
"250067","img/neutralC/CFD-BM-241-235-N.jpg","img/neutralC/CFD-BM-036-003-N.jpg","img/neutralC/CFD-BF-236-177-N.jpg","0","1","0","0","1","0","0.352800300111994","0.619304100051522","0.513974400004372","1","1","1","1","1","1","1","1","2"
"250067","img/neutralC/CFD-BF-236-177-N.jpg","img/neutralC/CFD-BM-241-235-N.jpg","img/neutralC/CFD-IM-721-341-N.jpg","0","0","1","0","0","1","0.513974400004372","0.352800300111994","0.408276000060141","1","1","1","1","1","1","2","1","1"
"250067","img/neutralC/CFD-IM-721-341-N.jpg","img/neutralC/CFD-BF-236-177-N.jpg","img/neutralC/CFD-IF-677-452-1-N.jpg","1","0","1","1","0","1","0.408276000060141","0.513974400004372","0.519288999959826","1","1","1","1","1","1","1","2","1"
"250067","img/neutralC/CFD-IF-677-452-1-N.jpg","img/neutralC/CFD-IM-721-341-N.jpg","img/neutralC/CFD-WF-208-068-N.jpg","1","1","1","1","1","1","0.519288999959826","0.408276000060141","0.348372699925676","1","1","1","1","1","1","1","1","1"
"250067","img/neutralC/CFD-WF-208-068-N.jpg","img/neutralC/CFD-IF-677-452-1-N.jpg","img/neutralC/CFD-BF-214-308-N.jpg","1","1","1","1","1","1","0.348372699925676","0.519288999959826","0.3783560001757","1","1","1","1","1","1","1","1","1"
"250067","img/neutralC/CFD-BF-214-308-N.jpg","img/neutralC/CFD-WF-208-068-N.jpg","img/neutralC/CFD-WF-234-086-N.jpg","1","1","1","1","1","1","0.3783560001757","0.348372699925676","0.428840500069782","1","1","1","1","1","1","1","1","1"
"250067","img/neutralC/CFD-WF-234-086-N.jpg","img/neutralC/CFD-BF-214-308-N.jpg","img/neutralC/CFD-WF-029-002-N.jpg","1","1","1","1","1","0","0.428840500069782","0.3783560001757","0.593085000058636","1","1","1","1","1","1","1","1","1"
"250067","img/neutralC/CFD-WF-029-002-N.jpg","img/neutralC/CFD-WF-234-086-N.jpg","img/neutralC/CFD-BF-044-034-N.jpg","1","1","1","0","1","0","0.593085000058636","0.428840500069782","0.512859500013292","1","1","1","1","1","1","1","1","1"
"250067","img/neutralC/CFD-BF-044-034-N.jpg","img/neutralC/CFD-WF-029-002-N.jpg","img/neutralC/CFD-BF-027-002-N.jpg","1","1","1","0","0","1","0.512859500013292","0.593085000058636","0.380154999904335","1","1","1","1","1","1","1","1","1"
"250067","img/neutralC/CFD-BF-027-002-N.jpg","img/neutralC/CFD-BF-044-034-N.jpg","img/neutralC/CFD-LM-213-061-N.jpg","1","1","1","1","0","0","0.380154999904335","0.512859500013292","0.39329869998619","1","1","1","1","1","1","1","1","1"
"250067","img/neutralC/CFD-LM-213-061-N.jpg","img/neutralC/CFD-BF-027-002-N.jpg","img/neutralC/CFD-WM-248-036-N.jpg","1","1","1","0","1","1","0.39329869998619","0.380154999904335","0.409304399974644","1","1","1","1","1","1","1","1","1"
"250067","img/neutralC/CFD-WM-248-036-N.jpg","img/neutralC/CFD-LM-213-061-N.jpg","img/neutralC/CFD-BM-207-024-N.jpg","1","1","1","1","0","1","0.409304399974644","0.39329869998619","0.341849299846217","1","1","1","1","1","1","1","1","1"
"250067","img/neutralC/CFD-BM-207-024-N.jpg","img/neutralC/CFD-WM-248-036-N.jpg","img/neutralC/CFD-WF-233-112-N.jpg","1","1","1","1","1","1","0.341849299846217","0.409304399974644","0.407430999912322","1","1","1","1","1","1","1","1","1"
"250067","img/neutralC/CFD-WF-233-112-N.jpg","img/neutralC/CFD-BM-207-024-N.jpg","img/neutralC/CFD-IM-707-105-N.jpg","1","1","1","1","1","1","0.407430999912322","0.341849299846217","0.330445199972019","1","1","1","1","1","1","1","1","1"
"250067","img/neutralC/CFD-IM-707-105-N.jpg","img/neutralC/CFD-WF-233-112-N.jpg","img/neutralC/CFD-WM-034-030-N.jpg","1","1","1","1","1","1","0.330445199972019","0.407430999912322","0.446188099915162","1","1","1","1","1","1","1","1","1"
"250067","img/neutralC/CFD-WM-034-030-N.jpg","img/neutralC/CFD-IM-707-105-N.jpg","img/neutralC/CFD-LF-204-133-N.jpg","1","1","1","1","1","1","0.446188099915162","0.330445199972019","0.5429906998761","1","1","1","1","1","1","1","1","1"
"250067","img/neutralC/CFD-LF-204-133-N.jpg","img/neutralC/CFD-WM-034-030-N.jpg","img/neutralC/CFD-IM-696-001-N.jpg","1","1","0","1","1","0","0.5429906998761","0.446188099915162","0.457988700130954","1","1","1","1","1","1","1","1","2"
"250067","img/neutralC/CFD-IM-696-001-N.jpg","img/neutralC/CFD-LF-204-133-N.jpg","img/neutralC/CFD-AM-230-150-N.jpg","0","1","1","0","1","0","0.457988700130954","0.5429906998761","0.53641920001246","1","1","1","1","1","1","2","1","1"
"250067","img/neutralC/CFD-AM-230-150-N.jpg","img/neutralC/CFD-IM-696-001-N.jpg","img/neutralC/CFD-BF-002-001-N.jpg","1","0","0","0","0","0","0.53641920001246","0.457988700130954","0.335173799889162","1","1","1","1","1","1","1","2","1"
"250067","img/neutralC/CFD-BF-002-001-N.jpg","img/neutralC/CFD-AM-230-150-N.jpg","img/neutralC/CFD-BF-011-002-N.jpg","0","1","1","0","0","1","0.335173799889162","0.53641920001246","0.48260229988955","1","1","1","1","1","1","1","1","1"
"250067","img/neutralC/CFD-BF-011-002-N.jpg","img/neutralC/CFD-BF-002-001-N.jpg","img/neutralC/CFD-BF-006-017-N.jpg","1","0","0","1","0","0","0.48260229988955","0.335173799889162","0.420282100094482","1","1","1","1","1","1","1","1","2"
"250067","img/neutralC/CFD-BF-006-017-N.jpg","img/neutralC/CFD-BF-011-002-N.jpg","img/neutralC/CFD-IF-742-103-N.jpg","0","1","1","0","1","1","0.420282100094482","0.48260229988955","0.450848000124097","1","1","1","1","1","1","2","1","1"
"250067","img/neutralC/CFD-IF-742-103-N.jpg","img/neutralC/CFD-BF-006-017-N.jpg","img/neutralC/CFD-IF-729-393-N.jpg","1","0","0","1","0","0","0.450848000124097","0.420282100094482","0.429422399960458","1","1","1","1","1","1","1","2","1"
"250067","img/neutralC/CFD-IF-729-393-N.jpg","img/neutralC/CFD-IF-742-103-N.jpg","img/neutralC/CFD-MF-301-024-N.jpg","0","1","1","0","1","0","0.429422399960458","0.450848000124097","0.503054599976167","1","1","1","1","1","1","1","1","1"
"250067","img/neutralC/CFD-MF-301-024-N.jpg","img/neutralC/CFD-IF-729-393-N.jpg","img/neutralC/CFD-BF-247-179-N.jpg","1","0","1","0","0","0","0.503054599976167","0.429422399960458","0.584816300077364","1","1","1","1","1","1","1","1","1"
"250067","img/neutralC/CFD-BF-247-179-N.jpg","img/neutralC/CFD-MF-301-024-N.jpg","img/neutralC/CFD-IM-726-248-N.jpg","1","1","1","0","0","0","0.584816300077364","0.503054599976167","0.582379099912941","1","1","1","1","1","1","1","1","1"
"250067","img/neutralC/CFD-IM-726-248-N.jpg","img/neutralC/CFD-BF-247-179-N.jpg","img/neutralC/CFD-WM-014-002-N.jpg","1","1","1","0","0","0","0.582379099912941","0.584816300077364","0.518462200183421","1","1","1","1","1","1","1","1","1"
"250067","img/neutralC/CFD-WM-014-002-N.jpg","img/neutralC/CFD-IM-726-248-N.jpg","img/neutralC/CFD-BM-238-242-N.jpg","1","1","0","0","0","0","0.518462200183421","0.582379099912941","0.333611899986863","1","1","1","1","1","1","1","1","1"
"250067","img/neutralC/CFD-BM-238-242-N.jpg","img/neutralC/CFD-WM-014-002-N.jpg","img/neutralC/CFD-BF-207-004-N.jpg","0","1","1","0","0","1","0.333611899986863","0.518462200183421","0.419392899842933","1","1","1","1","1","1","1","1","1"
"250067","img/neutralC/CFD-BF-207-004-N.jpg","img/neutralC/CFD-BM-238-242-N.jpg","img/neutralC/CFD-BF-036-027-N.jpg","1","0","1","1","0","0","0.419392899842933","0.333611899986863","0.365107499994338","1","1","1","1","1","1","1","1","1"
"250067","img/neutralC/CFD-BF-036-027-N.jpg","img/neutralC/CFD-BF-207-004-N.jpg",NA,"1","1",NA,"0","1",NA,"0.365107499994338","0.419392899842933",NA,"1","1",NA,"1","1",NA,"1","1",NA
"250067","img/neutralC/CFD-MF-342-022-N.jpg",NA,"img/neutralC/CFD-WM-009-002-N.jpg","1",NA,"1","1",NA,"0","0.620577499968931",NA,"0.63274269993417","1",NA,"1","1",NA,"1","1",NA,"1"
"250067","img/neutralC/CFD-WM-009-002-N.jpg","img/neutralC/CFD-MF-342-022-N.jpg","img/neutralC/CFD-MF-321-003-N.jpg","1","1","1","0","1","0","0.63274269993417","0.620577499968931","0.556487000081688","1","1","1","1","1","1","1","1","1"
"250067","img/neutralC/CFD-MF-321-003-N.jpg","img/neutralC/CFD-WM-009-002-N.jpg","img/neutralC/CFD-WF-023-003-N.jpg","1","1","1","0","0","1","0.556487000081688","0.63274269993417","0.403254099888727","1","1","1","1","1","1","1","1","1"
"250067","img/neutralC/CFD-WF-023-003-N.jpg","img/neutralC/CFD-MF-321-003-N.jpg","img/neutralC/CFD-WF-238-023-N.jpg","1","1","1","1","0","0","0.403254099888727","0.556487000081688","0.507133699953556","1","1","1","1","1","1","1","1","1"
"250067","img/neutralC/CFD-WF-238-023-N.jpg","img/neutralC/CFD-WF-023-003-N.jpg","img/neutralC/CFD-IF-629-234-N.jpg","1","1","1","0","1","0","0.507133699953556","0.403254099888727","0.564316200092435","1","1","1","1","1","1","1","1","1"
"250067","img/neutralC/CFD-IF-629-234-N.jpg","img/neutralC/CFD-WF-238-023-N.jpg","img/neutralC/CFD-WM-221-091-N.jpg","1","1","0","0","0","0","0.564316200092435","0.507133699953556","0.41219720011577","1","1","1","1","1","1","1","1","1"
"250067","img/neutralC/CFD-WM-221-091-N.jpg","img/neutralC/CFD-IF-629-234-N.jpg","img/neutralC/CFD-IM-700-009-N.jpg","0","1","1","0","0","1","0.41219720011577","0.564316200092435","0.431885400088504","1","1","1","1","1","1","1","1","1"
"250067","img/neutralC/CFD-IM-700-009-N.jpg","img/neutralC/CFD-WM-221-091-N.jpg","img/neutralC/CFD-LF-215-157-N.jpg","1","0","1","1","0","0","0.431885400088504","0.41219720011577","0.543500800151378","1","1","1","1","1","1","1","1","1"
"250067","img/neutralC/CFD-LF-215-157-N.jpg","img/neutralC/CFD-IM-700-009-N.jpg","img/neutralC/CFD-BF-218-207-N.jpg","1","1","1","0","1","1","0.543500800151378","0.431885400088504","0.439149099867791","1","1","1","1","1","1","1","1","1"
"250067","img/neutralC/CFD-BF-218-207-N.jpg","img/neutralC/CFD-LF-215-157-N.jpg","img/neutralC/CFD-BF-254-201-N.jpg","1","1","1","1","0","0","0.439149099867791","0.543500800151378","0.557227800134569","1","1","1","1","1","1","1","1","1"
"250067","img/neutralC/CFD-BF-254-201-N.jpg","img/neutralC/CFD-BF-218-207-N.jpg","img/neutralC/CFD-IM-719-221-N.jpg","1","1","1","0","1","0","0.557227800134569","0.439149099867791","0.616963700158522","1","1","1","1","1","1","1","1","1"
"250067","img/neutralC/CFD-IM-719-221-N.jpg","img/neutralC/CFD-BF-254-201-N.jpg","img/neutralC/CFD-BM-023-029-N.jpg","1","1","1","0","0","1","0.616963700158522","0.557227800134569","0.416661800118163","1","1","1","1","1","1","1","1","1"
"250067","img/neutralC/CFD-BM-023-029-N.jpg","img/neutralC/CFD-IM-719-221-N.jpg","img/neutralC/CFD-MM-321-021-N.jpg","1","1","1","1","0","0","0.416661800118163","0.616963700158522","0.523473999928683","1","1","1","1","1","1","1","1","1"
"250067","img/neutralC/CFD-MM-321-021-N.jpg","img/neutralC/CFD-BM-023-029-N.jpg","img/neutralC/CFD-WM-255-219-N.jpg","1","1","1","0","1","0","0.523473999928683","0.416661800118163","0.38519399985671","1","1","1","1","1","1","1","1","1"
"250067","img/neutralC/CFD-WM-255-219-N.jpg","img/neutralC/CFD-MM-321-021-N.jpg","img/neutralC/CFD-IM-627-178-N.jpg","1","1","1","0","0","1","0.38519399985671","0.523473999928683","0.485245000105351","1","1","1","1","1","1","1","1","1"
"250067","img/neutralC/CFD-IM-627-178-N.jpg","img/neutralC/CFD-WM-255-219-N.jpg","img/neutralC/CFD-WF-018-017-N.jpg","1","1","1","1","0","1","0.485245000105351","0.38519399985671","0.4029902999755","1","1","1","1","1","1","1","1","1"
"250067","img/neutralC/CFD-WF-018-017-N.jpg","img/neutralC/CFD-IM-627-178-N.jpg","img/neutralC/CFD-BF-018-039-N.jpg","1","1","1","1","1","1","0.4029902999755","0.485245000105351","0.448779499856755","1","1","1","1","1","1","1","1","1"
"250067","img/neutralC/CFD-BF-018-039-N.jpg","img/neutralC/CFD-WF-018-017-N.jpg","img/neutralC/CFD-WM-201-063-N.jpg","1","1","1","1","1","1","0.448779499856755","0.4029902999755","0.455263299867511","1","1","1","1","1","1","1","1","1"
"250067","img/neutralC/CFD-WM-201-063-N.jpg","img/neutralC/CFD-BF-018-039-N.jpg","img/neutralC/CFD-BM-200-046-N.jpg","1","1","1","1","1","0","0.455263299867511","0.448779499856755","0.567326500080526","1","1","1","1","1","1","1","1","1"
"250067","img/neutralC/CFD-BM-200-046-N.jpg","img/neutralC/CFD-WM-201-063-N.jpg","img/neutralC/CFD-WF-027-003-N.jpg","1","1","1","0","1","1","0.567326500080526","0.455263299867511","0.387229500105604","1","1","1","1","1","1","1","1","1"
"250067","img/neutralC/CFD-WF-027-003-N.jpg","img/neutralC/CFD-BM-200-046-N.jpg","img/neutralC/CFD-MF-318-022-N.jpg","1","1","1","1","0","1","0.387229500105604","0.567326500080526","0.446137400111184","1","1","1","1","1","1","1","1","1"
"250067","img/neutralC/CFD-MF-318-022-N.jpg","img/neutralC/CFD-WF-027-003-N.jpg","img/neutralC/CFD-AF-221-147-N.jpg","1","1","1","1","1","0","0.446137400111184","0.387229500105604","0.44326930004172","1","1","1","1","1","1","1","1","1"
"250067","img/neutralC/CFD-AF-221-147-N.jpg","img/neutralC/CFD-MF-318-022-N.jpg","img/neutralC/CFD-WF-226-095-N.jpg","1","1","1","0","1","1","0.44326930004172","0.446137400111184","0.456829899922013","1","1","1","1","1","1","1","1","1"
"250067","img/neutralC/CFD-WF-226-095-N.jpg","img/neutralC/CFD-AF-221-147-N.jpg","img/neutralC/CFD-LF-211-003-N.jpg","1","1","1","1","0","0","0.456829899922013","0.44326930004172","0.561675400007516","1","1","1","1","1","1","1","1","1"
"250067","img/neutralC/CFD-LF-211-003-N.jpg","img/neutralC/CFD-WF-226-095-N.jpg","img/neutralC/CFD-WM-013-001-N.jpg","1","1","1","0","1","1","0.561675400007516","0.456829899922013","0.355870299972594","1","1","1","1","1","1","1","1","1"
"250067","img/neutralC/CFD-WM-013-001-N.jpg","img/neutralC/CFD-LF-211-003-N.jpg","img/neutralC/CFD-WM-237-052-N.jpg","1","1","1","1","0","1","0.355870299972594","0.561675400007516","0.471227400004864","1","1","1","1","1","1","1","1","1"
"250067","img/neutralC/CFD-WM-237-052-N.jpg","img/neutralC/CFD-WM-013-001-N.jpg","img/neutralC/CFD-LM-253-075-N.jpg","1","1","0","1","1","0","0.471227400004864","0.355870299972594","0.447101199999452","1","1","1","1","1","1","1","1","1"
"250067","img/neutralC/CFD-LM-253-075-N.jpg","img/neutralC/CFD-WM-237-052-N.jpg","img/neutralC/CFD-WF-245-084-N.jpg","0","1","1","0","1","1","0.447101199999452","0.471227400004864","0.39060979988426","1","1","1","1","1","1","1","1","1"
"250067","img/neutralC/CFD-WF-245-084-N.jpg","img/neutralC/CFD-LM-253-075-N.jpg","img/neutralC/CFD-AM-244-222-N.jpg","1","0","0","1","0","0","0.39060979988426","0.447101199999452","0.319781400030479","1","1","1","1","1","1","1","1","1"
"250067","img/neutralC/CFD-AM-244-222-N.jpg","img/neutralC/CFD-WF-245-084-N.jpg","img/neutralC/CFD-BM-204-003-N.jpg","0","1","1","0","1","0","0.319781400030479","0.39060979988426","0.622864800039679","1","1","1","1","1","1","1","1","1"
"250067","img/neutralC/CFD-BM-204-003-N.jpg","img/neutralC/CFD-AM-244-222-N.jpg","img/neutralC/CFD-AF-232-078-N.jpg","1","0","1","0","0","1","0.622864800039679","0.319781400030479","0.540831500198692","1","1","1","1","1","1","1","1","1"
"250067","img/neutralC/CFD-AF-232-078-N.jpg","img/neutralC/CFD-BM-204-003-N.jpg",NA,"1","1",NA,"1","0",NA,"0.540831500198692","0.622864800039679",NA,"1","1",NA,"1","1",NA,"1","1",NA
"250067","img/neutralC/CFD-LM-252-076-N.jpg",NA,"img/neutralC/CFD-BF-023-010-N.jpg","1",NA,"1","1",NA,"1","0.594877999974415",NA,"0.509371999884024","1",NA,"1","1",NA,"1","1",NA,"1"
"250067","img/neutralC/CFD-BF-023-010-N.jpg","img/neutralC/CFD-LM-252-076-N.jpg","img/neutralC/CFD-BM-247-240-N.jpg","1","1","1","1","1","0","0.509371999884024","0.594877999974415","0.519097400130704","1","1","1","1","1","1","1","1","1"
"250067","img/neutralC/CFD-BM-247-240-N.jpg","img/neutralC/CFD-BF-023-010-N.jpg","img/neutralC/CFD-MM-319-052-N.jpg","1","1","1","0","1","1","0.519097400130704","0.509371999884024","0.402865800075233","1","1","1","1","1","1","1","1","1"
"250067","img/neutralC/CFD-MM-319-052-N.jpg","img/neutralC/CFD-BM-247-240-N.jpg","img/neutralC/CFD-BM-029-024-N.jpg","1","1","1","1","0","1","0.402865800075233","0.519097400130704","0.367026600055397","1","1","1","1","1","1","1","1","1"
"250067","img/neutralC/CFD-BM-029-024-N.jpg","img/neutralC/CFD-MM-319-052-N.jpg","img/neutralC/CFD-WM-002-009-N.jpg","1","1","1","1","1","0","0.367026600055397","0.402865800075233","0.579068300081417","1","1","1","1","1","1","1","1","1"
"250067","img/neutralC/CFD-WM-002-009-N.jpg","img/neutralC/CFD-BM-029-024-N.jpg","img/neutralC/CFD-WM-040-022-N.jpg","1","1","0","0","1","0","0.579068300081417","0.367026600055397","0.414496700046584","1","1","1","1","1","1","1","1","2"
"250067","img/neutralC/CFD-WM-040-022-N.jpg","img/neutralC/CFD-WM-002-009-N.jpg","img/neutralC/CFD-IM-674-281-N.jpg","0","1","1","0","0","1","0.414496700046584","0.579068300081417","0.392135699978098","1","1","1","1","1","1","2","1","1"
"250067","img/neutralC/CFD-IM-674-281-N.jpg","img/neutralC/CFD-WM-040-022-N.jpg","img/neutralC/CFD-IM-728-041-N.jpg","1","0","1","1","0","0","0.392135699978098","0.414496700046584","0.513491799822077","1","1","1","1","1","1","1","2","1"
"250067","img/neutralC/CFD-IM-728-041-N.jpg","img/neutralC/CFD-IM-674-281-N.jpg","img/neutralC/CFD-WF-026-002-N.jpg","1","1","1","0","1","1","0.513491799822077","0.392135699978098","0.426847299793735","1","1","1","1","1","1","1","1","1"
"250067","img/neutralC/CFD-WF-026-002-N.jpg","img/neutralC/CFD-IM-728-041-N.jpg","img/neutralC/CFD-IF-672-305-N.jpg","1","1","1","1","0","0","0.426847299793735","0.513491799822077","0.446116399951279","1","1","1","1","1","1","1","1","1"
"250067","img/neutralC/CFD-IF-672-305-N.jpg","img/neutralC/CFD-WF-026-002-N.jpg","img/neutralC/CFD-BF-028-001-N.jpg","1","1","1","0","1","1","0.446116399951279","0.426847299793735","0.340397000079975","1","1","1","1","1","1","1","1","1"
"250067","img/neutralC/CFD-BF-028-001-N.jpg","img/neutralC/CFD-IF-672-305-N.jpg","img/neutralC/CFD-AM-235-241-N.jpg","1","1","1","1","0","0","0.340397000079975","0.446116399951279","0.452794099925086","1","1","1","1","1","1","1","1","1"
"250067","img/neutralC/CFD-AM-235-241-N.jpg","img/neutralC/CFD-BF-028-001-N.jpg","img/neutralC/CFD-BM-211-174-N.jpg","1","1","1","0","1","0","0.452794099925086","0.340397000079975","0.412655599880964","1","1","1","1","1","1","1","1","1"
"250067","img/neutralC/CFD-BM-211-174-N.jpg","img/neutralC/CFD-AM-235-241-N.jpg","img/neutralC/CFD-AM-215-120-N.jpg","1","1","1","0","0","1","0.412655599880964","0.452794099925086","0.289123499998823","1","1","1","1","1","1","1","1","1"
"250067","img/neutralC/CFD-AM-215-120-N.jpg","img/neutralC/CFD-BM-211-174-N.jpg","img/neutralC/CFD-BF-255-140-N.jpg","1","1","1","1","0","1","0.289123499998823","0.412655599880964","0.428050999995321","1","1","1","1","1","1","1","1","1"
"250067","img/neutralC/CFD-BF-255-140-N.jpg","img/neutralC/CFD-AM-215-120-N.jpg","img/neutralC/CFD-WM-038-003-N.jpg","1","1","0","1","1","0","0.428050999995321","0.289123499998823","0.354719599941745","1","1","1","1","1","1","1","1","1"
"250067","img/neutralC/CFD-WM-038-003-N.jpg","img/neutralC/CFD-BF-255-140-N.jpg","img/neutralC/CFD-BF-204-189-N.jpg","0","1","1","0","1","1","0.354719599941745","0.428050999995321","0.417473499896005","1","1","1","1","1","1","1","1","1"
"250067","img/neutralC/CFD-BF-204-189-N.jpg","img/neutralC/CFD-WM-038-003-N.jpg","img/neutralC/CFD-WM-225-127-N.jpg","1","0","0","1","0","0","0.417473499896005","0.354719599941745","0.336264900164679","1","1","1","1","1","1","1","1","1"
"250067","img/neutralC/CFD-WM-225-127-N.jpg","img/neutralC/CFD-BF-204-189-N.jpg","img/neutralC/CFD-BM-015-015-N.jpg","0","1","1","0","1","0","0.336264900164679","0.417473499896005","0.542202499927953","1","1","1","1","1","1","1","1","1"
"250067","img/neutralC/CFD-BM-015-015-N.jpg","img/neutralC/CFD-WM-225-127-N.jpg","img/neutralC/CFD-IF-718-001-N.jpg","1","0","1","0","0","1","0.542202499927953","0.336264900164679","0.393824599916115","1","1","1","1","1","1","1","1","1"
"250067","img/neutralC/CFD-IF-718-001-N.jpg","img/neutralC/CFD-BM-015-015-N.jpg","img/neutralC/CFD-BM-027-001-N.jpg","1","1","1","1","0","0","0.393824599916115","0.542202499927953","0.488881999859586","1","1","1","1","1","1","1","1","1"
"250067","img/neutralC/CFD-BM-027-001-N.jpg","img/neutralC/CFD-IF-718-001-N.jpg","img/neutralC/CFD-WF-002-004-N.jpg","1","1","0","0","1","0","0.488881999859586","0.393824599916115","0.393270100001246","1","1","1","1","1","1","1","1","1"
"250067","img/neutralC/CFD-WF-002-004-N.jpg","img/neutralC/CFD-BM-027-001-N.jpg","img/neutralC/CFD-BF-201-080-N.jpg","0","1","1","0","0","1","0.393270100001246","0.488881999859586","0.435057999799028","1","1","1","1","1","1","1","1","1"
"250067","img/neutralC/CFD-BF-201-080-N.jpg","img/neutralC/CFD-WF-002-004-N.jpg","img/neutralC/CFD-BF-208-266-N.jpg","1","0","1","1","0","0","0.435057999799028","0.393270100001246","0.551219400018454","1","1","1","1","1","1","1","1","1"
"250067","img/neutralC/CFD-BF-208-266-N.jpg","img/neutralC/CFD-BF-201-080-N.jpg","img/neutralC/CFD-LF-236-221-N.jpg","1","1","1","0","1","1","0.551219400018454","0.435057999799028","0.41922579985112","1","1","1","1","1","1","1","1","1"
"250067","img/neutralC/CFD-LF-236-221-N.jpg","img/neutralC/CFD-BF-208-266-N.jpg","img/neutralC/CFD-LF-216-121-N.jpg","1","1","1","1","0","1","0.41922579985112","0.551219400018454","0.348179999971762","1","1","1","1","1","1","1","1","1"
"250067","img/neutralC/CFD-LF-216-121-N.jpg","img/neutralC/CFD-LF-236-221-N.jpg","img/neutralC/CFD-IM-639-263-N.jpg","1","1","1","1","1","1","0.348179999971762","0.41922579985112","0.628028900129721","1","1","1","1","1","1","1","1","1"
"250067","img/neutralC/CFD-IM-639-263-N.jpg","img/neutralC/CFD-LF-216-121-N.jpg","img/neutralC/CFD-AM-217-085-N.jpg","1","1","1","1","1","0","0.628028900129721","0.348179999971762","0.31284309993498","1","1","1","1","1","1","1","1","1"
"250067","img/neutralC/CFD-AM-217-085-N.jpg","img/neutralC/CFD-IM-639-263-N.jpg","img/neutralC/CFD-BF-003-003-N.jpg","1","1","0","0","1","0","0.31284309993498","0.628028900129721","0.345112999901175","1","1","1","1","1","1","1","1","1"
"250067","img/neutralC/CFD-BF-003-003-N.jpg","img/neutralC/CFD-AM-217-085-N.jpg","img/neutralC/CFD-WF-022-017-N.jpg","0","1","0","0","0","0","0.345112999901175","0.31284309993498","0.370966200018302","1","1","1","1","1","1","1","1","1"
"250067","img/neutralC/CFD-WF-022-017-N.jpg","img/neutralC/CFD-BF-003-003-N.jpg","img/neutralC/CFD-WM-257-161-N.jpg","0","0","1","0","0","1","0.370966200018302","0.345112999901175","0.295468300115317","1","1","1","1","1","1","1","1","1"
"250067","img/neutralC/CFD-WM-257-161-N.jpg","img/neutralC/CFD-WF-022-017-N.jpg",NA,"1","0",NA,"1","0",NA,"0.295468300115317","0.370966200018302",NA,"1","1",NA,"1","1",NA,"1","1",NA
"250067","img/neutralC/CFD-BF-051-035-N.jpg",NA,"img/neutralC/CFD-WF-012-002-N.jpg","0",NA,"1","0",NA,"1","0.743459000019357",NA,"0.41668440005742","1",NA,"1","1",NA,"1","1",NA,"1"
"250067","img/neutralC/CFD-WF-012-002-N.jpg","img/neutralC/CFD-BF-051-035-N.jpg","img/neutralC/CFD-IM-709-103-N.jpg","1","0","1","1","0","0","0.41668440005742","0.743459000019357","0.513893799856305","1","1","1","1","1","1","1","1","1"
"250067","img/neutralC/CFD-IM-709-103-N.jpg","img/neutralC/CFD-WF-012-002-N.jpg","img/neutralC/CFD-BM-039-029-N.jpg","1","1","1","0","1","1","0.513893799856305","0.41668440005742","0.300006000092253","1","1","1","1","1","1","1","1","1"
"250067","img/neutralC/CFD-BM-039-029-N.jpg","img/neutralC/CFD-IM-709-103-N.jpg","img/neutralC/CFD-BM-243-218-N.jpg","1","1","1","1","0","1","0.300006000092253","0.513893799856305","0.397496900055557","1","1","1","1","1","1","1","1","1"
"250067","img/neutralC/CFD-BM-243-218-N.jpg","img/neutralC/CFD-BM-039-029-N.jpg","img/neutralC/CFD-IM-675-015-N.jpg","1","1","1","1","1","1","0.397496900055557","0.300006000092253","0.287387599935755","1","1","1","1","1","1","1","1","1"
"250067","img/neutralC/CFD-IM-675-015-N.jpg","img/neutralC/CFD-BM-243-218-N.jpg","img/neutralC/CFD-WM-213-076-N.jpg","1","1","1","1","1","1","0.287387599935755","0.397496900055557","0.379396900068968","1","1","1","1","1","1","1","1","1"
"250067","img/neutralC/CFD-WM-213-076-N.jpg","img/neutralC/CFD-IM-675-015-N.jpg","img/neutralC/CFD-WM-024-015-N.jpg","1","1","0","1","1","1","0.379396900068968","0.287387599935755","0.303135599941015","1","1","1","1","1","1","1","1","1"
"250067","img/neutralC/CFD-WM-024-015-N.jpg","img/neutralC/CFD-WM-213-076-N.jpg","img/neutralC/CFD-MF-300-002-N.jpg","0","1","1","1","1","0","0.303135599941015","0.379396900068968","0.460144500015303","1","1","1","1","1","1","1","1","1"
"250067","img/neutralC/CFD-MF-300-002-N.jpg","img/neutralC/CFD-WM-024-015-N.jpg","img/neutralC/CFD-IM-685-004-N.jpg","1","0","1","0","1","1","0.460144500015303","0.303135599941015","0.315452700015157","1","1","1","1","1","1","1","1","1"
"250067","img/neutralC/CFD-IM-685-004-N.jpg","img/neutralC/CFD-MF-300-002-N.jpg","img/neutralC/CFD-AF-229-160-N.jpg","1","1","1","1","0","0","0.315452700015157","0.460144500015303","0.387407500064","1","1","1","1","1","1","1","1","1"
"250067","img/neutralC/CFD-AF-229-160-N.jpg","img/neutralC/CFD-IM-685-004-N.jpg","img/neutralC/CFD-WF-248-129-N.jpg","1","1","0","0","1","0","0.387407500064","0.315452700015157","0.433509499998763","1","1","1","1","1","1","1","1","1"
"250067","img/neutralC/CFD-WF-248-129-N.jpg","img/neutralC/CFD-AF-229-160-N.jpg","img/neutralC/CFD-MM-304-002-N.jpg","0","1","0","0","0","1","0.433509499998763","0.387407500064","0.450549500063062","1","1","1","1","1","1","1","1","2"
"250067","img/neutralC/CFD-MM-304-002-N.jpg","img/neutralC/CFD-WF-248-129-N.jpg","img/neutralC/CFD-BF-043-003-N.jpg","0","0","1","1","0","0","0.450549500063062","0.433509499998763","0.48827450000681","1","1","1","1","1","1","2","1","1"
"250067","img/neutralC/CFD-BF-043-003-N.jpg","img/neutralC/CFD-MM-304-002-N.jpg","img/neutralC/CFD-LF-226-174-N.jpg","1","0","1","0","1","0","0.48827450000681","0.450549500063062","0.448152099968866","1","1","1","1","1","1","1","2","1"
"250067","img/neutralC/CFD-LF-226-174-N.jpg","img/neutralC/CFD-BF-043-003-N.jpg","img/neutralC/CFD-IM-637-007-N.jpg","1","1","0","0","0","0","0.448152099968866","0.48827450000681","0.303698799805716","1","1","1","1","1","1","1","1","1"
"250067","img/neutralC/CFD-IM-637-007-N.jpg","img/neutralC/CFD-LF-226-174-N.jpg","img/neutralC/CFD-WF-212-050-N.jpg","0","1","1","0","0","0","0.303698799805716","0.448152099968866","0.374037300003693","1","1","1","1","1","1","1","1","1"
"250067","img/neutralC/CFD-WF-212-050-N.jpg","img/neutralC/CFD-IM-637-007-N.jpg","img/neutralC/CFD-MF-327-002-N.jpg","1","0","0","0","0","0","0.374037300003693","0.303698799805716","0.443579099839553","1","1","1","1","1","1","1","1","1"
"250067","img/neutralC/CFD-MF-327-002-N.jpg","img/neutralC/CFD-WF-212-050-N.jpg","img/neutralC/CFD-IF-619-197-N.jpg","0","1","0","0","0","0","0.443579099839553","0.374037300003693","0.46031769993715","1","1","1","1","1","1","1","1","1"
"250067","img/neutralC/CFD-IF-619-197-N.jpg","img/neutralC/CFD-MF-327-002-N.jpg","img/neutralC/CFD-LF-201-035-N.jpg","0","0","1","0","0","1","0.46031769993715","0.443579099839553","0.551790199941024","1","1","1","1","1","1","1","1","1"
"250067","img/neutralC/CFD-LF-201-035-N.jpg","img/neutralC/CFD-IF-619-197-N.jpg","img/neutralC/CFD-MF-329-001-N.jpg","1","0","0","1","0","0","0.551790199941024","0.46031769993715","0.347211099928245","1","1","1","1","1","1","1","1","1"
"250067","img/neutralC/CFD-MF-329-001-N.jpg","img/neutralC/CFD-LF-201-035-N.jpg","img/neutralC/CFD-AM-236-090-N.jpg","0","1","1","0","1","1","0.347211099928245","0.551790199941024","0.395666300086305","1","1","1","1","1","1","1","1","1"
"250067","img/neutralC/CFD-AM-236-090-N.jpg","img/neutralC/CFD-MF-329-001-N.jpg","img/neutralC/CFD-WM-232-070-N.jpg","1","0","1","1","0","0","0.395666300086305","0.347211099928245","0.403518999926746","1","1","1","1","1","1","1","1","1"
"250067","img/neutralC/CFD-WM-232-070-N.jpg","img/neutralC/CFD-AM-236-090-N.jpg","img/neutralC/CFD-LM-217-162-N.jpg","1","1","0","0","1","0","0.403518999926746","0.395666300086305","0.360200999770314","1","1","1","1","1","1","1","1","1"
"250067","img/neutralC/CFD-LM-217-162-N.jpg","img/neutralC/CFD-WM-232-070-N.jpg","img/neutralC/CFD-WF-008-002-N.jpg","0","1","0","0","0","1","0.360200999770314","0.403518999926746","0.399591299938038","1","1","1","1","1","1","1","1","1"
"250067","img/neutralC/CFD-WF-008-002-N.jpg","img/neutralC/CFD-LM-217-162-N.jpg","img/neutralC/CFD-WF-217-085-N.jpg","0","0","1","1","0","1","0.399591299938038","0.360200999770314","0.379986800020561","1","1","1","1","1","1","1","1","1"
"250067","img/neutralC/CFD-WF-217-085-N.jpg","img/neutralC/CFD-WF-008-002-N.jpg","img/neutralC/CFD-AF-254-167-N.jpg","1","0","1","1","1","1","0.379986800020561","0.399591299938038","0.394987300038338","1","1","1","1","1","1","1","1","1"
"250067","img/neutralC/CFD-AF-254-167-N.jpg","img/neutralC/CFD-WF-217-085-N.jpg","img/neutralC/CFD-MF-340-026-N.jpg","1","1","1","1","1","1","0.394987300038338","0.379986800020561","0.430658699944615","1","1","1","1","1","1","1","1","1"
"250067","img/neutralC/CFD-MF-340-026-N.jpg","img/neutralC/CFD-AF-254-167-N.jpg","img/neutralC/CFD-IF-608-390-N.jpg","1","1","1","1","1","1","0.430658699944615","0.394987300038338","0.376424400135875","1","1","1","1","1","1","1","1","1"
"250067","img/neutralC/CFD-IF-608-390-N.jpg","img/neutralC/CFD-MF-340-026-N.jpg","img/neutralC/CFD-IM-604-014-N.jpg","1","1","0","1","1","0","0.376424400135875","0.430658699944615","0.35782410018146","1","1","1","1","1","1","1","1","1"
"250067","img/neutralC/CFD-IM-604-014-N.jpg","img/neutralC/CFD-IF-608-390-N.jpg","img/neutralC/CFD-AF-215-70-N.jpg","0","1","0","0","1","0","0.35782410018146","0.376424400135875","0.487954800017178","1","1","1","1","1","1","1","1","2"
"250067","img/neutralC/CFD-AF-215-70-N.jpg","img/neutralC/CFD-IM-604-014-N.jpg","img/neutralC/CFD-BF-224-002-N.jpg","0","0","1","0","0","1","0.487954800017178","0.35782410018146","0.441906099906191","1","1","1","1","1","1","2","1","1"
"250067","img/neutralC/CFD-BF-224-002-N.jpg","img/neutralC/CFD-AF-215-70-N.jpg",NA,"1","0",NA,"1","0",NA,"0.441906099906191","0.487954800017178",NA,"1","1",NA,"1","1",NA,"1","2",NA
"250067","img/neutralC/CFD-WM-023-001-N.jpg",NA,"img/neutralC/CFD-AM-219-101-N.jpg","1",NA,"1","0",NA,"0","0.882816500030458",NA,"0.501320699928328","1",NA,"1","1",NA,"1","1",NA,"1"
"250067","img/neutralC/CFD-AM-219-101-N.jpg","img/neutralC/CFD-WM-023-001-N.jpg","img/neutralC/CFD-IM-689-263-N.jpg","1","1","1","0","0","1","0.501320699928328","0.882816500030458","0.339259499916807","1","1","1","1","1","1","1","1","1"
"250067","img/neutralC/CFD-IM-689-263-N.jpg","img/neutralC/CFD-AM-219-101-N.jpg","img/neutralC/CFD-IM-697-015-N.jpg","1","1","1","1","0","1","0.339259499916807","0.501320699928328","0.337188500212505","1","1","1","1","1","1","1","1","1"
"250067","img/neutralC/CFD-IM-697-015-N.jpg","img/neutralC/CFD-IM-689-263-N.jpg","img/neutralC/CFD-BM-227-191-N.jpg","1","1","1","1","1","1","0.337188500212505","0.339259499916807","0.422152400016785","1","1","1","1","1","1","1","1","1"
"250067","img/neutralC/CFD-BM-227-191-N.jpg","img/neutralC/CFD-IM-697-015-N.jpg","img/neutralC/CFD-WM-028-003-N.jpg","1","1","1","1","1","1","0.422152400016785","0.337188500212505","0.426282600034028","1","1","1","1","1","1","1","1","1"
"250067","img/neutralC/CFD-WM-028-003-N.jpg","img/neutralC/CFD-BM-227-191-N.jpg","img/neutralC/CFD-WF-241-210-N.jpg","1","1","0","1","1","0","0.426282600034028","0.422152400016785",NA,"1","1","0","1","1","0","1","1","0"
"250067","img/neutralC/CFD-WF-241-210-N.jpg","img/neutralC/CFD-WM-028-003-N.jpg","img/neutralC/CFD-AM-205-153-N.jpg","0","1","1","0","1","1",NA,"0.426282600034028","0.353982399916276","0","1","1","0","1","1","0","1","1"
"250067","img/neutralC/CFD-AM-205-153-N.jpg","img/neutralC/CFD-WF-241-210-N.jpg","img/neutralC/CFD-BM-021-021-N.jpg","1","0","0","1","0","1","0.353982399916276",NA,NA,"1","0","0","1","0","0","1","0","0"
"250067","img/neutralC/CFD-BM-021-021-N.jpg","img/neutralC/CFD-AM-205-153-N.jpg","img/neutralC/CFD-WM-025-002-N.jpg","0","1","1","1","1","0",NA,"0.353982399916276","0.58852449990809","0","1","1","0","1","1","0","1","1"
"250067","img/neutralC/CFD-WM-025-002-N.jpg","img/neutralC/CFD-BM-021-021-N.jpg","img/neutralC/CFD-LF-212-066-N.jpg","1","0","1","0","1","1","0.58852449990809",NA,"0.418133600149304","1","0","1","1","0","1","1","0","1"
"250067","img/neutralC/CFD-LF-212-066-N.jpg","img/neutralC/CFD-WM-025-002-N.jpg","img/neutralC/CFD-IM-615-167-N.jpg","1","1","0","1","0","0","0.418133600149304","0.58852449990809","0.433346200035885","1","1","1","1","1","1","1","1","1"
"250067","img/neutralC/CFD-IM-615-167-N.jpg","img/neutralC/CFD-LF-212-066-N.jpg","img/neutralC/CFD-WF-221-005-N.jpg","0","1","1","0","1","0","0.433346200035885","0.418133600149304","0.627640299964696","1","1","1","1","1","1","1","1","1"
"250067","img/neutralC/CFD-WF-221-005-N.jpg","img/neutralC/CFD-IM-615-167-N.jpg","img/neutralC/CFD-BF-012-001-N.jpg","1","0","1","0","0","0","0.627640299964696","0.433346200035885","0.465137199964374","1","1","1","1","1","1","1","1","1"
"250067","img/neutralC/CFD-BF-012-001-N.jpg","img/neutralC/CFD-WF-221-005-N.jpg","img/neutralC/CFD-BM-020-001-N.jpg","1","1","1","0","0","0","0.465137199964374","0.627640299964696","0.485883899964392","1","1","1","1","1","1","1","1","1"
"250067","img/neutralC/CFD-BM-020-001-N.jpg","img/neutralC/CFD-BF-012-001-N.jpg","img/neutralC/CFD-MM-306-010-N.jpg","1","1","1","0","0","0","0.485883899964392","0.465137199964374","0.427033400163054","1","1","1","1","1","1","1","1","1"
"250067","img/neutralC/CFD-MM-306-010-N.jpg","img/neutralC/CFD-BM-020-001-N.jpg","img/neutralC/CFD-LM-240-013-N.jpg","1","1","1","0","0","1","0.427033400163054","0.485883899964392","0.35350860003382","1","1","1","1","1","1","1","1","1"
"250067","img/neutralC/CFD-LM-240-013-N.jpg","img/neutralC/CFD-MM-306-010-N.jpg","img/neutralC/CFD-LF-238-154-N.jpg","1","1","1","1","0","1","0.35350860003382","0.427033400163054","0.496132599888369","1","1","1","1","1","1","1","1","1"
"250067","img/neutralC/CFD-LF-238-154-N.jpg","img/neutralC/CFD-LM-240-013-N.jpg","img/neutralC/CFD-AF-237-223-N.jpg","1","1","0","1","1","0","0.496132599888369","0.35350860003382","0.458867700072005","1","1","1","1","1","1","1","1","1"
"250067","img/neutralC/CFD-AF-237-223-N.jpg","img/neutralC/CFD-LF-238-154-N.jpg","img/neutralC/CFD-BF-244-231-N.jpg","0","1","1","0","1","1","0.458867700072005","0.496132599888369","0.420317800017074","1","1","1","1","1","1","1","1","1"
"250067","img/neutralC/CFD-BF-244-231-N.jpg","img/neutralC/CFD-AF-237-223-N.jpg","img/neutralC/CFD-AM-249-163-N.jpg","1","0","1","1","0","1","0.420317800017074","0.458867700072005","0.38279419997707","1","1","1","1","1","1","1","1","1"
"250067","img/neutralC/CFD-AM-249-163-N.jpg","img/neutralC/CFD-BF-244-231-N.jpg","img/neutralC/CFD-WF-207-014-N.jpg","1","1","1","1","1","1","0.38279419997707","0.420317800017074","0.415989400120452","1","1","1","1","1","1","1","1","1"
"250067","img/neutralC/CFD-WF-207-014-N.jpg","img/neutralC/CFD-AM-249-163-N.jpg","img/neutralC/CFD-BM-030-003-N.jpg","1","1","1","1","1","0","0.415989400120452","0.38279419997707","0.56494259997271","1","1","1","1","1","1","1","1","1"
"250067","img/neutralC/CFD-BM-030-003-N.jpg","img/neutralC/CFD-WF-207-014-N.jpg","img/neutralC/CFD-AM-243-212-N.jpg","1","1","1","0","1","1","0.56494259997271","0.415989400120452","0.364978599827737","1","1","1","1","1","1","1","1","1"
"250067","img/neutralC/CFD-AM-243-212-N.jpg","img/neutralC/CFD-BM-030-003-N.jpg","img/neutralC/CFD-WF-243-148-N.jpg","1","1","1","1","0","0","0.364978599827737","0.56494259997271","0.464503499912098","1","1","1","1","1","1","1","1","1"
"250067","img/neutralC/CFD-WF-243-148-N.jpg","img/neutralC/CFD-AM-243-212-N.jpg","img/neutralC/CFD-WF-009-001-N.jpg","1","1","1","0","1","1","0.464503499912098","0.364978599827737","0.461576499976218","1","1","1","1","1","1","1","1","1"
"250067","img/neutralC/CFD-WF-009-001-N.jpg","img/neutralC/CFD-WF-243-148-N.jpg","img/neutralC/CFD-MF-328-020-N.jpg","1","1","1","1","0","0","0.461576499976218","0.464503499912098","0.503995900042355","1","1","1","1","1","1","1","1","1"
"250067","img/neutralC/CFD-MF-328-020-N.jpg","img/neutralC/CFD-WF-009-001-N.jpg","img/neutralC/CFD-LF-222-147-N.jpg","1","1","1","0","1","0","0.503995900042355","0.461576499976218","0.516382100060582","1","1","1","1","1","1","1","1","1"
"250067","img/neutralC/CFD-LF-222-147-N.jpg","img/neutralC/CFD-MF-328-020-N.jpg","img/neutralC/CFD-IM-606-008-N.jpg","1","1","0","0","0","0","0.516382100060582","0.503995900042355","0.47440079995431","1","1","1","1","1","1","1","1","1"
"250067","img/neutralC/CFD-IM-606-008-N.jpg","img/neutralC/CFD-LF-222-147-N.jpg","img/neutralC/CFD-BM-009-002-N.jpg","0","1","1","0","0","1","0.47440079995431","0.516382100060582","0.433940700022504","1","1","1","1","1","1","1","1","1"
"250067","img/neutralC/CFD-BM-009-002-N.jpg","img/neutralC/CFD-IM-606-008-N.jpg","img/neutralC/CFD-BM-043-071-N.jpg","1","0","1","1","0","0","0.433940700022504","0.47440079995431","0.414733899990097","1","1","1","1","1","1","1","1","1"
"250067","img/neutralC/CFD-BM-043-071-N.jpg","img/neutralC/CFD-BM-009-002-N.jpg","img/neutralC/CFD-IF-676-017-N.jpg","1","1","1","0","1","1","0.414733899990097","0.433940700022504","0.38398090004921","1","1","1","1","1","1","1","1","1"
"250067","img/neutralC/CFD-IF-676-017-N.jpg","img/neutralC/CFD-BM-043-071-N.jpg",NA,"1","1",NA,"1","0",NA,"0.38398090004921","0.414733899990097",NA,"1","1",NA,"1","1",NA,"1","1",NA
"250067","img/neutralC/CFD-BM-019-002-N.jpg",NA,"img/neutralC/CFD-BM-033-003-N.jpg","0",NA,"1","0",NA,"0","0.541355400113389",NA,"0.567982000065967","1",NA,"1","1",NA,"1","1",NA,"1"
"250067","img/neutralC/CFD-BM-033-003-N.jpg","img/neutralC/CFD-BM-019-002-N.jpg","img/neutralC/CFD-WM-011-002-N.jpg","1","0","1","0","0","0","0.567982000065967","0.541355400113389","0.509998199995607","1","1","1","1","1","1","1","1","1"
"250067","img/neutralC/CFD-WM-011-002-N.jpg","img/neutralC/CFD-BM-033-003-N.jpg","img/neutralC/CFD-WF-213-031-N.jpg","1","1","1","0","0","1","0.509998199995607","0.567982000065967","0.39996839989908","1","1","1","1","1","1","1","1","1"
"250067","img/neutralC/CFD-WF-213-031-N.jpg","img/neutralC/CFD-WM-011-002-N.jpg","img/neutralC/CFD-BF-029-031-N.jpg","1","1","1","1","0","1","0.39996839989908","0.509998199995607","0.363695200067014","1","1","1","1","1","1","1","1","1"
"250067","img/neutralC/CFD-BF-029-031-N.jpg","img/neutralC/CFD-WF-213-031-N.jpg","img/neutralC/CFD-LM-215-247-N.jpg","1","1","0","1","1","0","0.363695200067014","0.39996839989908","0.320924799889326","1","1","1","1","1","1","1","1","1"
"250067","img/neutralC/CFD-LM-215-247-N.jpg","img/neutralC/CFD-BF-029-031-N.jpg","img/neutralC/CFD-BF-205-141-N.jpg","0","1","0","0","1","0","0.320924799889326","0.363695200067014","0.42333020013757","1","1","1","1","1","1","1","1","1"
"250067","img/neutralC/CFD-BF-205-141-N.jpg","img/neutralC/CFD-LM-215-247-N.jpg","img/neutralC/CFD-BF-253-202-N.jpg","0","0","1","0","0","0","0.42333020013757","0.320924799889326","0.428595299832523","1","1","1","1","1","1","1","1","1"
"250067","img/neutralC/CFD-BF-253-202-N.jpg","img/neutralC/CFD-BF-205-141-N.jpg","img/neutralC/CFD-IM-651-308-N.jpg","1","0","1","0","0","0","0.428595299832523","0.42333020013757","0.46454959991388","1","1","1","1","1","1","1","1","1"
"250067","img/neutralC/CFD-IM-651-308-N.jpg","img/neutralC/CFD-BF-253-202-N.jpg","img/neutralC/CFD-WM-021-001-N.jpg","1","1","1","0","0","1","0.46454959991388","0.428595299832523","0.345985800027847","1","1","1","1","1","1","1","1","1"
"250067","img/neutralC/CFD-WM-021-001-N.jpg","img/neutralC/CFD-IM-651-308-N.jpg","img/neutralC/CFD-AM-201-076-N.jpg","1","1","1","1","0","1","0.345985800027847","0.46454959991388","0.593558800173923","1","1","1","1","1","1","1","1","1"
"250067","img/neutralC/CFD-AM-201-076-N.jpg","img/neutralC/CFD-WM-021-001-N.jpg","img/neutralC/CFD-IF-693-172-N.jpg","1","1","0","1","1","0","0.593558800173923","0.345985800027847","0.592258800053969","1","1","1","1","1","1","1","1","2"
"250067","img/neutralC/CFD-IF-693-172-N.jpg","img/neutralC/CFD-AM-201-076-N.jpg","img/neutralC/CFD-LF-224-176-N.jpg","0","1","0","0","1","0","0.592258800053969","0.593558800173923","0.431613400112838","1","1","1","1","1","1","2","1","1"
"250067","img/neutralC/CFD-LF-224-176-N.jpg","img/neutralC/CFD-IF-693-172-N.jpg","img/neutralC/CFD-WF-224-099-N.jpg","0","0","0","0","0","0","0.431613400112838","0.592258800053969","0.414070300059393","1","1","1","1","1","1","1","2","1"
"250067","img/neutralC/CFD-WF-224-099-N.jpg","img/neutralC/CFD-LF-224-176-N.jpg","img/neutralC/CFD-IM-684-008-N.jpg","0","0","1","0","0","1","0.414070300059393","0.431613400112838","0.418001699959859","1","1","1","1","1","1","1","1","1"
"250067","img/neutralC/CFD-IM-684-008-N.jpg","img/neutralC/CFD-WF-224-099-N.jpg","img/neutralC/CFD-BF-039-031-N.jpg","1","0","1","1","0","1","0.418001699959859","0.414070300059393","0.448064700001851","1","1","1","1","1","1","1","1","1"
"250067","img/neutralC/CFD-BF-039-031-N.jpg","img/neutralC/CFD-IM-684-008-N.jpg","img/neutralC/CFD-LF-205-100-N.jpg","1","1","1","1","1","1","0.448064700001851","0.418001699959859","0.403202400077134","1","1","1","1","1","1","1","1","1"
"250067","img/neutralC/CFD-LF-205-100-N.jpg","img/neutralC/CFD-BF-039-031-N.jpg","img/neutralC/CFD-MF-337-026-N.jpg","1","1","1","1","1","1","0.403202400077134","0.448064700001851","0.298202600097284","1","1","1","1","1","1","1","1","1"
"250067","img/neutralC/CFD-MF-337-026-N.jpg","img/neutralC/CFD-LF-205-100-N.jpg","img/neutralC/CFD-LF-230-203-N.jpg","1","1","1","1","1","0","0.298202600097284","0.403202400077134","0.64065260021016","1","1","1","1","1","1","1","1","1"
"250067","img/neutralC/CFD-LF-230-203-N.jpg","img/neutralC/CFD-MF-337-026-N.jpg","img/neutralC/CFD-BF-213-188-N.jpg","1","1","1","0","1","1","0.64065260021016","0.298202600097284","0.447165000019595","1","1","1","1","1","1","1","1","1"
"250067","img/neutralC/CFD-BF-213-188-N.jpg","img/neutralC/CFD-LF-230-203-N.jpg","img/neutralC/CFD-IF-710-016-N.jpg","1","1","1","1","0","0","0.447165000019595","0.64065260021016","0.43865119991824","1","1","1","1","1","1","1","1","1"
"250067","img/neutralC/CFD-IF-710-016-N.jpg","img/neutralC/CFD-BF-213-188-N.jpg","img/neutralC/CFD-IF-634-382-N.jpg","1","1","1","0","1","1","0.43865119991824","0.447165000019595","0.442646100185812","1","1","1","1","1","1","1","1","1"
"250067","img/neutralC/CFD-IF-634-382-N.jpg","img/neutralC/CFD-IF-710-016-N.jpg","img/neutralC/CFD-AF-231-357-N.jpg","1","1","1","1","0","1","0.442646100185812","0.43865119991824","0.424722300143912","1","1","1","1","1","1","1","1","1"
"250067","img/neutralC/CFD-AF-231-357-N.jpg","img/neutralC/CFD-IF-634-382-N.jpg","img/neutralC/CFD-WM-041-021-N.jpg","1","1","1","1","1","0","0.424722300143912","0.442646100185812","0.524533700197935","1","1","1","1","1","1","1","1","1"
"250067","img/neutralC/CFD-WM-041-021-N.jpg","img/neutralC/CFD-AF-231-357-N.jpg","img/neutralC/CFD-LF-214-090-N.jpg","1","1","1","0","1","0","0.524533700197935","0.424722300143912","0.446175699820742","1","1","1","1","1","1","1","1","1"
"250067","img/neutralC/CFD-LF-214-090-N.jpg","img/neutralC/CFD-WM-041-021-N.jpg","img/neutralC/CFD-MM-316-156-N.jpg","1","1","1","0","0","1","0.446175699820742","0.524533700197935","0.344288500025868","1","1","1","1","1","1","1","1","1"
"250067","img/neutralC/CFD-MM-316-156-N.jpg","img/neutralC/CFD-LF-214-090-N.jpg","img/neutralC/CFD-LM-218-183-N.jpg","1","1","1","1","0","1","0.344288500025868","0.446175699820742","0.41650509997271","1","1","1","1","1","1","1","1","1"
"250067","img/neutralC/CFD-LM-218-183-N.jpg","img/neutralC/CFD-MM-316-156-N.jpg","img/neutralC/CFD-AM-212-050-N.jpg","1","1","1","1","1","1","0.41650509997271","0.344288500025868","0.337026000022888","1","1","1","1","1","1","1","1","1"
"250067","img/neutralC/CFD-AM-212-050-N.jpg","img/neutralC/CFD-LM-218-183-N.jpg","img/neutralC/CFD-BM-239-136-N.jpg","1","1","1","1","1","1","0.337026000022888","0.41650509997271","0.387897400185466","1","1","1","1","1","1","1","1","1"
"250067","img/neutralC/CFD-BM-239-136-N.jpg","img/neutralC/CFD-AM-212-050-N.jpg","img/neutralC/CFD-LF-203-066-N.jpg","1","1","0","1","1","0","0.387897400185466","0.337026000022888","0.469017999945208","1","1","1","1","1","1","1","1","1"
"250067","img/neutralC/CFD-LF-203-066-N.jpg","img/neutralC/CFD-BM-239-136-N.jpg","img/neutralC/CFD-BM-041-035-N.jpg","0","1","0","0","1","0","0.469017999945208","0.387897400185466","0.416369099868461","1","1","1","1","1","1","1","1","1"
"250067","img/neutralC/CFD-BM-041-035-N.jpg","img/neutralC/CFD-LF-203-066-N.jpg","img/neutralC/CFD-WF-250-167-N.jpg","0","0","1","0","0","1","0.416369099868461","0.469017999945208","0.369748800061643","1","1","1","1","1","1","1","1","1"
"250067","img/neutralC/CFD-WF-250-167-N.jpg","img/neutralC/CFD-BM-041-035-N.jpg",NA,"1","0",NA,"1","0",NA,"0.369748800061643","0.416369099868461",NA,"1","1",NA,"1","1",NA,"1","1",NA
"250067","img/neutralC/CFD-IM-680-369-N.jpg",NA,"img/neutralC/CFD-IM-702-101-N.jpg","1",NA,"1","1",NA,"1","0.498522599926218",NA,"0.388098700204864","1",NA,"1","1",NA,"1","1",NA,"1"
"250067","img/neutralC/CFD-IM-702-101-N.jpg","img/neutralC/CFD-IM-680-369-N.jpg","img/neutralC/CFD-LM-200-045-N.jpg","1","1","1","1","1","1","0.388098700204864","0.498522599926218","0.338497600052506","1","1","1","1","1","1","1","1","1"
"250067","img/neutralC/CFD-LM-200-045-N.jpg","img/neutralC/CFD-IM-702-101-N.jpg","img/neutralC/CFD-WF-030-002-N.jpg","1","1","1","1","1","0","0.338497600052506","0.388098700204864","0.309392800088972","1","1","1","1","1","1","1","1","1"
"250067","img/neutralC/CFD-WF-030-002-N.jpg","img/neutralC/CFD-LM-200-045-N.jpg","img/neutralC/CFD-WF-222-092-N.jpg","1","1","1","0","1","1","0.309392800088972","0.338497600052506","0.405710499966517","1","1","1","1","1","1","1","1","1"
"250067","img/neutralC/CFD-WF-222-092-N.jpg","img/neutralC/CFD-WF-030-002-N.jpg","img/neutralC/CFD-WF-007-001-N.jpg","1","1","0","1","0","1","0.405710499966517","0.309392800088972","0.422059299889952","1","1","1","1","1","1","1","1","1"
"250067","img/neutralC/CFD-WF-007-001-N.jpg","img/neutralC/CFD-WF-222-092-N.jpg","img/neutralC/CFD-BM-217-082-N.jpg","0","1","1","1","1","0","0.422059299889952","0.405710499966517","0.745367299998179","1","1","1","1","1","1","1","1","1"
"250067","img/neutralC/CFD-BM-217-082-N.jpg","img/neutralC/CFD-WF-007-001-N.jpg","img/neutralC/CFD-MF-316-001-N.jpg","1","0","0","0","1","0","0.745367299998179","0.422059299889952","0.447788099991158","1","1","1","1","1","1","1","1","2"
"250067","img/neutralC/CFD-MF-316-001-N.jpg","img/neutralC/CFD-BM-217-082-N.jpg","img/neutralC/CFD-WM-218-074-N.jpg","0","1","1","0","0","1","0.447788099991158","0.745367299998179","0.385762399993837","1","1","1","1","1","1","2","1","1"
"250067","img/neutralC/CFD-WM-218-074-N.jpg","img/neutralC/CFD-MF-316-001-N.jpg","img/neutralC/CFD-MF-305-014-N.jpg","1","0","1","1","0","1","0.385762399993837","0.447788099991158","0.348561199847609","1","1","1","1","1","1","1","2","1"
"250067","img/neutralC/CFD-MF-305-014-N.jpg","img/neutralC/CFD-WM-218-074-N.jpg","img/neutralC/CFD-WM-209-038-N.jpg","1","1","1","1","1","0","0.348561199847609","0.385762399993837","0.37243440002203","1","1","1","1","1","1","1","1","1"
"250067","img/neutralC/CFD-WM-209-038-N.jpg","img/neutralC/CFD-MF-305-014-N.jpg","img/neutralC/CFD-IM-706-002-N.jpg","1","1","1","0","1","0","0.37243440002203","0.348561199847609","0.407067999942228","1","1","1","1","1","1","1","1","1"
"250067","img/neutralC/CFD-IM-706-002-N.jpg","img/neutralC/CFD-WM-209-038-N.jpg","img/neutralC/CFD-LF-255-088-N.jpg","1","1","0","0","0","0","0.407067999942228","0.37243440002203","0.569444200024009","1","1","1","1","1","1","1","1","1"
"250067","img/neutralC/CFD-LF-255-088-N.jpg","img/neutralC/CFD-IM-706-002-N.jpg","img/neutralC/CFD-LF-206-078-N.jpg","0","1","1","0","0","1","0.569444200024009","0.407067999942228","0.454527900088578","1","1","1","1","1","1","1","1","1"
"250067","img/neutralC/CFD-LF-206-078-N.jpg","img/neutralC/CFD-LF-255-088-N.jpg","img/neutralC/CFD-IF-660-464-N.jpg","1","0","0","1","0","0","0.454527900088578","0.569444200024009","0.386100400006399","1","1","1","1","1","1","1","1","1"
"250067","img/neutralC/CFD-IF-660-464-N.jpg","img/neutralC/CFD-LF-206-078-N.jpg","img/neutralC/CFD-IM-664-651-N.jpg","0","1","1","0","1","1","0.386100400006399","0.454527900088578","0.365288299974054","1","1","1","1","1","1","1","1","1"
"250067","img/neutralC/CFD-IM-664-651-N.jpg","img/neutralC/CFD-IF-660-464-N.jpg","img/neutralC/CFD-AF-233-190-N.jpg","1","0","0","1","0","0","0.365288299974054","0.386100400006399","0.53315020003356","1","1","1","1","1","1","1","1","2"
"250067","img/neutralC/CFD-AF-233-190-N.jpg","img/neutralC/CFD-IM-664-651-N.jpg","img/neutralC/CFD-WF-244-163-N.jpg","0","1","1","0","1","1","0.53315020003356","0.365288299974054","0.378275699913502","1","1","1","1","1","1","2","1","1"
"250067","img/neutralC/CFD-WF-244-163-N.jpg","img/neutralC/CFD-AF-233-190-N.jpg","img/neutralC/CFD-LM-225-130-N.jpg","1","0","0","1","0","0","0.378275699913502","0.53315020003356","0.431004200130701","1","1","1","1","1","1","1","2","1"
"250067","img/neutralC/CFD-LM-225-130-N.jpg","img/neutralC/CFD-WF-244-163-N.jpg","img/neutralC/CFD-BF-237-172-N.jpg","0","1","1","0","1","1","0.431004200130701","0.378275699913502","0.524392600171268","1","1","1","1","1","1","1","1","1"
"250067","img/neutralC/CFD-BF-237-172-N.jpg","img/neutralC/CFD-LM-225-130-N.jpg","img/neutralC/CFD-AF-253-130-N.jpg","1","0","1","1","0","1","0.524392600171268","0.431004200130701","0.549601800041273","1","1","1","1","1","1","1","1","1"
"250067","img/neutralC/CFD-AF-253-130-N.jpg","img/neutralC/CFD-BF-237-172-N.jpg","img/neutralC/CFD-WM-015-002-N.jpg","1","1","0","1","1","0","0.549601800041273","0.524392600171268","0.493888000026345","1","1","1","1","1","1","1","1","1"
"250067","img/neutralC/CFD-WM-015-002-N.jpg","img/neutralC/CFD-AF-253-130-N.jpg","img/neutralC/CFD-MF-357-002-N.jpg","0","1","1","0","1","0","0.493888000026345","0.549601800041273","0.55258690007031","1","1","1","1","1","1","1","1","1"
"250067","img/neutralC/CFD-MF-357-002-N.jpg","img/neutralC/CFD-WM-015-002-N.jpg","img/neutralC/CFD-BM-001-014-N.jpg","1","0","1","0","0","0","0.55258690007031","0.493888000026345","0.382123799994588","1","1","1","1","1","1","1","1","1"
"250067","img/neutralC/CFD-BM-001-014-N.jpg","img/neutralC/CFD-MF-357-002-N.jpg","img/neutralC/CFD-IF-626-375-N.jpg","1","1","1","0","0","0","0.382123799994588","0.55258690007031","0.480717699974775","1","1","1","1","1","1","1","1","1"
"250067","img/neutralC/CFD-IF-626-375-N.jpg","img/neutralC/CFD-BM-001-014-N.jpg","img/neutralC/CFD-BF-014-002-N.jpg","1","1","1","0","0","1","0.480717699974775","0.382123799994588","0.419509700033814","1","1","1","1","1","1","1","1","1"
"250067","img/neutralC/CFD-BF-014-002-N.jpg","img/neutralC/CFD-IF-626-375-N.jpg","img/neutralC/CFD-IM-667-369-N.jpg","1","1","0","1","0","0","0.419509700033814","0.480717699974775","0.423408900154755","1","1","1","1","1","1","1","1","1"
"250067","img/neutralC/CFD-IM-667-369-N.jpg","img/neutralC/CFD-BF-014-002-N.jpg","img/neutralC/CFD-AM-220-134-N.jpg","0","1","0","0","1","0","0.423408900154755","0.419509700033814","0.385776299983263","1","1","1","1","1","1","1","1","1"
"250067","img/neutralC/CFD-AM-220-134-N.jpg","img/neutralC/CFD-IM-667-369-N.jpg","img/neutralC/CFD-BM-250-170-N.jpg","0","0","0","0","0","1","0.385776299983263","0.423408900154755","0.503718000138178","1","1","1","1","1","1","1","1","1"
"250067","img/neutralC/CFD-BM-250-170-N.jpg","img/neutralC/CFD-AM-220-134-N.jpg","img/neutralC/CFD-MF-343-001-N.jpg","0","0","1","1","0","1","0.503718000138178","0.385776299983263","0.388544999994338","1","1","1","1","1","1","1","1","1"
"250067","img/neutralC/CFD-MF-343-001-N.jpg","img/neutralC/CFD-BM-250-170-N.jpg","img/neutralC/CFD-MM-324-069-N.jpg","1","0","1","1","1","1","0.388544999994338","0.503718000138178","0.407911300193518","1","1","1","1","1","1","1","1","1"
"250067","img/neutralC/CFD-MM-324-069-N.jpg","img/neutralC/CFD-MF-343-001-N.jpg","img/neutralC/CFD-MF-303-013-N.jpg","1","1","1","1","1","0","0.407911300193518","0.388544999994338","0.528205499984324","1","1","1","1","1","1","1","1","1"
"250067","img/neutralC/CFD-MF-303-013-N.jpg","img/neutralC/CFD-MM-324-069-N.jpg",NA,"1","1",NA,"0","1",NA,"0.528205499984324","0.407911300193518",NA,"1","1",NA,"1","1",NA,"1","1",NA
"250067","img/neutralC/CFD-AF-210-050-N.jpg",NA,"img/neutralC/CFD-LF-210-220-N.jpg","1",NA,"1","1",NA,"1","0.550938399974257",NA,"0.392266500042751","1",NA,"1","1",NA,"1","1",NA,"1"
"250067","img/neutralC/CFD-LF-210-220-N.jpg","img/neutralC/CFD-AF-210-050-N.jpg","img/neutralC/CFD-WM-228-065-N.jpg","1","1","0","1","1","0","0.392266500042751","0.550938399974257","0.431294600013644","1","1","1","1","1","1","1","1","1"
"250067","img/neutralC/CFD-WM-228-065-N.jpg","img/neutralC/CFD-LF-210-220-N.jpg","img/neutralC/CFD-BM-213-134-N.jpg","0","1","1","0","1","1","0.431294600013644","0.392266500042751","0.467922700103372","1","1","1","1","1","1","1","1","1"
"250067","img/neutralC/CFD-BM-213-134-N.jpg","img/neutralC/CFD-WM-228-065-N.jpg","img/neutralC/CFD-MF-312-002-N.jpg","1","0","1","1","0","1","0.467922700103372","0.431294600013644","0.80911249993369","1","1","1","1","1","1","1","1","1"
"250067","img/neutralC/CFD-MF-312-002-N.jpg","img/neutralC/CFD-BM-213-134-N.jpg","img/neutralC/CFD-AF-239-171-N.jpg","1","1","1","1","1","1","0.80911249993369","0.467922700103372","0.379449800122529","1","1","1","1","1","1","1","1","1"
"250067","img/neutralC/CFD-AF-239-171-N.jpg","img/neutralC/CFD-MF-312-002-N.jpg","img/neutralC/CFD-LM-247-095-N.jpg","1","1","1","1","1","0","0.379449800122529","0.80911249993369","0.5158848001156","1","1","1","1","1","1","1","1","1"
"250067","img/neutralC/CFD-LM-247-095-N.jpg","img/neutralC/CFD-AF-239-171-N.jpg","img/neutralC/CFD-IF-673-389-N.jpg","1","1","1","0","1","0","0.5158848001156","0.379449800122529","0.434247200144455","1","1","1","1","1","1","1","1","1"
"250067","img/neutralC/CFD-IF-673-389-N.jpg","img/neutralC/CFD-LM-247-095-N.jpg","img/neutralC/CFD-MF-336-016-N.jpg","1","1","1","0","0","1","0.434247200144455","0.5158848001156","0.42483239993453","1","1","1","1","1","1","1","1","1"
"250067","img/neutralC/CFD-MF-336-016-N.jpg","img/neutralC/CFD-IF-673-389-N.jpg","img/neutralC/CFD-WF-033-002-N.jpg","1","1","1","1","0","1","0.42483239993453","0.434247200144455","0.763932200148702","1","1","1","1","1","1","1","1","1"
"250067","img/neutralC/CFD-WF-033-002-N.jpg","img/neutralC/CFD-MF-336-016-N.jpg","img/neutralC/CFD-BF-222-240-N.jpg","1","1","0","1","1","0","0.763932200148702","0.42483239993453","0.412702000001445","1","1","1","1","1","1","1","1","1"
"250067","img/neutralC/CFD-BF-222-240-N.jpg","img/neutralC/CFD-WF-033-002-N.jpg","img/neutralC/CFD-BF-004-014-N.jpg","0","1","1","0","1","1","0.412702000001445","0.763932200148702","0.486432400066406","1","1","1","1","1","1","1","1","1"
"250067","img/neutralC/CFD-BF-004-014-N.jpg","img/neutralC/CFD-BF-222-240-N.jpg","img/neutralC/CFD-WM-202-107-N.jpg","1","0","1","1","0","1","0.486432400066406","0.412702000001445","0.422773699974641","1","1","1","1","1","1","1","1","1"
"250067","img/neutralC/CFD-WM-202-107-N.jpg","img/neutralC/CFD-BF-004-014-N.jpg","img/neutralC/CFD-LF-225-164-N.jpg","1","1","0","1","1","1","0.422773699974641","0.486432400066406","1.34432490007021","1","1","1","1","1","1","1","1","1"
"250067","img/neutralC/CFD-LF-225-164-N.jpg","img/neutralC/CFD-WM-202-107-N.jpg","img/neutralC/CFD-WF-223-133-N.jpg","0","1","1","1","1","0","1.34432490007021","0.422773699974641","0.395783999934793","1","1","1","1","1","1","1","1","1"
"250067","img/neutralC/CFD-WF-223-133-N.jpg","img/neutralC/CFD-LF-225-164-N.jpg","img/neutralC/CFD-BM-013-002-N.jpg","1","0","1","0","1","1","0.395783999934793","1.34432490007021","0.349529500119388","1","1","1","1","1","1","1","1","1"
"250067","img/neutralC/CFD-BM-013-002-N.jpg","img/neutralC/CFD-WF-223-133-N.jpg","img/neutralC/CFD-LM-238-129-N.jpg","1","1","1","1","0","1","0.349529500119388","0.395783999934793","0.30704029998742","1","1","1","1","1","1","1","1","1"
"250067","img/neutralC/CFD-LM-238-129-N.jpg","img/neutralC/CFD-BM-013-002-N.jpg","img/neutralC/CFD-WF-006-002-N.jpg","1","1","0","1","1","0","0.30704029998742","0.349529500119388",NA,"1","1","0","1","1","0","1","1","0"
"250067","img/neutralC/CFD-WF-006-002-N.jpg","img/neutralC/CFD-LM-238-129-N.jpg","img/neutralC/CFD-IM-701-312-N.jpg","0","1","0","0","1","0",NA,"0.30704029998742","0.433701999951154","0","1","1","0","1","1","0","1","1"
"250067","img/neutralC/CFD-IM-701-312-N.jpg","img/neutralC/CFD-WF-006-002-N.jpg","img/neutralC/CFD-LF-241-188-N.jpg","0","0","0","0","0","0","0.433701999951154",NA,"0.493535100016743","1","0","1","1","0","1","1","0","1"
"250067","img/neutralC/CFD-LF-241-188-N.jpg","img/neutralC/CFD-IM-701-312-N.jpg","img/neutralC/CFD-BM-028-002-N.jpg","0","0","0","0","0","1","0.493535100016743","0.433701999951154","0.33202109998092","1","1","1","1","1","1","1","1","1"
"250067","img/neutralC/CFD-BM-028-002-N.jpg","img/neutralC/CFD-LF-241-188-N.jpg","img/neutralC/CFD-AM-221-184-N.jpg","0","0","1","1","0","1","0.33202109998092","0.493535100016743","0.337741099996492","1","1","1","1","1","1","1","1","1"
"250067","img/neutralC/CFD-AM-221-184-N.jpg","img/neutralC/CFD-BM-028-002-N.jpg","img/neutralC/CFD-BM-010-003-N.jpg","1","0","1","1","1","0","0.337741099996492","0.33202109998092","0.415422899881378","1","1","1","1","1","1","1","1","1"
"250067","img/neutralC/CFD-BM-010-003-N.jpg","img/neutralC/CFD-AM-221-184-N.jpg","img/neutralC/CFD-LF-208-127-N.jpg","1","1","0","0","1","0","0.415422899881378","0.337741099996492","0.48229860002175","1","1","1","1","1","1","1","1","1"
"250067","img/neutralC/CFD-LF-208-127-N.jpg","img/neutralC/CFD-BM-010-003-N.jpg","img/neutralC/CFD-IF-625-225-N.jpg","0","1","1","0","0","0","0.48229860002175","0.415422899881378","0.410564299905673","1","1","1","1","1","1","1","1","1"
"250067","img/neutralC/CFD-IF-625-225-N.jpg","img/neutralC/CFD-LF-208-127-N.jpg","img/neutralC/CFD-IF-744-114-N.jpg","1","0","0","0","0","0","0.410564299905673","0.48229860002175","0.427288099890575","1","1","1","1","1","1","1","1","1"
"250067","img/neutralC/CFD-IF-744-114-N.jpg","img/neutralC/CFD-IF-625-225-N.jpg","img/neutralC/CFD-BM-003-003-N.jpg","0","1","0","0","0","0","0.427288099890575","0.410564299905673","0.366581300040707","1","1","1","1","1","1","1","1","1"
"250067","img/neutralC/CFD-BM-003-003-N.jpg","img/neutralC/CFD-IF-744-114-N.jpg","img/neutralC/CFD-AF-227-207-N.jpg","0","0","1","0","0","1","0.366581300040707","0.427288099890575","0.387010599952191","1","1","1","1","1","1","1","1","1"
"250067","img/neutralC/CFD-AF-227-207-N.jpg","img/neutralC/CFD-BM-003-003-N.jpg","img/neutralC/CFD-IM-659-359-N.jpg","1","0","0","1","0","0","0.387010599952191","0.366581300040707","0.420193600002676","1","1","1","1","1","1","1","1","1"
"250067","img/neutralC/CFD-IM-659-359-N.jpg","img/neutralC/CFD-AF-227-207-N.jpg","img/neutralC/CFD-BF-045-003-N.jpg","0","1","1","0","1","0","0.420193600002676","0.387010599952191","0.641468100016937","1","1","1","1","1","1","1","1","1"
"250067","img/neutralC/CFD-BF-045-003-N.jpg","img/neutralC/CFD-IM-659-359-N.jpg","img/neutralC/CFD-WM-254-152-N.jpg","1","0","1","0","0","1","0.641468100016937","0.420193600002676","0.446049799909815","1","1","1","1","1","1","1","1","1"
"250067","img/neutralC/CFD-WM-254-152-N.jpg","img/neutralC/CFD-BF-045-003-N.jpg","img/neutralC/CFD-IM-738-191-N.jpg","1","1","1","1","0","0","0.446049799909815","0.641468100016937","0.431858900003135","1","1","1","1","1","1","1","1","1"
"250067","img/neutralC/CFD-IM-738-191-N.jpg","img/neutralC/CFD-WM-254-152-N.jpg",NA,"1","1",NA,"0","1",NA,"0.431858900003135","0.446049799909815",NA,"1","1",NA,"1","1",NA,"1","1",NA
"250067","img/neutralC/CFD-WM-219-008-N.jpg",NA,"img/neutralC/CFD-MF-352-054-N.jpg","1",NA,"0","0",NA,"0","0.695402799872681",NA,"0.377140600001439","1",NA,"1","1",NA,"1","1",NA,"1"
"250067","img/neutralC/CFD-MF-352-054-N.jpg","img/neutralC/CFD-WM-219-008-N.jpg","img/neutralC/CFD-WM-033-025-N.jpg","0","1","1","0","0","1","0.377140600001439","0.695402799872681","0.496310899965465","1","1","1","1","1","1","1","1","1"
"250067","img/neutralC/CFD-WM-033-025-N.jpg","img/neutralC/CFD-MF-352-054-N.jpg","img/neutralC/CFD-IF-650-315-N.jpg","1","0","1","1","0","0","0.496310899965465","0.377140600001439","0.581695799948648","1","1","1","1","1","1","1","1","1"
"250067","img/neutralC/CFD-IF-650-315-N.jpg","img/neutralC/CFD-WM-033-025-N.jpg","img/neutralC/CFD-IM-743-006-N.jpg","1","1","1","0","1","1","0.581695799948648","0.496310899965465","0.58839530008845","1","1","1","1","1","1","1","1","1"
"250067","img/neutralC/CFD-IM-743-006-N.jpg","img/neutralC/CFD-IF-650-315-N.jpg","img/neutralC/CFD-WM-020-001-N.jpg","1","1","1","1","0","1","0.58839530008845","0.581695799948648","0.469466499984264","1","1","1","1","1","1","1","1","1"
"250067","img/neutralC/CFD-WM-020-001-N.jpg","img/neutralC/CFD-IM-743-006-N.jpg","img/neutralC/CFD-LF-220-120-N.jpg","1","1","1","1","1","1","0.469466499984264","0.58839530008845","0.485204000025988","1","1","1","1","1","1","1","1","1"
"250067","img/neutralC/CFD-LF-220-120-N.jpg","img/neutralC/CFD-WM-020-001-N.jpg","img/neutralC/CFD-MF-359-019-N.jpg","1","1","0","1","1","0","0.485204000025988","0.469466499984264","0.385341299930587","1","1","1","1","1","1","1","1","1"
"250067","img/neutralC/CFD-MF-359-019-N.jpg","img/neutralC/CFD-LF-220-120-N.jpg","img/neutralC/CFD-LM-228-188-N.jpg","0","1","1","0","1","1","0.385341299930587","0.485204000025988","0.481671699788421","1","1","1","1","1","1","1","1","1"
"250067","img/neutralC/CFD-LM-228-188-N.jpg","img/neutralC/CFD-MF-359-019-N.jpg","img/neutralC/CFD-WF-001-003-N.jpg","1","0","1","1","0","1","0.481671699788421","0.385341299930587","0.416545399930328","1","1","1","1","1","1","1","1","1"
"250067","img/neutralC/CFD-WF-001-003-N.jpg","img/neutralC/CFD-LM-228-188-N.jpg","img/neutralC/CFD-LM-237-264-N.jpg","1","1","0","1","1","0","0.416545399930328","0.481671699788421","0.359871200053021","1","1","1","1","1","1","1","1","1"
"250067","img/neutralC/CFD-LM-237-264-N.jpg","img/neutralC/CFD-WF-001-003-N.jpg","img/neutralC/CFD-BF-038-037-N.jpg","0","1","1","0","1","1","0.359871200053021","0.416545399930328","0.419724599923939","1","1","1","1","1","1","1","1","1"
"250067","img/neutralC/CFD-BF-038-037-N.jpg","img/neutralC/CFD-LM-237-264-N.jpg","img/neutralC/CFD-WF-036-023-N.jpg","1","0","0","1","0","0","0.419724599923939","0.359871200053021","0.376117800129578","1","1","1","1","1","1","1","1","1"
"250067","img/neutralC/CFD-WF-036-023-N.jpg","img/neutralC/CFD-BF-038-037-N.jpg","img/neutralC/CFD-IM-616-214-N.jpg","0","1","0","0","1","0","0.376117800129578","0.419724599923939","0.393009100109339","1","1","1","1","1","1","1","1","1"
"250067","img/neutralC/CFD-IM-616-214-N.jpg","img/neutralC/CFD-WF-036-023-N.jpg","img/neutralC/CFD-WF-200-099-N.jpg","0","0","1","0","0","0","0.393009100109339","0.376117800129578","0.439062899909914","1","1","1","1","1","1","1","1","1"
"250067","img/neutralC/CFD-WF-200-099-N.jpg","img/neutralC/CFD-IM-616-214-N.jpg","img/neutralC/CFD-BM-253-004-N.jpg","1","0","1","0","0","1","0.439062899909914","0.393009100109339","0.386934000067413","1","1","1","1","1","1","1","1","1"
"250067","img/neutralC/CFD-BM-253-004-N.jpg","img/neutralC/CFD-WF-200-099-N.jpg","img/neutralC/CFD-AM-211-052-N.jpg","1","1","1","1","0","1","0.386934000067413","0.439062899909914","0.375998300034553","1","1","1","1","1","1","1","1","1"
"250067","img/neutralC/CFD-AM-211-052-N.jpg","img/neutralC/CFD-BM-253-004-N.jpg","img/neutralC/CFD-BF-229-179-N.jpg","1","1","1","1","1","0","0.375998300034553","0.386934000067413","0.533641499932855","1","1","1","1","1","1","1","1","1"
"250067","img/neutralC/CFD-BF-229-179-N.jpg","img/neutralC/CFD-AM-211-052-N.jpg","img/neutralC/CFD-BF-232-187-N.jpg","1","1","1","0","1","1","0.533641499932855","0.375998300034553","0.433278700103983","1","1","1","1","1","1","1","1","1"
"250067","img/neutralC/CFD-BF-232-187-N.jpg","img/neutralC/CFD-BF-229-179-N.jpg","img/neutralC/CFD-IM-703-182-N.jpg","1","1","1","1","0","1","0.433278700103983","0.533641499932855","1.09701160015538","1","1","1","1","1","1","1","1","1"
"250067","img/neutralC/CFD-IM-703-182-N.jpg","img/neutralC/CFD-BF-232-187-N.jpg","img/neutralC/CFD-BF-226-119-N.jpg","1","1","1","1","1","1","1.09701160015538","0.433278700103983","0.464960299897939","1","1","1","1","1","1","1","1","1"
"250067","img/neutralC/CFD-BF-226-119-N.jpg","img/neutralC/CFD-IM-703-182-N.jpg","img/neutralC/CFD-WM-004-010-N.jpg","1","1","1","1","1","0","0.464960299897939","1.09701160015538","0.334580899914727","1","1","1","1","1","1","1","1","1"
"250067","img/neutralC/CFD-WM-004-010-N.jpg","img/neutralC/CFD-BF-226-119-N.jpg","img/neutralC/CFD-LF-218-072-N.jpg","1","1","0","0","1","0","0.334580899914727","0.464960299897939","0.50541410013102","1","1","1","1","1","1","1","1","1"
"250067","img/neutralC/CFD-LF-218-072-N.jpg","img/neutralC/CFD-WM-004-010-N.jpg","img/neutralC/CFD-WM-235-147-N.jpg","0","1","0","0","0","0","0.50541410013102","0.334580899914727","0.408128699986264","1","1","1","1","1","1","1","1","1"
"250067","img/neutralC/CFD-WM-235-147-N.jpg","img/neutralC/CFD-LF-218-072-N.jpg","img/neutralC/CFD-WF-214-122-N.jpg","0","0","1","0","0","1","0.408128699986264","0.50541410013102","0.354231100063771","1","1","1","1","1","1","1","1","1"
"250067","img/neutralC/CFD-WF-214-122-N.jpg","img/neutralC/CFD-WM-235-147-N.jpg","img/neutralC/CFD-MF-333-012-N.jpg","1","0","0","1","0","0","0.354231100063771","0.408128699986264","0.416937700007111","1","1","1","1","1","1","1","1","1"
"250067","img/neutralC/CFD-MF-333-012-N.jpg","img/neutralC/CFD-WF-214-122-N.jpg","img/neutralC/CFD-IM-671-601-N.jpg","0","1","0","0","1","0","0.416937700007111","0.354231100063771","0.411228799959645","1","1","1","1","1","1","1","1","1"
"250067","img/neutralC/CFD-IM-671-601-N.jpg","img/neutralC/CFD-MF-333-012-N.jpg","img/neutralC/CFD-AM-242-176-N.jpg","0","0","0","0","0","1","0.411228799959645","0.416937700007111","0.438585400115699","1","1","1","1","1","1","1","1","1"
"250067","img/neutralC/CFD-AM-242-176-N.jpg","img/neutralC/CFD-IM-671-601-N.jpg","img/neutralC/CFD-BM-225-154-N.jpg","0","0","0","1","0","1","0.438585400115699","0.411228799959645",NA,"1","1","0","1","1","0","1","1","0"
"250067","img/neutralC/CFD-BM-225-154-N.jpg","img/neutralC/CFD-AM-242-176-N.jpg","img/neutralC/CFD-IM-645-001-N.jpg","0","0","1","1","1","0",NA,"0.438585400115699","0.576784499920905","0","1","1","0","1","1","0","1","1"
"250067","img/neutralC/CFD-IM-645-001-N.jpg","img/neutralC/CFD-BM-225-154-N.jpg","img/neutralC/CFD-AM-251-124-N.jpg","1","0","0","0","1","0","0.576784499920905",NA,"0.450424799928442","1","0","1","1","0","1","1","0","1"
"250067","img/neutralC/CFD-AM-251-124-N.jpg","img/neutralC/CFD-IM-645-001-N.jpg","img/neutralC/CFD-IF-623-129-N.jpg","0","1","0","0","0","1","0.450424799928442","0.576784499920905",NA,"1","1","0","1","1","0","1","1","0"
"250067","img/neutralC/CFD-IF-623-129-N.jpg","img/neutralC/CFD-AM-251-124-N.jpg",NA,"0","0",NA,"1","0",NA,NA,"0.450424799928442",NA,"0","1",NA,"0","1",NA,"0","1",NA
