"participant_id","current_trial_face","pre_trial_face","post_trial_face","current_trial_accuracy","pre_trial_accuracy","post_trial_accuracy","current_trial_congruency","pre_trial_congruency","post_trial_congruency","current_trial_rt","pre_trial_rt","post_trial_rt","current_trial_responded","pre_trial_responded","post_trial_responded","current_trial_legitResponse","pre_trial_legitResponse","post_trial_legitResponse","current_trial_resp_nums","pre_trial_resp_nums","post_trial_resp_nums"
"250025","img/neutralC/CFD-MF-302-027-N.jpg",NA,"img/neutralC/CFD-IM-632-097-N.jpg","1",NA,"1","0",NA,"0","1.34685129999707",NA,"0.651026799998363","1",NA,"1","1",NA,"1","1",NA,"1"
"250025","img/neutralC/CFD-IM-632-097-N.jpg","img/neutralC/CFD-MF-302-027-N.jpg","img/neutralC/CFD-AF-244-168-N.jpg","1","1","1","0","0","0","0.651026799998363","1.34685129999707","0.826624399996945","1","1","1","1","1","1","1","1","1"
"250025","img/neutralC/CFD-AF-244-168-N.jpg","img/neutralC/CFD-IM-632-097-N.jpg","img/neutralC/CFD-IM-669-111-N.jpg","1","1","1","0","0","1","0.826624399996945","0.651026799998363","0.685186999995494","1","1","1","1","1","1","1","1","1"
"250025","img/neutralC/CFD-IM-669-111-N.jpg","img/neutralC/CFD-AF-244-168-N.jpg","img/neutralC/CFD-BF-217-189-N.jpg","1","1","1","1","0","0","0.685186999995494","0.826624399996945","0.712308100002701","1","1","1","1","1","1","1","1","1"
"250025","img/neutralC/CFD-BF-217-189-N.jpg","img/neutralC/CFD-IM-669-111-N.jpg","img/neutralC/CFD-AM-233-236-N.jpg","1","1","1","0","1","1","0.712308100002701","0.685186999995494","0.764088699987042","1","1","1","1","1","1","1","1","1"
"250025","img/neutralC/CFD-AM-233-236-N.jpg","img/neutralC/CFD-BF-217-189-N.jpg","img/neutralC/CFD-AF-205-155-N.jpg","1","1","1","1","0","0","0.764088699987042","0.712308100002701","0.821882899996126","1","1","1","1","1","1","1","1","1"
"250025","img/neutralC/CFD-AF-205-155-N.jpg","img/neutralC/CFD-AM-233-236-N.jpg","img/neutralC/CFD-BM-215-155-N.jpg","1","1","1","0","1","0","0.821882899996126","0.764088699987042","0.725356100010686","1","1","1","1","1","1","1","1","1"
"250025","img/neutralC/CFD-BM-215-155-N.jpg","img/neutralC/CFD-AF-205-155-N.jpg","img/neutralC/CFD-AF-250-200-N.jpg","1","1","1","0","0","1","0.725356100010686","0.821882899996126","0.701242600000114","1","1","1","1","1","1","1","1","1"
"250025","img/neutralC/CFD-AF-250-200-N.jpg","img/neutralC/CFD-BM-215-155-N.jpg","img/neutralC/CFD-IM-635-010-N.jpg","1","1","1","1","0","1","0.701242600000114","0.725356100010686","0.661702099998365","1","1","1","1","1","1","1","1","1"
"250025","img/neutralC/CFD-IM-635-010-N.jpg","img/neutralC/CFD-AF-250-200-N.jpg","img/neutralC/CFD-AF-246-242-N.jpg","1","1","1","1","1","0","0.661702099998365","0.701242600000114","0.697140000003856","1","1","1","1","1","1","1","1","1"
"250025","img/neutralC/CFD-AF-246-242-N.jpg","img/neutralC/CFD-IM-635-010-N.jpg","img/neutralC/CFD-MF-307-002-N.jpg","1","1","1","0","1","1","0.697140000003856","0.661702099998365","0.620497600000817","1","1","1","1","1","1","1","1","1"
"250025","img/neutralC/CFD-MF-307-002-N.jpg","img/neutralC/CFD-AF-246-242-N.jpg","img/neutralC/CFD-IM-678-482-N.jpg","1","1","1","1","0","0","0.620497600000817","0.697140000003856","0.666413700004341","1","1","1","1","1","1","1","1","1"
"250025","img/neutralC/CFD-IM-678-482-N.jpg","img/neutralC/CFD-MF-307-002-N.jpg","img/neutralC/CFD-LM-204-001-N.jpg","1","1","1","0","1","0","0.666413700004341","0.620497600000817","0.691249099996639","1","1","1","1","1","1","1","1","1"
"250025","img/neutralC/CFD-LM-204-001-N.jpg","img/neutralC/CFD-IM-678-482-N.jpg","img/neutralC/CFD-AF-213-126-N.jpg","1","1","1","0","0","1","0.691249099996639","0.666413700004341","0.632394299987936","1","1","1","1","1","1","1","1","1"
"250025","img/neutralC/CFD-AF-213-126-N.jpg","img/neutralC/CFD-LM-204-001-N.jpg","img/neutralC/CFD-BF-020-002-N.jpg","1","1","1","1","0","1","0.632394299987936","0.691249099996639","0.902650700008962","1","1","1","1","1","1","1","1","1"
"250025","img/neutralC/CFD-BF-020-002-N.jpg","img/neutralC/CFD-AF-213-126-N.jpg","img/neutralC/CFD-BM-004-002-N.jpg","1","1","1","1","1","0","0.902650700008962","0.632394299987936","0.679712400000426","1","1","1","1","1","1","1","1","1"
"250025","img/neutralC/CFD-BM-004-002-N.jpg","img/neutralC/CFD-BF-020-002-N.jpg","img/neutralC/CFD-BF-235-168-N.jpg","1","1","1","0","1","1","0.679712400000426","0.902650700008962","1.00128869999025","1","1","1","1","1","1","1","1","1"
"250025","img/neutralC/CFD-BF-235-168-N.jpg","img/neutralC/CFD-BM-004-002-N.jpg","img/neutralC/CFD-BF-040-003-N.jpg","1","1","1","1","0","1","1.00128869999025","0.679712400000426","0.503352499988978","1","1","1","1","1","1","1","1","1"
"250025","img/neutralC/CFD-BF-040-003-N.jpg","img/neutralC/CFD-BF-235-168-N.jpg","img/neutralC/CFD-AF-234-208-N.jpg","1","1","1","1","1","1","0.503352499988978","1.00128869999025","0.522251699992921","1","1","1","1","1","1","1","1","1"
"250025","img/neutralC/CFD-AF-234-208-N.jpg","img/neutralC/CFD-BF-040-003-N.jpg","img/neutralC/CFD-WF-210-086-N.jpg","1","1","1","1","1","0","0.522251699992921","0.503352499988978","1.1385089999967","1","1","1","1","1","1","1","1","1"
"250025","img/neutralC/CFD-WF-210-086-N.jpg","img/neutralC/CFD-AF-234-208-N.jpg","img/neutralC/CFD-BF-206-143-N.jpg","1","1","1","0","1","1","1.1385089999967","0.522251699992921","0.960668799991254","1","1","1","1","1","1","1","1","1"
"250025","img/neutralC/CFD-BF-206-143-N.jpg","img/neutralC/CFD-WF-210-086-N.jpg","img/neutralC/CFD-AM-245-111-N.jpg","1","1","1","1","0","1","0.960668799991254","1.1385089999967","0.719874599992181","1","1","1","1","1","1","1","1","1"
"250025","img/neutralC/CFD-AM-245-111-N.jpg","img/neutralC/CFD-BF-206-143-N.jpg","img/neutralC/CFD-BF-042-026-N.jpg","1","1","1","1","1","1","0.719874599992181","0.960668799991254","0.856360899997526","1","1","1","1","1","1","1","1","1"
"250025","img/neutralC/CFD-BF-042-026-N.jpg","img/neutralC/CFD-AM-245-111-N.jpg","img/neutralC/CFD-LF-239-148-N.jpg","1","1","1","1","1","0","0.856360899997526","0.719874599992181","0.91648049998912","1","1","1","1","1","1","1","1","1"
"250025","img/neutralC/CFD-LF-239-148-N.jpg","img/neutralC/CFD-BF-042-026-N.jpg","img/neutralC/CFD-LM-241-125-N.jpg","1","1","1","0","1","1","0.91648049998912","0.856360899997526","0.647817699995358","1","1","1","1","1","1","1","1","1"
"250025","img/neutralC/CFD-LM-241-125-N.jpg","img/neutralC/CFD-LF-239-148-N.jpg","img/neutralC/CFD-IF-636-011-N.jpg","1","1","1","1","0","1","0.647817699995358","0.91648049998912","0.872330400001374","1","1","1","1","1","1","1","1","1"
"250025","img/neutralC/CFD-IF-636-011-N.jpg","img/neutralC/CFD-LM-241-125-N.jpg","img/neutralC/CFD-WF-235-121-N.jpg","1","1","1","1","1","0","0.872330400001374","0.647817699995358","0.711282699994626","1","1","1","1","1","1","1","1","1"
"250025","img/neutralC/CFD-WF-235-121-N.jpg","img/neutralC/CFD-IF-636-011-N.jpg","img/neutralC/CFD-WM-253-119-N.jpg","1","1","1","0","1","1","0.711282699994626","0.872330400001374","0.914647700003116","1","1","1","1","1","1","1","1","1"
"250025","img/neutralC/CFD-WM-253-119-N.jpg","img/neutralC/CFD-WF-235-121-N.jpg","img/neutralC/CFD-WM-018-002-N.jpg","1","1","1","1","0","0","0.914647700003116","0.711282699994626","0.709590999991633","1","1","1","1","1","1","1","1","1"
"250025","img/neutralC/CFD-WM-018-002-N.jpg","img/neutralC/CFD-WM-253-119-N.jpg","img/neutralC/CFD-IF-732-260-N.jpg","1","1","1","0","1","0","0.709590999991633","0.914647700003116","0.637364299996989","1","1","1","1","1","1","1","1","1"
"250025","img/neutralC/CFD-IF-732-260-N.jpg","img/neutralC/CFD-WM-018-002-N.jpg","img/neutralC/CFD-AM-225-102-N.jpg","1","1","1","0","0","0","0.637364299996989","0.709590999991633","0.642729699990014","1","1","1","1","1","1","1","1","1"
"250025","img/neutralC/CFD-AM-225-102-N.jpg","img/neutralC/CFD-IF-732-260-N.jpg",NA,"1","1",NA,"0","0",NA,"0.642729699990014","0.637364299996989",NA,"1","1",NA,"1","1",NA,"1","1",NA
"250025","img/neutralC/CFD-WF-027-003-N.jpg",NA,"img/neutralC/CFD-WM-237-052-N.jpg","1",NA,"1","1",NA,"1","0.49747539999953",NA,"0.542132399990805","1",NA,"1","1",NA,"1","1",NA,"1"
"250025","img/neutralC/CFD-WM-237-052-N.jpg","img/neutralC/CFD-WF-027-003-N.jpg","img/neutralC/CFD-LF-211-003-N.jpg","1","1","1","1","1","0","0.542132399990805","0.49747539999953","0.695771700004116","1","1","1","1","1","1","1","1","1"
"250025","img/neutralC/CFD-LF-211-003-N.jpg","img/neutralC/CFD-WM-237-052-N.jpg","img/neutralC/CFD-BF-254-201-N.jpg","1","1","1","0","1","0","0.695771700004116","0.542132399990805","0.507694700005231","1","1","1","1","1","1","1","1","1"
"250025","img/neutralC/CFD-BF-254-201-N.jpg","img/neutralC/CFD-LF-211-003-N.jpg","img/neutralC/CFD-MF-318-022-N.jpg","1","1","1","0","0","1","0.507694700005231","0.695771700004116","0.459636500003398","1","1","1","1","1","1","1","1","1"
"250025","img/neutralC/CFD-MF-318-022-N.jpg","img/neutralC/CFD-BF-254-201-N.jpg","img/neutralC/CFD-IF-629-234-N.jpg","1","1","1","1","0","0","0.459636500003398","0.507694700005231","0.544555900007254","1","1","1","1","1","1","1","1","1"
"250025","img/neutralC/CFD-IF-629-234-N.jpg","img/neutralC/CFD-MF-318-022-N.jpg","img/neutralC/CFD-MF-342-022-N.jpg","1","1","1","0","1","1","0.544555900007254","0.459636500003398","0.624709099996835","1","1","1","1","1","1","1","1","1"
"250025","img/neutralC/CFD-MF-342-022-N.jpg","img/neutralC/CFD-IF-629-234-N.jpg","img/neutralC/CFD-IM-700-009-N.jpg","1","1","1","1","0","1","0.624709099996835","0.544555900007254","0.560917099996004","1","1","1","1","1","1","1","1","1"
"250025","img/neutralC/CFD-IM-700-009-N.jpg","img/neutralC/CFD-MF-342-022-N.jpg","img/neutralC/CFD-WF-245-084-N.jpg","1","1","1","1","1","1","0.560917099996004","0.624709099996835","0.609553000002052","1","1","1","1","1","1","1","1","1"
"250025","img/neutralC/CFD-WF-245-084-N.jpg","img/neutralC/CFD-IM-700-009-N.jpg","img/neutralC/CFD-BM-204-003-N.jpg","1","1","1","1","1","0","0.609553000002052","0.560917099996004","0.54247139999643","1","1","1","1","1","1","1","1","1"
"250025","img/neutralC/CFD-BM-204-003-N.jpg","img/neutralC/CFD-WF-245-084-N.jpg","img/neutralC/CFD-BM-200-046-N.jpg","1","1","1","0","1","0","0.54247139999643","0.609553000002052","0.78844050000771","1","1","1","1","1","1","1","1","1"
"250025","img/neutralC/CFD-BM-200-046-N.jpg","img/neutralC/CFD-BM-204-003-N.jpg","img/neutralC/CFD-LM-253-075-N.jpg","1","1","1","0","0","0","0.78844050000771","0.54247139999643","0.690998299993225","1","1","1","1","1","1","1","1","1"
"250025","img/neutralC/CFD-LM-253-075-N.jpg","img/neutralC/CFD-BM-200-046-N.jpg","img/neutralC/CFD-WM-013-001-N.jpg","1","1","1","0","0","1","0.690998299993225","0.78844050000771","0.620383399989805","1","1","1","1","1","1","1","1","1"
"250025","img/neutralC/CFD-WM-013-001-N.jpg","img/neutralC/CFD-LM-253-075-N.jpg","img/neutralC/CFD-WF-018-017-N.jpg","1","1","1","1","0","1","0.620383399989805","0.690998299993225","0.496742899995297","1","1","1","1","1","1","1","1","1"
"250025","img/neutralC/CFD-WF-018-017-N.jpg","img/neutralC/CFD-WM-013-001-N.jpg","img/neutralC/CFD-WF-023-003-N.jpg","1","1","1","1","1","1","0.496742899995297","0.620383399989805","0.64576179998403","1","1","1","1","1","1","1","1","1"
"250025","img/neutralC/CFD-WF-023-003-N.jpg","img/neutralC/CFD-WF-018-017-N.jpg","img/neutralC/CFD-BM-023-029-N.jpg","1","1","1","1","1","1","0.64576179998403","0.496742899995297","0.649008399996092","1","1","1","1","1","1","1","1","1"
"250025","img/neutralC/CFD-BM-023-029-N.jpg","img/neutralC/CFD-WF-023-003-N.jpg","img/neutralC/CFD-LF-215-157-N.jpg","1","1","0","1","1","0","0.649008399996092","0.64576179998403","0.663590199997998","1","1","1","1","1","1","1","1","1"
"250025","img/neutralC/CFD-LF-215-157-N.jpg","img/neutralC/CFD-BM-023-029-N.jpg","img/neutralC/CFD-AF-232-078-N.jpg","0","1","1","0","1","1","0.663590199997998","0.649008399996092","0.644086600004812","1","1","1","1","1","1","1","1","1"
"250025","img/neutralC/CFD-AF-232-078-N.jpg","img/neutralC/CFD-LF-215-157-N.jpg","img/neutralC/CFD-BF-218-207-N.jpg","1","0","1","1","0","1","0.644086600004812","0.663590199997998","0.829193300000043","1","1","1","1","1","1","1","1","1"
"250025","img/neutralC/CFD-BF-218-207-N.jpg","img/neutralC/CFD-AF-232-078-N.jpg","img/neutralC/CFD-IM-719-221-N.jpg","1","1","1","1","1","0","0.829193300000043","0.644086600004812","0.963371100006043","1","1","1","1","1","1","1","1","1"
"250025","img/neutralC/CFD-IM-719-221-N.jpg","img/neutralC/CFD-BF-218-207-N.jpg","img/neutralC/CFD-IM-627-178-N.jpg","1","1","1","0","1","1","0.963371100006043","0.829193300000043","0.620256700000027","1","1","1","1","1","1","1","1","1"
"250025","img/neutralC/CFD-IM-627-178-N.jpg","img/neutralC/CFD-IM-719-221-N.jpg","img/neutralC/CFD-WF-238-023-N.jpg","1","1","1","1","0","0","0.620256700000027","0.963371100006043","0.711856199995964","1","1","1","1","1","1","1","1","1"
"250025","img/neutralC/CFD-WF-238-023-N.jpg","img/neutralC/CFD-IM-627-178-N.jpg","img/neutralC/CFD-WM-009-002-N.jpg","1","1","1","0","1","0","0.711856199995964","0.620256700000027","0.887732499992126","1","1","1","1","1","1","1","1","1"
"250025","img/neutralC/CFD-WM-009-002-N.jpg","img/neutralC/CFD-WF-238-023-N.jpg","img/neutralC/CFD-WM-201-063-N.jpg","1","1","1","0","0","1","0.887732499992126","0.711856199995964","0.581108699989272","1","1","1","1","1","1","1","1","1"
"250025","img/neutralC/CFD-WM-201-063-N.jpg","img/neutralC/CFD-WM-009-002-N.jpg","img/neutralC/CFD-WM-221-091-N.jpg","1","1","1","1","0","0","0.581108699989272","0.887732499992126","0.690683399996487","1","1","1","1","1","1","1","1","1"
"250025","img/neutralC/CFD-WM-221-091-N.jpg","img/neutralC/CFD-WM-201-063-N.jpg","img/neutralC/CFD-BF-018-039-N.jpg","1","1","1","0","1","1","0.690683399996487","0.581108699989272","0.531754199997522","1","1","1","1","1","1","1","1","1"
"250025","img/neutralC/CFD-BF-018-039-N.jpg","img/neutralC/CFD-WM-221-091-N.jpg","img/neutralC/CFD-AF-221-147-N.jpg","1","1","1","1","0","0","0.531754199997522","0.690683399996487","1.12586219998775","1","1","1","1","1","1","1","1","1"
"250025","img/neutralC/CFD-AF-221-147-N.jpg","img/neutralC/CFD-BF-018-039-N.jpg","img/neutralC/CFD-MM-321-021-N.jpg","1","1","1","0","1","0","1.12586219998775","0.531754199997522","0.64962270000251","1","1","1","1","1","1","1","1","1"
"250025","img/neutralC/CFD-MM-321-021-N.jpg","img/neutralC/CFD-AF-221-147-N.jpg","img/neutralC/CFD-AM-244-222-N.jpg","1","1","1","0","0","0","0.64962270000251","1.12586219998775","0.591679899996961","1","1","1","1","1","1","1","1","1"
"250025","img/neutralC/CFD-AM-244-222-N.jpg","img/neutralC/CFD-MM-321-021-N.jpg","img/neutralC/CFD-MF-321-003-N.jpg","1","1","1","0","0","0","0.591679899996961","0.64962270000251","0.592313999994076","1","1","1","1","1","1","1","1","1"
"250025","img/neutralC/CFD-MF-321-003-N.jpg","img/neutralC/CFD-AM-244-222-N.jpg","img/neutralC/CFD-WF-226-095-N.jpg","1","1","1","0","0","1","0.592313999994076","0.591679899996961","0.606796699998085","1","1","1","1","1","1","1","1","1"
"250025","img/neutralC/CFD-WF-226-095-N.jpg","img/neutralC/CFD-MF-321-003-N.jpg","img/neutralC/CFD-WM-255-219-N.jpg","1","1","1","1","0","0","0.606796699998085","0.592313999994076","1.0664395000058","1","1","1","1","1","1","1","1","1"
"250025","img/neutralC/CFD-WM-255-219-N.jpg","img/neutralC/CFD-WF-226-095-N.jpg",NA,"1","1",NA,"0","1",NA,"1.0664395000058","0.606796699998085",NA,"1","1",NA,"1","1",NA,"1","1",NA
"250025","img/neutralC/CFD-LF-238-154-N.jpg",NA,"img/neutralC/CFD-BF-244-231-N.jpg","1",NA,"1","1",NA,"1","0.592295000009472",NA,"0.515061800004332","1",NA,"1","1",NA,"1","1",NA,"1"
"250025","img/neutralC/CFD-BF-244-231-N.jpg","img/neutralC/CFD-LF-238-154-N.jpg","img/neutralC/CFD-AM-249-163-N.jpg","1","1","1","1","1","1","0.515061800004332","0.592295000009472","0.392586299989489","1","1","1","1","1","1","1","1","1"
"250025","img/neutralC/CFD-AM-249-163-N.jpg","img/neutralC/CFD-BF-244-231-N.jpg","img/neutralC/CFD-BM-020-001-N.jpg","1","1","1","1","1","0","0.392586299989489","0.515061800004332","0.542980999991414","1","1","1","1","1","1","1","1","1"
"250025","img/neutralC/CFD-BM-020-001-N.jpg","img/neutralC/CFD-AM-249-163-N.jpg","img/neutralC/CFD-BM-009-002-N.jpg","1","1","1","0","1","1","0.542980999991414","0.392586299989489","0.528877999997349","1","1","1","1","1","1","1","1","1"
"250025","img/neutralC/CFD-BM-009-002-N.jpg","img/neutralC/CFD-BM-020-001-N.jpg","img/neutralC/CFD-BM-227-191-N.jpg","1","1","1","1","0","1","0.528877999997349","0.542980999991414","0.481096200004686","1","1","1","1","1","1","1","1","1"
"250025","img/neutralC/CFD-BM-227-191-N.jpg","img/neutralC/CFD-BM-009-002-N.jpg","img/neutralC/CFD-AM-205-153-N.jpg","1","1","1","1","1","1","0.481096200004686","0.528877999997349","0.582929499985767","1","1","1","1","1","1","1","1","1"
"250025","img/neutralC/CFD-AM-205-153-N.jpg","img/neutralC/CFD-BM-227-191-N.jpg","img/neutralC/CFD-MM-306-010-N.jpg","1","1","1","1","1","0","0.582929499985767","0.481096200004686","0.555608900001971","1","1","1","1","1","1","1","1","1"
"250025","img/neutralC/CFD-MM-306-010-N.jpg","img/neutralC/CFD-AM-205-153-N.jpg","img/neutralC/CFD-WF-243-148-N.jpg","1","1","1","0","1","0","0.555608900001971","0.582929499985767","0.579745499999262","1","1","1","1","1","1","1","1","1"
"250025","img/neutralC/CFD-WF-243-148-N.jpg","img/neutralC/CFD-MM-306-010-N.jpg","img/neutralC/CFD-LF-212-066-N.jpg","1","1","1","0","0","1","0.579745499999262","0.555608900001971","0.422861799990642","1","1","1","1","1","1","1","1","1"
"250025","img/neutralC/CFD-LF-212-066-N.jpg","img/neutralC/CFD-WF-243-148-N.jpg","img/neutralC/CFD-WF-009-001-N.jpg","1","1","1","1","0","1","0.422861799990642","0.579745499999262","0.560148299991852","1","1","1","1","1","1","1","1","1"
"250025","img/neutralC/CFD-WF-009-001-N.jpg","img/neutralC/CFD-LF-212-066-N.jpg","img/neutralC/CFD-MF-328-020-N.jpg","1","1","1","1","1","0","0.560148299991852","0.422861799990642","0.751907399986521","1","1","1","1","1","1","1","1","1"
"250025","img/neutralC/CFD-MF-328-020-N.jpg","img/neutralC/CFD-WF-009-001-N.jpg","img/neutralC/CFD-WF-221-005-N.jpg","1","1","1","0","1","0","0.751907399986521","0.560148299991852","0.77093889999378","1","1","1","1","1","1","1","1","1"
"250025","img/neutralC/CFD-WF-221-005-N.jpg","img/neutralC/CFD-MF-328-020-N.jpg","img/neutralC/CFD-BM-021-021-N.jpg","1","1","1","0","0","1","0.77093889999378","0.751907399986521","0.660737799989874","1","1","1","1","1","1","1","1","1"
"250025","img/neutralC/CFD-BM-021-021-N.jpg","img/neutralC/CFD-WF-221-005-N.jpg","img/neutralC/CFD-WM-023-001-N.jpg","1","1","1","1","0","0","0.660737799989874","0.77093889999378","0.603043700000853","1","1","1","1","1","1","1","1","1"
"250025","img/neutralC/CFD-WM-023-001-N.jpg","img/neutralC/CFD-BM-021-021-N.jpg","img/neutralC/CFD-LF-222-147-N.jpg","1","1","1","0","1","0","0.603043700000853","0.660737799989874","0.455284599986044","1","1","1","1","1","1","1","1","1"
"250025","img/neutralC/CFD-LF-222-147-N.jpg","img/neutralC/CFD-WM-023-001-N.jpg","img/neutralC/CFD-WM-025-002-N.jpg","1","1","1","0","0","0","0.455284599986044","0.603043700000853","0.566947999992408","1","1","1","1","1","1","1","1","1"
"250025","img/neutralC/CFD-WM-025-002-N.jpg","img/neutralC/CFD-LF-222-147-N.jpg","img/neutralC/CFD-WF-241-210-N.jpg","1","1","0","0","0","0","0.566947999992408","0.455284599986044","0.389968400006182","1","1","1","1","1","1","1","1","1"
"250025","img/neutralC/CFD-WF-241-210-N.jpg","img/neutralC/CFD-WM-025-002-N.jpg","img/neutralC/CFD-LM-240-013-N.jpg","0","1","1","0","0","1","0.389968400006182","0.566947999992408","0.50546729999769","1","1","1","1","1","1","1","1","1"
"250025","img/neutralC/CFD-LM-240-013-N.jpg","img/neutralC/CFD-WF-241-210-N.jpg","img/neutralC/CFD-WM-028-003-N.jpg","1","0","1","1","0","1","0.50546729999769","0.389968400006182","0.512229599989951","1","1","1","1","1","1","1","1","1"
"250025","img/neutralC/CFD-WM-028-003-N.jpg","img/neutralC/CFD-LM-240-013-N.jpg","img/neutralC/CFD-WF-207-014-N.jpg","1","1","1","1","1","1","0.512229599989951","0.50546729999769","0.476539299997967","1","1","1","1","1","1","1","1","1"
"250025","img/neutralC/CFD-WF-207-014-N.jpg","img/neutralC/CFD-WM-028-003-N.jpg","img/neutralC/CFD-BF-012-001-N.jpg","1","1","1","1","1","0","0.476539299997967","0.512229599989951","0.836432199997944","1","1","1","1","1","1","1","1","1"
"250025","img/neutralC/CFD-BF-012-001-N.jpg","img/neutralC/CFD-WF-207-014-N.jpg","img/neutralC/CFD-BM-030-003-N.jpg","1","1","1","0","1","0","0.836432199997944","0.476539299997967","0.590732900003786","1","1","1","1","1","1","1","1","1"
"250025","img/neutralC/CFD-BM-030-003-N.jpg","img/neutralC/CFD-BF-012-001-N.jpg","img/neutralC/CFD-IM-615-167-N.jpg","1","1","1","0","0","0","0.590732900003786","0.836432199997944","0.532533699995838","1","1","1","1","1","1","1","1","1"
"250025","img/neutralC/CFD-IM-615-167-N.jpg","img/neutralC/CFD-BM-030-003-N.jpg","img/neutralC/CFD-BM-043-071-N.jpg","1","1","1","0","0","0","0.532533699995838","0.590732900003786","0.64124460000312","1","1","1","1","1","1","1","1","1"
"250025","img/neutralC/CFD-BM-043-071-N.jpg","img/neutralC/CFD-IM-615-167-N.jpg","img/neutralC/CFD-AF-237-223-N.jpg","1","1","1","0","0","0","0.64124460000312","0.532533699995838","0.628988399985246","1","1","1","1","1","1","1","1","1"
"250025","img/neutralC/CFD-AF-237-223-N.jpg","img/neutralC/CFD-BM-043-071-N.jpg","img/neutralC/CFD-IF-676-017-N.jpg","1","1","1","0","0","1","0.628988399985246","0.64124460000312","0.607208100002026","1","1","1","1","1","1","1","1","1"
"250025","img/neutralC/CFD-IF-676-017-N.jpg","img/neutralC/CFD-AF-237-223-N.jpg","img/neutralC/CFD-IM-689-263-N.jpg","1","1","1","1","0","1","0.607208100002026","0.628988399985246","0.457006500000716","1","1","1","1","1","1","1","1","1"
"250025","img/neutralC/CFD-IM-689-263-N.jpg","img/neutralC/CFD-IF-676-017-N.jpg","img/neutralC/CFD-IM-606-008-N.jpg","1","1","1","1","1","0","0.457006500000716","0.607208100002026","0.655794299993431","1","1","1","1","1","1","1","1","1"
"250025","img/neutralC/CFD-IM-606-008-N.jpg","img/neutralC/CFD-IM-689-263-N.jpg","img/neutralC/CFD-IM-697-015-N.jpg","1","1","1","0","1","1","0.655794299993431","0.457006500000716","0.54142259999935","1","1","1","1","1","1","1","1","1"
"250025","img/neutralC/CFD-IM-697-015-N.jpg","img/neutralC/CFD-IM-606-008-N.jpg","img/neutralC/CFD-AM-219-101-N.jpg","1","1","1","1","0","0","0.54142259999935","0.655794299993431","0.582809799991082","1","1","1","1","1","1","1","1","1"
"250025","img/neutralC/CFD-AM-219-101-N.jpg","img/neutralC/CFD-IM-697-015-N.jpg","img/neutralC/CFD-AM-243-212-N.jpg","1","1","1","0","1","1","0.582809799991082","0.54142259999935","0.56771389998903","1","1","1","1","1","1","1","1","1"
"250025","img/neutralC/CFD-AM-243-212-N.jpg","img/neutralC/CFD-AM-219-101-N.jpg",NA,"1","1",NA,"1","0",NA,"0.56771389998903","0.582809799991082",NA,"1","1",NA,"1","1",NA,"1","1",NA
"250025","img/neutralC/CFD-IF-625-225-N.jpg",NA,"img/neutralC/CFD-IM-659-359-N.jpg","1",NA,"1","0",NA,"0","0.725192300000344",NA,"0.579870499990648","1",NA,"1","1",NA,"1","1",NA,"1"
"250025","img/neutralC/CFD-IM-659-359-N.jpg","img/neutralC/CFD-IF-625-225-N.jpg","img/neutralC/CFD-BM-028-002-N.jpg","1","1","1","0","0","1","0.579870499990648","0.725192300000344","0.771277899984852","1","1","1","1","1","1","1","1","1"
"250025","img/neutralC/CFD-BM-028-002-N.jpg","img/neutralC/CFD-IM-659-359-N.jpg","img/neutralC/CFD-WM-254-152-N.jpg","1","1","1","1","0","1","0.771277899984852","0.579870499990648","0.528199599997606","1","1","1","1","1","1","1","1","1"
"250025","img/neutralC/CFD-WM-254-152-N.jpg","img/neutralC/CFD-BM-028-002-N.jpg","img/neutralC/CFD-WF-223-133-N.jpg","1","1","1","1","1","0","0.528199599997606","0.771277899984852","0.594199400002253","1","1","1","1","1","1","1","1","1"
"250025","img/neutralC/CFD-WF-223-133-N.jpg","img/neutralC/CFD-WM-254-152-N.jpg","img/neutralC/CFD-WF-033-002-N.jpg","1","1","1","0","1","1","0.594199400002253","0.528199599997606","0.536446899990551","1","1","1","1","1","1","1","1","1"
"250025","img/neutralC/CFD-WF-033-002-N.jpg","img/neutralC/CFD-WF-223-133-N.jpg","img/neutralC/CFD-AF-239-171-N.jpg","1","1","1","1","0","1","0.536446899990551","0.594199400002253","0.505013500005589","1","1","1","1","1","1","1","1","1"
"250025","img/neutralC/CFD-AF-239-171-N.jpg","img/neutralC/CFD-WF-033-002-N.jpg","img/neutralC/CFD-LM-247-095-N.jpg","1","1","1","1","1","0","0.505013500005589","0.536446899990551","0.594168399999035","1","1","1","1","1","1","1","1","1"
"250025","img/neutralC/CFD-LM-247-095-N.jpg","img/neutralC/CFD-AF-239-171-N.jpg","img/neutralC/CFD-LF-241-188-N.jpg","1","1","1","0","1","0","0.594168399999035","0.505013500005589","0.54188369998883","1","1","1","1","1","1","1","1","1"
"250025","img/neutralC/CFD-LF-241-188-N.jpg","img/neutralC/CFD-LM-247-095-N.jpg","img/neutralC/CFD-LF-208-127-N.jpg","1","1","1","0","0","0","0.54188369998883","0.594168399999035","0.518117300001904","1","1","1","1","1","1","1","1","1"
"250025","img/neutralC/CFD-LF-208-127-N.jpg","img/neutralC/CFD-LF-241-188-N.jpg","img/neutralC/CFD-WM-228-065-N.jpg","1","1","1","0","0","0","0.518117300001904","0.54188369998883","0.648033999998006","1","1","1","1","1","1","1","1","1"
"250025","img/neutralC/CFD-WM-228-065-N.jpg","img/neutralC/CFD-LF-208-127-N.jpg","img/neutralC/CFD-MF-336-016-N.jpg","1","1","1","0","0","1","0.648033999998006","0.518117300001904","0.517893299998832","1","1","1","1","1","1","1","1","1"
"250025","img/neutralC/CFD-MF-336-016-N.jpg","img/neutralC/CFD-WM-228-065-N.jpg","img/neutralC/CFD-IM-738-191-N.jpg","1","1","1","1","0","0","0.517893299998832","0.648033999998006","0.603666799986968","1","1","1","1","1","1","1","1","1"
"250025","img/neutralC/CFD-IM-738-191-N.jpg","img/neutralC/CFD-MF-336-016-N.jpg","img/neutralC/CFD-BF-045-003-N.jpg","1","1","1","0","1","0","0.603666799986968","0.517893299998832","0.666742299988982","1","1","1","1","1","1","1","1","1"
"250025","img/neutralC/CFD-BF-045-003-N.jpg","img/neutralC/CFD-IM-738-191-N.jpg","img/neutralC/CFD-BM-213-134-N.jpg","1","1","1","0","0","1","0.666742299988982","0.603666799986968","0.474461499994504","1","1","1","1","1","1","1","1","1"
"250025","img/neutralC/CFD-BM-213-134-N.jpg","img/neutralC/CFD-BF-045-003-N.jpg","img/neutralC/CFD-BF-222-240-N.jpg","1","1","1","1","0","0","0.474461499994504","0.666742299988982","0.531109999996261","1","1","1","1","1","1","1","1","1"
"250025","img/neutralC/CFD-BF-222-240-N.jpg","img/neutralC/CFD-BM-213-134-N.jpg","img/neutralC/CFD-IF-744-114-N.jpg","1","1","1","0","1","0","0.531109999996261","0.474461499994504","0.580561099995975","1","1","1","1","1","1","1","1","1"
"250025","img/neutralC/CFD-IF-744-114-N.jpg","img/neutralC/CFD-BF-222-240-N.jpg","img/neutralC/CFD-LF-210-220-N.jpg","1","1","1","0","0","1","0.580561099995975","0.531109999996261","0.557495700006257","1","1","1","1","1","1","1","1","1"
"250025","img/neutralC/CFD-LF-210-220-N.jpg","img/neutralC/CFD-IF-744-114-N.jpg","img/neutralC/CFD-WF-006-002-N.jpg","1","1","1","1","0","0","0.557495700006257","0.580561099995975","0.455214400004479","1","1","1","1","1","1","1","1","1"
"250025","img/neutralC/CFD-WF-006-002-N.jpg","img/neutralC/CFD-LF-210-220-N.jpg","img/neutralC/CFD-BM-013-002-N.jpg","1","1","1","0","1","1","0.455214400004479","0.557495700006257","0.548861899995245","1","1","1","1","1","1","1","1","1"
"250025","img/neutralC/CFD-BM-013-002-N.jpg","img/neutralC/CFD-WF-006-002-N.jpg","img/neutralC/CFD-AF-227-207-N.jpg","1","1","1","1","0","1","0.548861899995245","0.455214400004479","0.429896800007555","1","1","1","1","1","1","1","1","1"
"250025","img/neutralC/CFD-AF-227-207-N.jpg","img/neutralC/CFD-BM-013-002-N.jpg","img/neutralC/CFD-BF-004-014-N.jpg","1","1","1","1","1","1","0.429896800007555","0.548861899995245","0.475677399997949","1","1","1","1","1","1","1","1","1"
"250025","img/neutralC/CFD-BF-004-014-N.jpg","img/neutralC/CFD-AF-227-207-N.jpg","img/neutralC/CFD-LF-225-164-N.jpg","1","1","1","1","1","1","0.475677399997949","0.429896800007555","0.530868899993948","1","1","1","1","1","1","1","1","1"
"250025","img/neutralC/CFD-LF-225-164-N.jpg","img/neutralC/CFD-BF-004-014-N.jpg","img/neutralC/CFD-BM-010-003-N.jpg","1","1","1","1","1","0","0.530868899993948","0.475677399997949","0.624926299991785","1","1","1","1","1","1","1","1","1"
"250025","img/neutralC/CFD-BM-010-003-N.jpg","img/neutralC/CFD-LF-225-164-N.jpg","img/neutralC/CFD-LM-238-129-N.jpg","1","1","0","0","1","1","0.624926299991785","0.530868899993948","1.00065079999331","1","1","1","1","1","1","1","1","1"
"250025","img/neutralC/CFD-LM-238-129-N.jpg","img/neutralC/CFD-BM-010-003-N.jpg","img/neutralC/CFD-BM-003-003-N.jpg","0","1","1","1","0","0","1.00065079999331","0.624926299991785","0.832364200003212","1","1","1","1","1","1","1","1","1"
"250025","img/neutralC/CFD-BM-003-003-N.jpg","img/neutralC/CFD-LM-238-129-N.jpg","img/neutralC/CFD-AF-210-050-N.jpg","1","0","1","0","1","1","0.832364200003212","1.00065079999331","0.520715799997561","1","1","1","1","1","1","1","1","1"
"250025","img/neutralC/CFD-AF-210-050-N.jpg","img/neutralC/CFD-BM-003-003-N.jpg","img/neutralC/CFD-IM-701-312-N.jpg","1","1","1","1","0","0","0.520715799997561","0.832364200003212","0.655713599990122","1","1","1","1","1","1","1","1","1"
"250025","img/neutralC/CFD-IM-701-312-N.jpg","img/neutralC/CFD-AF-210-050-N.jpg","img/neutralC/CFD-IF-673-389-N.jpg","1","1","1","0","1","0","0.655713599990122","0.520715799997561","0.654225999998744","1","1","1","1","1","1","1","1","1"
"250025","img/neutralC/CFD-IF-673-389-N.jpg","img/neutralC/CFD-IM-701-312-N.jpg","img/neutralC/CFD-AM-221-184-N.jpg","1","1","1","0","0","1","0.654225999998744","0.655713599990122","0.460624400002416","1","1","1","1","1","1","1","1","1"
"250025","img/neutralC/CFD-AM-221-184-N.jpg","img/neutralC/CFD-IF-673-389-N.jpg","img/neutralC/CFD-WM-202-107-N.jpg","1","1","1","1","0","1","0.460624400002416","0.654225999998744","0.524978399989777","1","1","1","1","1","1","1","1","1"
"250025","img/neutralC/CFD-WM-202-107-N.jpg","img/neutralC/CFD-AM-221-184-N.jpg","img/neutralC/CFD-MF-312-002-N.jpg","1","1","1","1","1","1","0.524978399989777","0.460624400002416","0.475462199989124","1","1","1","1","1","1","1","1","1"
"250025","img/neutralC/CFD-MF-312-002-N.jpg","img/neutralC/CFD-WM-202-107-N.jpg",NA,"1","1",NA,"1","1",NA,"0.475462199989124","0.524978399989777",NA,"1","1",NA,"1","1",NA,"1","1",NA
"250025","img/neutralC/CFD-WF-222-092-N.jpg",NA,"img/neutralC/CFD-BF-014-002-N.jpg","1",NA,"1","1",NA,"1","0.68954889998713",NA,"0.848092200001702","1",NA,"1","1",NA,"1","1",NA,"1"
"250025","img/neutralC/CFD-BF-014-002-N.jpg","img/neutralC/CFD-WF-222-092-N.jpg","img/neutralC/CFD-WF-030-002-N.jpg","1","1","1","1","1","0","0.848092200001702","0.68954889998713","0.706686699995771","1","1","1","1","1","1","1","1","1"
"250025","img/neutralC/CFD-WF-030-002-N.jpg","img/neutralC/CFD-BF-014-002-N.jpg","img/neutralC/CFD-IM-664-651-N.jpg","1","1","1","0","1","1","0.706686699995771","0.848092200001702","0.463803999999072","1","1","1","1","1","1","1","1","1"
"250025","img/neutralC/CFD-IM-664-651-N.jpg","img/neutralC/CFD-WF-030-002-N.jpg","img/neutralC/CFD-LF-255-088-N.jpg","1","1","1","1","0","0","0.463803999999072","0.706686699995771","0.576387399996747","1","1","1","1","1","1","1","1","1"
"250025","img/neutralC/CFD-LF-255-088-N.jpg","img/neutralC/CFD-IM-664-651-N.jpg","img/neutralC/CFD-IF-660-464-N.jpg","1","1","1","0","1","0","0.576387399996747","0.463803999999072","0.58643260000099","1","1","1","1","1","1","1","1","1"
"250025","img/neutralC/CFD-IF-660-464-N.jpg","img/neutralC/CFD-LF-255-088-N.jpg","img/neutralC/CFD-IM-667-369-N.jpg","1","1","0","0","0","0","0.58643260000099","0.576387399996747","0.546930500000599","1","1","1","1","1","1","1","1","2"
"250025","img/neutralC/CFD-IM-667-369-N.jpg","img/neutralC/CFD-IF-660-464-N.jpg","img/neutralC/CFD-BM-001-014-N.jpg","0","1","1","0","0","0","0.546930500000599","0.58643260000099","0.871618999997736","1","1","1","1","1","1","2","1","1"
"250025","img/neutralC/CFD-BM-001-014-N.jpg","img/neutralC/CFD-IM-667-369-N.jpg","img/neutralC/CFD-IM-680-369-N.jpg","1","0","1","0","0","1","0.871618999997736","0.546930500000599","0.616595499988762","1","1","1","1","1","1","1","2","1"
"250025","img/neutralC/CFD-IM-680-369-N.jpg","img/neutralC/CFD-BM-001-014-N.jpg","img/neutralC/CFD-LF-206-078-N.jpg","1","1","1","1","0","1","0.616595499988762","0.871618999997736","0.828898799998569","1","1","1","1","1","1","1","1","1"
"250025","img/neutralC/CFD-LF-206-078-N.jpg","img/neutralC/CFD-IM-680-369-N.jpg","img/neutralC/CFD-BF-237-172-N.jpg","1","1","1","1","1","1","0.828898799998569","0.616595499988762","0.586000199997216","1","1","1","1","1","1","1","1","1"
"250025","img/neutralC/CFD-BF-237-172-N.jpg","img/neutralC/CFD-LF-206-078-N.jpg","img/neutralC/CFD-WF-244-163-N.jpg","1","1","1","1","1","1","0.586000199997216","0.828898799998569","0.773243099989486","1","1","1","1","1","1","1","1","1"
"250025","img/neutralC/CFD-WF-244-163-N.jpg","img/neutralC/CFD-BF-237-172-N.jpg","img/neutralC/CFD-AF-253-130-N.jpg","1","1","1","1","1","1","0.773243099989486","0.586000199997216","0.644652100003441","1","1","1","1","1","1","1","1","1"
"250025","img/neutralC/CFD-AF-253-130-N.jpg","img/neutralC/CFD-WF-244-163-N.jpg","img/neutralC/CFD-MF-316-001-N.jpg","1","1","1","1","1","0","0.644652100003441","0.773243099989486","0.645508600005996","1","1","1","1","1","1","1","1","1"
"250025","img/neutralC/CFD-MF-316-001-N.jpg","img/neutralC/CFD-AF-253-130-N.jpg","img/neutralC/CFD-AM-220-134-N.jpg","1","1","1","0","1","0","0.645508600005996","0.644652100003441","0.820307899994077","1","1","1","1","1","1","1","1","1"
"250025","img/neutralC/CFD-AM-220-134-N.jpg","img/neutralC/CFD-MF-316-001-N.jpg","img/neutralC/CFD-LM-200-045-N.jpg","1","1","1","0","0","1","0.820307899994077","0.645508600005996","0.512862699994002","1","1","1","1","1","1","1","1","1"
"250025","img/neutralC/CFD-LM-200-045-N.jpg","img/neutralC/CFD-AM-220-134-N.jpg","img/neutralC/CFD-WM-209-038-N.jpg","1","1","1","1","0","0","0.512862699994002","0.820307899994077","0.619421199997305","1","1","1","1","1","1","1","1","1"
"250025","img/neutralC/CFD-WM-209-038-N.jpg","img/neutralC/CFD-LM-200-045-N.jpg","img/neutralC/CFD-MF-303-013-N.jpg","1","1","1","0","1","0","0.619421199997305","0.512862699994002","1.0458770999976","1","1","1","1","1","1","1","1","1"
"250025","img/neutralC/CFD-MF-303-013-N.jpg","img/neutralC/CFD-WM-209-038-N.jpg","img/neutralC/CFD-IM-702-101-N.jpg","1","1","1","0","0","1","1.0458770999976","0.619421199997305","0.573768900008872","1","1","1","1","1","1","1","1","1"
"250025","img/neutralC/CFD-IM-702-101-N.jpg","img/neutralC/CFD-MF-303-013-N.jpg","img/neutralC/CFD-WF-007-001-N.jpg","1","1","1","1","0","1","0.573768900008872","1.0458770999976","1.53479459999653","1","1","1","1","1","1","1","1","1"
"250025","img/neutralC/CFD-WF-007-001-N.jpg","img/neutralC/CFD-IM-702-101-N.jpg","img/neutralC/CFD-MF-357-002-N.jpg","1","1","1","1","1","0","1.53479459999653","0.573768900008872","0.686839599991799","1","1","1","1","1","1","1","1","1"
"250025","img/neutralC/CFD-MF-357-002-N.jpg","img/neutralC/CFD-WF-007-001-N.jpg","img/neutralC/CFD-BM-250-170-N.jpg","1","1","1","0","1","1","0.686839599991799","1.53479459999653","0.546941199994762","1","1","1","1","1","1","1","1","1"
"250025","img/neutralC/CFD-BM-250-170-N.jpg","img/neutralC/CFD-MF-357-002-N.jpg","img/neutralC/CFD-LM-225-130-N.jpg","1","1","1","1","0","0","0.546941199994762","0.686839599991799","0.799588800000492","1","1","1","1","1","1","1","1","1"
"250025","img/neutralC/CFD-LM-225-130-N.jpg","img/neutralC/CFD-BM-250-170-N.jpg","img/neutralC/CFD-MF-343-001-N.jpg","1","1","1","0","1","1","0.799588800000492","0.546941199994762","0.836158799997065","1","1","1","1","1","1","1","1","1"
"250025","img/neutralC/CFD-MF-343-001-N.jpg","img/neutralC/CFD-LM-225-130-N.jpg","img/neutralC/CFD-BM-217-082-N.jpg","1","1","1","1","0","0","0.836158799997065","0.799588800000492","0.67831990000559","1","1","1","1","1","1","1","1","1"
"250025","img/neutralC/CFD-BM-217-082-N.jpg","img/neutralC/CFD-MF-343-001-N.jpg","img/neutralC/CFD-MM-324-069-N.jpg","1","1","1","0","1","1","0.67831990000559","0.836158799997065","0.522542599996086","1","1","1","1","1","1","1","1","1"
"250025","img/neutralC/CFD-MM-324-069-N.jpg","img/neutralC/CFD-BM-217-082-N.jpg","img/neutralC/CFD-WM-218-074-N.jpg","1","1","1","1","0","1","0.522542599996086","0.67831990000559","0.397967899989453","1","1","1","1","1","1","1","1","1"
"250025","img/neutralC/CFD-WM-218-074-N.jpg","img/neutralC/CFD-MM-324-069-N.jpg","img/neutralC/CFD-MF-305-014-N.jpg","1","1","1","1","1","1","0.397967899989453","0.522542599996086","0.400214799985406","1","1","1","1","1","1","1","1","1"
"250025","img/neutralC/CFD-MF-305-014-N.jpg","img/neutralC/CFD-WM-218-074-N.jpg","img/neutralC/CFD-IF-626-375-N.jpg","1","1","1","1","1","0","0.400214799985406","0.397967899989453","0.415146499988623","1","1","1","1","1","1","1","1","1"
"250025","img/neutralC/CFD-IF-626-375-N.jpg","img/neutralC/CFD-MF-305-014-N.jpg","img/neutralC/CFD-AF-233-190-N.jpg","1","1","1","0","1","0","0.415146499988623","0.400214799985406","0.621199100001832","1","1","1","1","1","1","1","1","1"
"250025","img/neutralC/CFD-AF-233-190-N.jpg","img/neutralC/CFD-IF-626-375-N.jpg","img/neutralC/CFD-WM-015-002-N.jpg","1","1","1","0","0","0","0.621199100001832","0.415146499988623","0.538096899996162","1","1","1","1","1","1","1","1","1"
"250025","img/neutralC/CFD-WM-015-002-N.jpg","img/neutralC/CFD-AF-233-190-N.jpg","img/neutralC/CFD-IM-706-002-N.jpg","1","1","0","0","0","0","0.538096899996162","0.621199100001832","0.528654399997322","1","1","1","1","1","1","1","1","1"
"250025","img/neutralC/CFD-IM-706-002-N.jpg","img/neutralC/CFD-WM-015-002-N.jpg",NA,"0","1",NA,"0","0",NA,"0.528654399997322","0.538096899996162",NA,"1","1",NA,"1","1",NA,"1","1",NA
"250025","img/neutralC/CFD-BM-205-001-N.jpg",NA,"img/neutralC/CFD-WF-240-083-N.jpg","1",NA,"1","0",NA,"0","0.847313300007954",NA,"0.566435899992939","1",NA,"1","1",NA,"1","1",NA,"1"
"250025","img/neutralC/CFD-WF-240-083-N.jpg","img/neutralC/CFD-BM-205-001-N.jpg","img/neutralC/CFD-WF-017-003-N.jpg","1","1","1","0","0","1","0.566435899992939","0.847313300007954","0.393639700007043","1","1","1","1","1","1","1","1","1"
"250025","img/neutralC/CFD-WF-017-003-N.jpg","img/neutralC/CFD-WF-240-083-N.jpg","img/neutralC/CFD-LM-201-057-N.jpg","1","1","1","1","0","1","0.393639700007043","0.566435899992939","0.435493800003314","1","1","1","1","1","1","1","1","1"
"250025","img/neutralC/CFD-LM-201-057-N.jpg","img/neutralC/CFD-WF-017-003-N.jpg","img/neutralC/CFD-BF-025-002-N.jpg","1","1","1","1","1","0","0.435493800003314","0.393639700007043","0.489886600000318","1","1","1","1","1","1","1","1","1"
"250025","img/neutralC/CFD-BF-025-002-N.jpg","img/neutralC/CFD-LM-201-057-N.jpg","img/neutralC/CFD-WM-215-041-N.jpg","1","1","1","0","1","0","0.489886600000318","0.435493800003314","0.558489399991231","1","1","1","1","1","1","1","1","1"
"250025","img/neutralC/CFD-WM-215-041-N.jpg","img/neutralC/CFD-BF-025-002-N.jpg","img/neutralC/CFD-WM-249-239-N.jpg","1","1","1","0","0","1","0.558489399991231","0.489886600000318","0.470123100007186","1","1","1","1","1","1","1","1","1"
"250025","img/neutralC/CFD-WM-249-239-N.jpg","img/neutralC/CFD-WM-215-041-N.jpg","img/neutralC/CFD-AM-247-165-N.jpg","1","1","0","1","0","1","0.470123100007186","0.558489399991231","0.48713310000312","1","1","1","1","1","1","1","1","2"
"250025","img/neutralC/CFD-AM-247-165-N.jpg","img/neutralC/CFD-WM-249-239-N.jpg","img/neutralC/CFD-IM-646-023-N.jpg","0","1","1","1","1","1","0.48713310000312","0.470123100007186","0.555492799991043","1","1","1","1","1","1","2","1","1"
"250025","img/neutralC/CFD-IM-646-023-N.jpg","img/neutralC/CFD-AM-247-165-N.jpg","img/neutralC/CFD-LM-244-068-N.jpg","1","0","1","1","1","1","0.555492799991043","0.48713310000312","0.470548499986762","1","1","1","1","1","1","1","2","1"
"250025","img/neutralC/CFD-LM-244-068-N.jpg","img/neutralC/CFD-IM-646-023-N.jpg","img/neutralC/CFD-AF-240-206-N.jpg","1","1","1","1","1","0","0.470548499986762","0.555492799991043","0.64595289999852","1","1","1","1","1","1","1","1","1"
"250025","img/neutralC/CFD-AF-240-206-N.jpg","img/neutralC/CFD-LM-244-068-N.jpg","img/neutralC/CFD-BF-202-109-N.jpg","1","1","1","0","1","1","0.64595289999852","0.470548499986762","0.416955799999414","1","1","1","1","1","1","1","1","1"
"250025","img/neutralC/CFD-BF-202-109-N.jpg","img/neutralC/CFD-AF-240-206-N.jpg","img/neutralC/CFD-MF-309-002-N.jpg","1","1","1","1","0","0","0.416955799999414","0.64595289999852","0.495702700005495","1","1","1","1","1","1","1","1","1"
"250025","img/neutralC/CFD-MF-309-002-N.jpg","img/neutralC/CFD-BF-202-109-N.jpg","img/neutralC/CFD-WM-026-001-N.jpg","1","1","1","0","1","1","0.495702700005495","0.416955799999414","0.368551699997624","1","1","1","1","1","1","1","1","1"
"250025","img/neutralC/CFD-WM-026-001-N.jpg","img/neutralC/CFD-MF-309-002-N.jpg","img/neutralC/CFD-WM-006-002-N.jpg","1","1","1","1","0","0","0.368551699997624","0.495702700005495","0.408526999992319","1","1","1","1","1","1","1","1","1"
"250025","img/neutralC/CFD-WM-006-002-N.jpg","img/neutralC/CFD-WM-026-001-N.jpg","img/neutralC/CFD-WM-012-001-N.jpg","1","1","1","0","1","1","0.408526999992319","0.368551699997624","0.575382900002296","1","1","1","1","1","1","1","1","1"
"250025","img/neutralC/CFD-WM-012-001-N.jpg","img/neutralC/CFD-WM-006-002-N.jpg","img/neutralC/CFD-IF-642-295-N.jpg","1","1","1","1","0","1","0.575382900002296","0.408526999992319","0.915713499998674","1","1","1","1","1","1","1","1","1"
"250025","img/neutralC/CFD-IF-642-295-N.jpg","img/neutralC/CFD-WM-012-001-N.jpg","img/neutralC/CFD-WF-228-196-N.jpg","1","1","1","1","1","0","0.915713499998674","0.575382900002296","0.547715299995616","1","1","1","1","1","1","1","1","1"
"250025","img/neutralC/CFD-WF-228-196-N.jpg","img/neutralC/CFD-IF-642-295-N.jpg","img/neutralC/CFD-WM-019-003-N.jpg","1","1","0","0","1","1","0.547715299995616","0.915713499998674","0.62190319999354","1","1","1","1","1","1","1","1","1"
"250025","img/neutralC/CFD-WM-019-003-N.jpg","img/neutralC/CFD-WF-228-196-N.jpg","img/neutralC/CFD-BM-251-013-N.jpg","0","1","1","1","0","1","0.62190319999354","0.547715299995616","1.02861059998395","1","1","1","1","1","1","1","1","1"
"250025","img/neutralC/CFD-BM-251-013-N.jpg","img/neutralC/CFD-WM-019-003-N.jpg","img/neutralC/CFD-MM-317-061-N.jpg","1","0","1","1","1","1","1.02861059998395","0.62190319999354","0.703584199989564","1","1","1","1","1","1","1","1","1"
"250025","img/neutralC/CFD-MM-317-061-N.jpg","img/neutralC/CFD-BM-251-013-N.jpg","img/neutralC/CFD-WM-212-097-N.jpg","1","1","1","1","1","0","0.703584199989564","1.02861059998395","0.82640839999658","1","1","1","1","1","1","1","1","1"
"250025","img/neutralC/CFD-WM-212-097-N.jpg","img/neutralC/CFD-MM-317-061-N.jpg","img/neutralC/CFD-MF-335-002-N.jpg","1","1","1","0","1","0","0.82640839999658","0.703584199989564","0.545413299987558","1","1","1","1","1","1","1","1","1"
"250025","img/neutralC/CFD-MF-335-002-N.jpg","img/neutralC/CFD-WM-212-097-N.jpg","img/neutralC/CFD-BF-228-212-N.jpg","1","1","1","0","0","0","0.545413299987558","0.82640839999658","0.660558300005505","1","1","1","1","1","1","1","1","1"
"250025","img/neutralC/CFD-BF-228-212-N.jpg","img/neutralC/CFD-MF-335-002-N.jpg","img/neutralC/CFD-BF-041-001-N.jpg","1","1","1","0","0","1","0.660558300005505","0.545413299987558","0.613196000005701","1","1","1","1","1","1","1","1","1"
"250025","img/neutralC/CFD-BF-041-001-N.jpg","img/neutralC/CFD-BF-228-212-N.jpg","img/neutralC/CFD-BF-212-315-N.jpg","1","1","1","1","0","1","0.613196000005701","0.660558300005505","0.599585399992066","1","1","1","1","1","1","1","1","1"
"250025","img/neutralC/CFD-BF-212-315-N.jpg","img/neutralC/CFD-BF-041-001-N.jpg","img/neutralC/CFD-WF-005-010-N.jpg","1","1","1","1","1","0","0.599585399992066","0.613196000005701","0.653793899997254","1","1","1","1","1","1","1","1","1"
"250025","img/neutralC/CFD-WF-005-010-N.jpg","img/neutralC/CFD-BF-212-315-N.jpg","img/neutralC/CFD-IM-648-337-N.jpg","1","1","1","0","1","0","0.653793899997254","0.599585399992066","0.63483080000151","1","1","1","1","1","1","1","1","1"
"250025","img/neutralC/CFD-IM-648-337-N.jpg","img/neutralC/CFD-WF-005-010-N.jpg","img/neutralC/CFD-LM-216-082-N.jpg","1","1","1","0","0","0","0.63483080000151","0.653793899997254","0.66226209999877","1","1","1","1","1","1","1","1","1"
"250025","img/neutralC/CFD-LM-216-082-N.jpg","img/neutralC/CFD-IM-648-337-N.jpg","img/neutralC/CFD-LM-214-165-N.jpg","1","1","1","0","0","1","0.66226209999877","0.63483080000151","0.50982560000557","1","1","1","1","1","1","1","1","1"
"250025","img/neutralC/CFD-LM-214-165-N.jpg","img/neutralC/CFD-LM-216-082-N.jpg","img/neutralC/CFD-BM-248-128-N.jpg","1","1","1","1","0","0","0.50982560000557","0.66226209999877","0.662369099998614","1","1","1","1","1","1","1","1","1"
"250025","img/neutralC/CFD-BM-248-128-N.jpg","img/neutralC/CFD-LM-214-165-N.jpg","img/neutralC/CFD-LM-243-075-N.jpg","1","1","1","0","1","0","0.662369099998614","0.50982560000557","0.87994549999712","1","1","1","1","1","1","1","1","1"
"250025","img/neutralC/CFD-LM-243-075-N.jpg","img/neutralC/CFD-BM-248-128-N.jpg",NA,"1","1",NA,"0","0",NA,"0.87994549999712","0.662369099998614",NA,"1","1",NA,"1","1",NA,"1","1",NA
"250025","img/neutralC/CFD-IF-693-172-N.jpg",NA,"img/neutralC/CFD-BM-041-035-N.jpg","1",NA,"0","0",NA,"0","0.681620899995323",NA,"0.496373099987977","1",NA,"1","1",NA,"1","1",NA,"2"
"250025","img/neutralC/CFD-BM-041-035-N.jpg","img/neutralC/CFD-IF-693-172-N.jpg","img/neutralC/CFD-BM-239-136-N.jpg","0","1","1","0","0","1","0.496373099987977","0.681620899995323","0.505310799984727","1","1","1","1","1","1","2","1","1"
"250025","img/neutralC/CFD-BM-239-136-N.jpg","img/neutralC/CFD-BM-041-035-N.jpg","img/neutralC/CFD-BF-205-141-N.jpg","1","0","1","1","0","0","0.505310799984727","0.496373099987977","0.894918999998481","1","1","1","1","1","1","1","2","1"
"250025","img/neutralC/CFD-BF-205-141-N.jpg","img/neutralC/CFD-BM-239-136-N.jpg","img/neutralC/CFD-WF-213-031-N.jpg","1","1","1","0","1","1","0.894918999998481","0.505310799984727","0.607659999994212","1","1","1","1","1","1","1","1","1"
"250025","img/neutralC/CFD-WF-213-031-N.jpg","img/neutralC/CFD-BF-205-141-N.jpg","img/neutralC/CFD-AF-231-357-N.jpg","1","1","1","1","0","1","0.607659999994212","0.894918999998481","0.524637499984237","1","1","1","1","1","1","1","1","1"
"250025","img/neutralC/CFD-AF-231-357-N.jpg","img/neutralC/CFD-WF-213-031-N.jpg","img/neutralC/CFD-BF-039-031-N.jpg","1","1","1","1","1","1","0.524637499984237","0.607659999994212","0.623431499989238","1","1","1","1","1","1","1","1","1"
"250025","img/neutralC/CFD-BF-039-031-N.jpg","img/neutralC/CFD-AF-231-357-N.jpg","img/neutralC/CFD-MF-337-026-N.jpg","1","1","1","1","1","1","0.623431499989238","0.524637499984237","0.46747369998775","1","1","1","1","1","1","1","1","1"
"250025","img/neutralC/CFD-MF-337-026-N.jpg","img/neutralC/CFD-BF-039-031-N.jpg","img/neutralC/CFD-IM-684-008-N.jpg","1","1","1","1","1","1","0.46747369998775","0.623431499989238","0.485687499996857","1","1","1","1","1","1","1","1","1"
"250025","img/neutralC/CFD-IM-684-008-N.jpg","img/neutralC/CFD-MF-337-026-N.jpg","img/neutralC/CFD-WM-021-001-N.jpg","1","1","1","1","1","1","0.485687499996857","0.46747369998775","0.382865000006859","1","1","1","1","1","1","1","1","1"
"250025","img/neutralC/CFD-WM-021-001-N.jpg","img/neutralC/CFD-IM-684-008-N.jpg","img/neutralC/CFD-MM-316-156-N.jpg","1","1","1","1","1","1","0.382865000006859","0.485687499996857","0.414308299994445","1","1","1","1","1","1","1","1","1"
"250025","img/neutralC/CFD-MM-316-156-N.jpg","img/neutralC/CFD-WM-021-001-N.jpg","img/neutralC/CFD-AM-212-050-N.jpg","1","1","1","1","1","1","0.414308299994445","0.382865000006859","0.581466600007843","1","1","1","1","1","1","1","1","1"
"250025","img/neutralC/CFD-AM-212-050-N.jpg","img/neutralC/CFD-MM-316-156-N.jpg","img/neutralC/CFD-IM-651-308-N.jpg","1","1","1","1","1","0","0.581466600007843","0.414308299994445","0.948212499992224","1","1","1","1","1","1","1","1","1"
"250025","img/neutralC/CFD-IM-651-308-N.jpg","img/neutralC/CFD-AM-212-050-N.jpg","img/neutralC/CFD-LF-224-176-N.jpg","1","1","1","0","1","0","0.948212499992224","0.581466600007843","0.506557599990629","1","1","1","1","1","1","1","1","1"
"250025","img/neutralC/CFD-LF-224-176-N.jpg","img/neutralC/CFD-IM-651-308-N.jpg","img/neutralC/CFD-WF-250-167-N.jpg","1","1","1","0","0","1","0.506557599990629","0.948212499992224","0.516804600003525","1","1","1","1","1","1","1","1","1"
"250025","img/neutralC/CFD-WF-250-167-N.jpg","img/neutralC/CFD-LF-224-176-N.jpg","img/neutralC/CFD-LF-205-100-N.jpg","1","1","1","1","0","1","0.516804600003525","0.506557599990629","0.467738499995903","1","1","1","1","1","1","1","1","1"
"250025","img/neutralC/CFD-LF-205-100-N.jpg","img/neutralC/CFD-WF-250-167-N.jpg","img/neutralC/CFD-IF-634-382-N.jpg","1","1","1","1","1","1","0.467738499995903","0.516804600003525","0.528743200004101","1","1","1","1","1","1","1","1","1"
"250025","img/neutralC/CFD-IF-634-382-N.jpg","img/neutralC/CFD-LF-205-100-N.jpg","img/neutralC/CFD-WM-041-021-N.jpg","1","1","1","1","1","0","0.528743200004101","0.467738499995903","0.676826199996867","1","1","1","1","1","1","1","1","1"
"250025","img/neutralC/CFD-WM-041-021-N.jpg","img/neutralC/CFD-IF-634-382-N.jpg","img/neutralC/CFD-LF-230-203-N.jpg","1","1","1","0","1","0","0.676826199996867","0.528743200004101","0.66427899998962","1","1","1","1","1","1","1","1","1"
"250025","img/neutralC/CFD-LF-230-203-N.jpg","img/neutralC/CFD-WM-041-021-N.jpg","img/neutralC/CFD-LM-215-247-N.jpg","1","1","1","0","0","0","0.66427899998962","0.676826199996867","0.753493899988825","1","1","1","1","1","1","1","1","1"
"250025","img/neutralC/CFD-LM-215-247-N.jpg","img/neutralC/CFD-LF-230-203-N.jpg","img/neutralC/CFD-LF-214-090-N.jpg","1","1","1","0","0","0","0.753493899988825","0.66427899998962","0.523634199998924","1","1","1","1","1","1","1","1","1"
"250025","img/neutralC/CFD-LF-214-090-N.jpg","img/neutralC/CFD-LM-215-247-N.jpg","img/neutralC/CFD-LF-203-066-N.jpg","1","1","1","0","0","0","0.523634199998924","0.753493899988825","0.580839600006584","1","1","1","1","1","1","1","1","1"
"250025","img/neutralC/CFD-LF-203-066-N.jpg","img/neutralC/CFD-LF-214-090-N.jpg","img/neutralC/CFD-BF-029-031-N.jpg","1","1","1","0","0","1","0.580839600006584","0.523634199998924","0.476224400001229","1","1","1","1","1","1","1","1","1"
"250025","img/neutralC/CFD-BF-029-031-N.jpg","img/neutralC/CFD-LF-203-066-N.jpg","img/neutralC/CFD-WF-224-099-N.jpg","1","1","1","1","0","0","0.476224400001229","0.580839600006584","0.572517200009315","1","1","1","1","1","1","1","1","1"
"250025","img/neutralC/CFD-WF-224-099-N.jpg","img/neutralC/CFD-BF-029-031-N.jpg","img/neutralC/CFD-BM-019-002-N.jpg","1","1","1","0","1","0","0.572517200009315","0.476224400001229","0.963332800005446","1","1","1","1","1","1","1","1","1"
"250025","img/neutralC/CFD-BM-019-002-N.jpg","img/neutralC/CFD-WF-224-099-N.jpg","img/neutralC/CFD-LM-218-183-N.jpg","1","1","1","0","0","1","0.963332800005446","0.572517200009315","0.553550600001472","1","1","1","1","1","1","1","1","1"
"250025","img/neutralC/CFD-LM-218-183-N.jpg","img/neutralC/CFD-BM-019-002-N.jpg","img/neutralC/CFD-AM-201-076-N.jpg","1","1","1","1","0","1","0.553550600001472","0.963332800005446","0.553817499996512","1","1","1","1","1","1","1","1","1"
"250025","img/neutralC/CFD-AM-201-076-N.jpg","img/neutralC/CFD-LM-218-183-N.jpg","img/neutralC/CFD-BF-253-202-N.jpg","1","1","1","1","1","0","0.553817499996512","0.553550600001472","0.795123899995815","1","1","1","1","1","1","1","1","1"
"250025","img/neutralC/CFD-BF-253-202-N.jpg","img/neutralC/CFD-AM-201-076-N.jpg","img/neutralC/CFD-IF-710-016-N.jpg","1","1","1","0","1","0","0.795123899995815","0.553817499996512","0.59121959998447","1","1","1","1","1","1","1","1","1"
"250025","img/neutralC/CFD-IF-710-016-N.jpg","img/neutralC/CFD-BF-253-202-N.jpg","img/neutralC/CFD-WM-011-002-N.jpg","1","1","1","0","0","0","0.59121959998447","0.795123899995815","0.716028299997561","1","1","1","1","1","1","1","1","1"
"250025","img/neutralC/CFD-WM-011-002-N.jpg","img/neutralC/CFD-IF-710-016-N.jpg","img/neutralC/CFD-BM-033-003-N.jpg","1","1","1","0","0","0","0.716028299997561","0.59121959998447","0.692812099994626","1","1","1","1","1","1","1","1","1"
"250025","img/neutralC/CFD-BM-033-003-N.jpg","img/neutralC/CFD-WM-011-002-N.jpg","img/neutralC/CFD-BF-213-188-N.jpg","1","1","1","0","0","1","0.692812099994626","0.716028299997561","0.580737900003442","1","1","1","1","1","1","1","1","1"
"250025","img/neutralC/CFD-BF-213-188-N.jpg","img/neutralC/CFD-BM-033-003-N.jpg",NA,"1","1",NA,"1","0",NA,"0.580737900003442","0.692812099994626",NA,"1","1",NA,"1","1",NA,"1","1",NA
"250025","img/neutralC/CFD-IM-674-281-N.jpg",NA,"img/neutralC/CFD-MM-319-052-N.jpg","1",NA,"1","1",NA,"1","0.779098300001351",NA,"0.545446500007529","1",NA,"1","1",NA,"1","1",NA,"1"
"250025","img/neutralC/CFD-MM-319-052-N.jpg","img/neutralC/CFD-IM-674-281-N.jpg","img/neutralC/CFD-LF-216-121-N.jpg","1","1","1","1","1","1","0.545446500007529","0.779098300001351","0.55772879999131","1","1","1","1","1","1","1","1","1"
"250025","img/neutralC/CFD-LF-216-121-N.jpg","img/neutralC/CFD-MM-319-052-N.jpg","img/neutralC/CFD-WM-257-161-N.jpg","1","1","1","1","1","1","0.55772879999131","0.545446500007529","0.741368500006502","1","1","1","1","1","1","1","1","1"
"250025","img/neutralC/CFD-WM-257-161-N.jpg","img/neutralC/CFD-LF-216-121-N.jpg","img/neutralC/CFD-AM-215-120-N.jpg","1","1","1","1","1","1","0.741368500006502","0.55772879999131","0.492864899992128","1","1","1","1","1","1","1","1","1"
"250025","img/neutralC/CFD-AM-215-120-N.jpg","img/neutralC/CFD-WM-257-161-N.jpg","img/neutralC/CFD-AM-235-241-N.jpg","1","1","1","1","1","0","0.492864899992128","0.741368500006502","0.55741670000134","1","1","1","1","1","1","1","1","1"
"250025","img/neutralC/CFD-AM-235-241-N.jpg","img/neutralC/CFD-AM-215-120-N.jpg","img/neutralC/CFD-BF-204-189-N.jpg","1","1","1","0","1","1","0.55741670000134","0.492864899992128","0.608831000005011","1","1","1","1","1","1","1","1","1"
"250025","img/neutralC/CFD-BF-204-189-N.jpg","img/neutralC/CFD-AM-235-241-N.jpg","img/neutralC/CFD-BF-255-140-N.jpg","1","1","1","1","0","1","0.608831000005011","0.55741670000134","0.466125999999349","1","1","1","1","1","1","1","1","1"
"250025","img/neutralC/CFD-BF-255-140-N.jpg","img/neutralC/CFD-BF-204-189-N.jpg","img/neutralC/CFD-IF-718-001-N.jpg","1","1","1","1","1","1","0.466125999999349","0.608831000005011","0.507273799987161","1","1","1","1","1","1","1","1","1"
"250025","img/neutralC/CFD-IF-718-001-N.jpg","img/neutralC/CFD-BF-255-140-N.jpg","img/neutralC/CFD-BM-015-015-N.jpg","1","1","1","1","1","0","0.507273799987161","0.466125999999349","0.499230099987471","1","1","1","1","1","1","1","1","1"
"250025","img/neutralC/CFD-BM-015-015-N.jpg","img/neutralC/CFD-IF-718-001-N.jpg","img/neutralC/CFD-BF-003-003-N.jpg","1","1","1","0","1","0","0.499230099987471","0.507273799987161","0.589948199994978","1","1","1","1","1","1","1","1","1"
"250025","img/neutralC/CFD-BF-003-003-N.jpg","img/neutralC/CFD-BM-015-015-N.jpg","img/neutralC/CFD-BF-028-001-N.jpg","1","1","1","0","0","1","0.589948199994978","0.499230099987471","0.486655900007463","1","1","1","1","1","1","1","1","1"
"250025","img/neutralC/CFD-BF-028-001-N.jpg","img/neutralC/CFD-BF-003-003-N.jpg","img/neutralC/CFD-IF-672-305-N.jpg","1","1","1","1","0","0","0.486655900007463","0.589948199994978","0.534082999991369","1","1","1","1","1","1","1","1","1"
"250025","img/neutralC/CFD-IF-672-305-N.jpg","img/neutralC/CFD-BF-028-001-N.jpg","img/neutralC/CFD-BF-201-080-N.jpg","1","1","1","0","1","1","0.534082999991369","0.486655900007463","0.606307900001411","1","1","1","1","1","1","1","1","1"
"250025","img/neutralC/CFD-BF-201-080-N.jpg","img/neutralC/CFD-IF-672-305-N.jpg","img/neutralC/CFD-BF-208-266-N.jpg","1","1","1","1","0","0","0.606307900001411","0.534082999991369","0.566141499992227","1","1","1","1","1","1","1","1","1"
"250025","img/neutralC/CFD-BF-208-266-N.jpg","img/neutralC/CFD-BF-201-080-N.jpg","img/neutralC/CFD-BF-023-010-N.jpg","1","1","1","0","1","1","0.566141499992227","0.606307900001411","0.560904500001925","1","1","1","1","1","1","1","1","1"
"250025","img/neutralC/CFD-BF-023-010-N.jpg","img/neutralC/CFD-BF-208-266-N.jpg","img/neutralC/CFD-IM-639-263-N.jpg","1","1","1","1","0","1","0.560904500001925","0.566141499992227","0.556804599997122","1","1","1","1","1","1","1","1","1"
"250025","img/neutralC/CFD-IM-639-263-N.jpg","img/neutralC/CFD-BF-023-010-N.jpg","img/neutralC/CFD-WF-026-002-N.jpg","1","1","1","1","1","1","0.556804599997122","0.560904500001925","0.753120499997749","1","1","1","1","1","1","1","1","1"
"250025","img/neutralC/CFD-WF-026-002-N.jpg","img/neutralC/CFD-IM-639-263-N.jpg","img/neutralC/CFD-WM-002-009-N.jpg","1","1","1","1","1","0","0.753120499997749","0.556804599997122","1.33622669999022","1","1","1","1","1","1","1","1","1"
"250025","img/neutralC/CFD-WM-002-009-N.jpg","img/neutralC/CFD-WF-026-002-N.jpg","img/neutralC/CFD-IM-728-041-N.jpg","1","1","1","0","1","0","1.33622669999022","0.753120499997749","0.635267599995132","1","1","1","1","1","1","1","1","1"
"250025","img/neutralC/CFD-IM-728-041-N.jpg","img/neutralC/CFD-WM-002-009-N.jpg","img/neutralC/CFD-WM-225-127-N.jpg","1","1","1","0","0","0","0.635267599995132","1.33622669999022","0.583823199995095","1","1","1","1","1","1","1","1","1"
"250025","img/neutralC/CFD-WM-225-127-N.jpg","img/neutralC/CFD-IM-728-041-N.jpg","img/neutralC/CFD-WM-040-022-N.jpg","1","1","1","0","0","0","0.583823199995095","0.635267599995132","0.589205500000389","1","1","1","1","1","1","1","1","1"
"250025","img/neutralC/CFD-WM-040-022-N.jpg","img/neutralC/CFD-WM-225-127-N.jpg","img/neutralC/CFD-BM-211-174-N.jpg","1","1","1","0","0","0","0.589205500000389","0.583823199995095","0.750345099993865","1","1","1","1","1","1","1","1","1"
"250025","img/neutralC/CFD-BM-211-174-N.jpg","img/neutralC/CFD-WM-040-022-N.jpg","img/neutralC/CFD-AM-217-085-N.jpg","1","1","1","0","0","0","0.750345099993865","0.589205500000389","0.573435599988443","1","1","1","1","1","1","1","1","1"
"250025","img/neutralC/CFD-AM-217-085-N.jpg","img/neutralC/CFD-BM-211-174-N.jpg","img/neutralC/CFD-WM-038-003-N.jpg","1","1","1","0","0","0","0.573435599988443","0.750345099993865","0.59785269999702","1","1","1","1","1","1","1","1","1"
"250025","img/neutralC/CFD-WM-038-003-N.jpg","img/neutralC/CFD-AM-217-085-N.jpg","img/neutralC/CFD-LF-236-221-N.jpg","1","1","1","0","0","1","0.59785269999702","0.573435599988443","0.929213600000367","1","1","1","1","1","1","1","1","1"
"250025","img/neutralC/CFD-LF-236-221-N.jpg","img/neutralC/CFD-WM-038-003-N.jpg","img/neutralC/CFD-WF-022-017-N.jpg","1","1","0","1","0","0","0.929213600000367","0.59785269999702","0.921596799991676","1","1","1","1","1","1","1","1","1"
"250025","img/neutralC/CFD-WF-022-017-N.jpg","img/neutralC/CFD-LF-236-221-N.jpg","img/neutralC/CFD-BM-247-240-N.jpg","0","1","1","0","1","0","0.921596799991676","0.929213600000367","0.701757200004067","1","1","1","1","1","1","1","1","1"
"250025","img/neutralC/CFD-BM-247-240-N.jpg","img/neutralC/CFD-WF-022-017-N.jpg","img/neutralC/CFD-LM-252-076-N.jpg","1","0","1","0","0","1","0.701757200004067","0.921596799991676","0.484855999995489","1","1","1","1","1","1","1","1","1"
"250025","img/neutralC/CFD-LM-252-076-N.jpg","img/neutralC/CFD-BM-247-240-N.jpg","img/neutralC/CFD-BM-029-024-N.jpg","1","1","1","1","0","1","0.484855999995489","0.701757200004067","0.518499500001781","1","1","1","1","1","1","1","1","1"
"250025","img/neutralC/CFD-BM-029-024-N.jpg","img/neutralC/CFD-LM-252-076-N.jpg","img/neutralC/CFD-BM-027-001-N.jpg","1","1","1","1","1","0","0.518499500001781","0.484855999995489","0.589037799989455","1","1","1","1","1","1","1","1","1"
"250025","img/neutralC/CFD-BM-027-001-N.jpg","img/neutralC/CFD-BM-029-024-N.jpg","img/neutralC/CFD-WF-002-004-N.jpg","1","1","1","0","1","0","0.589037799989455","0.518499500001781","0.762570599996252","1","1","1","1","1","1","1","1","1"
"250025","img/neutralC/CFD-WF-002-004-N.jpg","img/neutralC/CFD-BM-027-001-N.jpg",NA,"1","1",NA,"0","0",NA,"0.762570599996252","0.589037799989455",NA,"1","1",NA,"1","1",NA,"1","1",NA
"250025","img/neutralC/CFD-BM-026-002-N.jpg",NA,"img/neutralC/CFD-AF-206-079-N.jpg","1",NA,"1","0",NA,"1","0.731062099992414",NA,"0.537925199998426","1",NA,"1","1",NA,"1","1",NA,"1"
"250025","img/neutralC/CFD-AF-206-079-N.jpg","img/neutralC/CFD-BM-026-002-N.jpg","img/neutralC/CFD-WM-242-011-N.jpg","1","1","1","1","0","0","0.537925199998426","0.731062099992414","0.880309500003932","1","1","1","1","1","1","1","1","1"
"250025","img/neutralC/CFD-WM-242-011-N.jpg","img/neutralC/CFD-AF-206-079-N.jpg","img/neutralC/CFD-IF-620-218-N.jpg","1","1","1","0","1","0","0.880309500003932","0.537925199998426","0.558612099994207","1","1","1","1","1","1","1","1","1"
"250025","img/neutralC/CFD-IF-620-218-N.jpg","img/neutralC/CFD-WM-242-011-N.jpg","img/neutralC/CFD-LM-233-171-N.jpg","1","1","1","0","0","0","0.558612099994207","0.880309500003932","0.543769099997007","1","1","1","1","1","1","1","1","1"
"250025","img/neutralC/CFD-LM-233-171-N.jpg","img/neutralC/CFD-IF-620-218-N.jpg","img/neutralC/CFD-LM-219-295-N.jpg","1","1","1","0","0","1","0.543769099997007","0.558612099994207","0.490428899996914","1","1","1","1","1","1","1","1","1"
"250025","img/neutralC/CFD-LM-219-295-N.jpg","img/neutralC/CFD-LM-233-171-N.jpg","img/neutralC/CFD-WF-209-052-N.jpg","1","1","1","1","0","1","0.490428899996914","0.543769099997007","0.651218099999824","1","1","1","1","1","1","1","1","1"
"250025","img/neutralC/CFD-WF-209-052-N.jpg","img/neutralC/CFD-LM-219-295-N.jpg","img/neutralC/CFD-MF-313-002-N.jpg","1","1","1","1","1","0","0.651218099999824","0.490428899996914","0.584395400001085","1","1","1","1","1","1","1","1","1"
"250025","img/neutralC/CFD-MF-313-002-N.jpg","img/neutralC/CFD-WF-209-052-N.jpg","img/neutralC/CFD-IM-686-097-N.jpg","1","1","1","0","1","0","0.584395400001085","0.651218099999824","0.58941230000346","1","1","1","1","1","1","1","1","1"
"250025","img/neutralC/CFD-IM-686-097-N.jpg","img/neutralC/CFD-MF-313-002-N.jpg","img/neutralC/CFD-LF-245-166-N.jpg","1","1","1","0","0","1","0.58941230000346","0.584395400001085","0.542201300006127","1","1","1","1","1","1","1","1","1"
"250025","img/neutralC/CFD-LF-245-166-N.jpg","img/neutralC/CFD-IM-686-097-N.jpg","img/neutralC/CFD-BM-212-117-N.jpg","1","1","1","1","0","0","0.542201300006127","0.58941230000346","0.558770299991011","1","1","1","1","1","1","1","1","1"
"250025","img/neutralC/CFD-BM-212-117-N.jpg","img/neutralC/CFD-LF-245-166-N.jpg","img/neutralC/CFD-AF-202-122-N.jpg","1","1","1","0","1","1","0.558770299991011","0.542201300006127","0.802400200002012","1","1","1","1","1","1","1","1","1"
"250025","img/neutralC/CFD-AF-202-122-N.jpg","img/neutralC/CFD-BM-212-117-N.jpg","img/neutralC/CFD-IM-617-174-N.jpg","1","1","1","1","0","0","0.802400200002012","0.558770299991011","0.591116700001294","1","1","1","1","1","1","1","1","1"
"250025","img/neutralC/CFD-IM-617-174-N.jpg","img/neutralC/CFD-AF-202-122-N.jpg","img/neutralC/CFD-LF-250-169-N.jpg","1","1","1","0","1","1","0.591116700001294","0.802400200002012","0.411644199994043","1","1","1","1","1","1","1","1","1"
"250025","img/neutralC/CFD-LF-250-169-N.jpg","img/neutralC/CFD-IM-617-174-N.jpg","img/neutralC/CFD-IM-638-250-1-N.jpg","1","1","1","1","0","1","0.411644199994043","0.591116700001294","0.476221100005205","1","1","1","1","1","1","1","1","1"
"250025","img/neutralC/CFD-IM-638-250-1-N.jpg","img/neutralC/CFD-LF-250-169-N.jpg","img/neutralC/CFD-BF-010-001-N.jpg","1","1","1","1","1","1","0.476221100005205","0.411644199994043","0.823545099992771","1","1","1","1","1","1","1","1","1"
"250025","img/neutralC/CFD-BF-010-001-N.jpg","img/neutralC/CFD-IM-638-250-1-N.jpg","img/neutralC/CFD-IF-665-015-N.jpg","1","1","1","1","1","0","0.823545099992771","0.476221100005205","0.482334599990281","1","1","1","1","1","1","1","1","1"
"250025","img/neutralC/CFD-IF-665-015-N.jpg","img/neutralC/CFD-BF-010-001-N.jpg","img/neutralC/CFD-WM-227-099-N.jpg","1","1","1","0","1","1","0.482334599990281","0.823545099992771","0.439828700007638","1","1","1","1","1","1","1","1","1"
"250025","img/neutralC/CFD-WM-227-099-N.jpg","img/neutralC/CFD-IF-665-015-N.jpg","img/neutralC/CFD-AF-241-141-N.jpg","1","1","1","1","0","1","0.439828700007638","0.482334599990281","0.612213500004145","1","1","1","1","1","1","1","1","1"
"250025","img/neutralC/CFD-AF-241-141-N.jpg","img/neutralC/CFD-WM-227-099-N.jpg","img/neutralC/CFD-IM-653-008-N.jpg","1","1","1","1","1","0","0.612213500004145","0.439828700007638","0.52326400000311","1","1","1","1","1","1","1","1","1"
"250025","img/neutralC/CFD-IM-653-008-N.jpg","img/neutralC/CFD-AF-241-141-N.jpg","img/neutralC/CFD-IM-727-195-N.jpg","1","1","1","0","1","1","0.52326400000311","0.612213500004145","0.984296599999652","1","1","1","1","1","1","1","1","1"
"250025","img/neutralC/CFD-IM-727-195-N.jpg","img/neutralC/CFD-IM-653-008-N.jpg","img/neutralC/CFD-IM-657-308-N.jpg","1","1","1","1","0","0","0.984296599999652","0.52326400000311","0.513480699999491","1","1","1","1","1","1","1","1","1"
"250025","img/neutralC/CFD-IM-657-308-N.jpg","img/neutralC/CFD-IM-727-195-N.jpg","img/neutralC/CFD-BF-238-190-N.jpg","1","1","1","0","1","1","0.513480699999491","0.984296599999652","0.437377299997024","1","1","1","1","1","1","1","1","1"
"250025","img/neutralC/CFD-BF-238-190-N.jpg","img/neutralC/CFD-IM-657-308-N.jpg","img/neutralC/CFD-LF-247-051-N.jpg","1","1","1","1","0","1","0.437377299997024","0.513480699999491","0.632862799990107","1","1","1","1","1","1","1","1","1"
"250025","img/neutralC/CFD-LF-247-051-N.jpg","img/neutralC/CFD-BF-238-190-N.jpg","img/neutralC/CFD-WM-258-125-N.jpg","1","1","1","1","1","0","0.632862799990107","0.437377299997024","0.572655799987842","1","1","1","1","1","1","1","1","1"
"250025","img/neutralC/CFD-WM-258-125-N.jpg","img/neutralC/CFD-LF-247-051-N.jpg","img/neutralC/CFD-BM-018-001-N.jpg","1","1","1","0","1","1","0.572655799987842","0.632862799990107","0.559900499996729","1","1","1","1","1","1","1","1","1"
"250025","img/neutralC/CFD-BM-018-001-N.jpg","img/neutralC/CFD-WM-258-125-N.jpg","img/neutralC/CFD-BM-231-155-N.jpg","1","1","1","1","0","1","0.559900499996729","0.572655799987842","0.533614199986914","1","1","1","1","1","1","1","1","1"
"250025","img/neutralC/CFD-BM-231-155-N.jpg","img/neutralC/CFD-BM-018-001-N.jpg","img/neutralC/CFD-LM-226-175-N.jpg","1","1","1","1","1","0","0.533614199986914","0.559900499996729","0.566576099998201","1","1","1","1","1","1","1","1","1"
"250025","img/neutralC/CFD-LM-226-175-N.jpg","img/neutralC/CFD-BM-231-155-N.jpg","img/neutralC/CFD-BM-005-003-N.jpg","1","1","1","0","1","1","0.566576099998201","0.533614199986914","0.501095899991924","1","1","1","1","1","1","1","1","1"
"250025","img/neutralC/CFD-BM-005-003-N.jpg","img/neutralC/CFD-LM-226-175-N.jpg","img/neutralC/CFD-BF-033-028-N.jpg","1","1","1","1","0","0","0.501095899991924","0.566576099998201","0.541563699996914","1","1","1","1","1","1","1","1","1"
"250025","img/neutralC/CFD-BF-033-028-N.jpg","img/neutralC/CFD-BM-005-003-N.jpg","img/neutralC/CFD-LF-242-121-N.jpg","1","1","1","0","1","0","0.541563699996914","0.501095899991924","0.565498599986313","1","1","1","1","1","1","1","1","1"
"250025","img/neutralC/CFD-LF-242-121-N.jpg","img/neutralC/CFD-BF-033-028-N.jpg","img/neutralC/CFD-WM-017-002-N.jpg","1","1","1","0","0","0","0.565498599986313","0.541563699996914","0.719342399999732","1","1","1","1","1","1","1","1","1"
"250025","img/neutralC/CFD-WM-017-002-N.jpg","img/neutralC/CFD-LF-242-121-N.jpg",NA,"1","1",NA,"0","0",NA,"0.719342399999732","0.565498599986313",NA,"1","1",NA,"1","1",NA,"1","1",NA
"250025","img/neutralC/CFD-IM-637-007-N.jpg",NA,"img/neutralC/CFD-BF-051-035-N.jpg","0",NA,"1","0",NA,"0","0.5453184999933",NA,"0.631110100002843","1",NA,"1","1",NA,"1","1",NA,"1"
"250025","img/neutralC/CFD-BF-051-035-N.jpg","img/neutralC/CFD-IM-637-007-N.jpg","img/neutralC/CFD-MF-300-002-N.jpg","1","0","1","0","0","0","0.631110100002843","0.5453184999933","0.829815499993856","1","1","1","1","1","1","1","1","1"
"250025","img/neutralC/CFD-MF-300-002-N.jpg","img/neutralC/CFD-BF-051-035-N.jpg","img/neutralC/CFD-AF-215-70-N.jpg","1","1","1","0","0","0","0.829815499993856","0.631110100002843","0.541272099988419","1","1","1","1","1","1","1","1","1"
"250025","img/neutralC/CFD-AF-215-70-N.jpg","img/neutralC/CFD-MF-300-002-N.jpg","img/neutralC/CFD-AM-236-090-N.jpg","1","1","1","0","0","1","0.541272099988419","0.829815499993856","0.542601299996022","1","1","1","1","1","1","1","1","1"
"250025","img/neutralC/CFD-AM-236-090-N.jpg","img/neutralC/CFD-AF-215-70-N.jpg","img/neutralC/CFD-MF-340-026-N.jpg","1","1","1","1","0","1","0.542601299996022","0.541272099988419","0.540265100004035","1","1","1","1","1","1","1","1","1"
"250025","img/neutralC/CFD-MF-340-026-N.jpg","img/neutralC/CFD-AM-236-090-N.jpg","img/neutralC/CFD-MF-327-002-N.jpg","1","1","1","1","1","0","0.540265100004035","0.542601299996022","0.606280499996501","1","1","1","1","1","1","1","1","1"
"250025","img/neutralC/CFD-MF-327-002-N.jpg","img/neutralC/CFD-MF-340-026-N.jpg","img/neutralC/CFD-BF-224-002-N.jpg","1","1","1","0","1","1","0.606280499996501","0.540265100004035","0.579118800000288","1","1","1","1","1","1","1","1","1"
"250025","img/neutralC/CFD-BF-224-002-N.jpg","img/neutralC/CFD-MF-327-002-N.jpg","img/neutralC/CFD-IM-604-014-N.jpg","1","1","1","1","0","0","0.579118800000288","0.606280499996501","0.681488100002753","1","1","1","1","1","1","1","1","1"
"250025","img/neutralC/CFD-IM-604-014-N.jpg","img/neutralC/CFD-BF-224-002-N.jpg","img/neutralC/CFD-WF-217-085-N.jpg","1","1","1","0","1","1","0.681488100002753","0.579118800000288","0.664253399998415","1","1","1","1","1","1","1","1","1"
"250025","img/neutralC/CFD-WF-217-085-N.jpg","img/neutralC/CFD-IM-604-014-N.jpg","img/neutralC/CFD-AF-254-167-N.jpg","1","1","1","1","0","1","0.664253399998415","0.681488100002753","0.569129299998167","1","1","1","1","1","1","1","1","1"
"250025","img/neutralC/CFD-AF-254-167-N.jpg","img/neutralC/CFD-WF-217-085-N.jpg","img/neutralC/CFD-WF-012-002-N.jpg","1","1","1","1","1","1","0.569129299998167","0.664253399998415","0.831177799991565","1","1","1","1","1","1","1","1","1"
"250025","img/neutralC/CFD-WF-012-002-N.jpg","img/neutralC/CFD-AF-254-167-N.jpg","img/neutralC/CFD-IM-709-103-N.jpg","1","1","1","1","1","0","0.831177799991565","0.569129299998167","0.729812499994296","1","1","1","1","1","1","1","1","1"
"250025","img/neutralC/CFD-IM-709-103-N.jpg","img/neutralC/CFD-WF-012-002-N.jpg","img/neutralC/CFD-IF-608-390-N.jpg","1","1","1","0","1","1","0.729812499994296","0.831177799991565","0.574809800004005","1","1","1","1","1","1","1","1","1"
"250025","img/neutralC/CFD-IF-608-390-N.jpg","img/neutralC/CFD-IM-709-103-N.jpg","img/neutralC/CFD-LM-217-162-N.jpg","1","1","1","1","0","0","0.574809800004005","0.729812499994296","0.695658299999195","1","1","1","1","1","1","1","1","1"
"250025","img/neutralC/CFD-LM-217-162-N.jpg","img/neutralC/CFD-IF-608-390-N.jpg","img/neutralC/CFD-IF-619-197-N.jpg","1","1","1","0","1","0","0.695658299999195","0.574809800004005","0.922845499997493","1","1","1","1","1","1","1","1","1"
"250025","img/neutralC/CFD-IF-619-197-N.jpg","img/neutralC/CFD-LM-217-162-N.jpg","img/neutralC/CFD-BM-039-029-N.jpg","1","1","1","0","0","1","0.922845499997493","0.695658299999195","0.620699199993396","1","1","1","1","1","1","1","1","1"
"250025","img/neutralC/CFD-BM-039-029-N.jpg","img/neutralC/CFD-IF-619-197-N.jpg","img/neutralC/CFD-BF-043-003-N.jpg","1","1","1","1","0","0","0.620699199993396","0.922845499997493","0.890826899994863","1","1","1","1","1","1","1","1","1"
"250025","img/neutralC/CFD-BF-043-003-N.jpg","img/neutralC/CFD-BM-039-029-N.jpg","img/neutralC/CFD-WF-212-050-N.jpg","1","1","1","0","1","0","0.890826899994863","0.620699199993396","0.614864699993632","1","1","1","1","1","1","1","1","1"
"250025","img/neutralC/CFD-WF-212-050-N.jpg","img/neutralC/CFD-BF-043-003-N.jpg","img/neutralC/CFD-LF-226-174-N.jpg","1","1","1","0","0","0","0.614864699993632","0.890826899994863","0.647969400000875","1","1","1","1","1","1","1","1","1"
"250025","img/neutralC/CFD-LF-226-174-N.jpg","img/neutralC/CFD-WF-212-050-N.jpg","img/neutralC/CFD-WF-248-129-N.jpg","1","1","1","0","0","0","0.647969400000875","0.614864699993632","0.595610999997007","1","1","1","1","1","1","1","1","1"
"250025","img/neutralC/CFD-WF-248-129-N.jpg","img/neutralC/CFD-LF-226-174-N.jpg","img/neutralC/CFD-WF-008-002-N.jpg","1","1","1","0","0","1","0.595610999997007","0.647969400000875","0.509788499999559","1","1","1","1","1","1","1","1","1"
"250025","img/neutralC/CFD-WF-008-002-N.jpg","img/neutralC/CFD-WF-248-129-N.jpg","img/neutralC/CFD-WM-024-015-N.jpg","1","1","1","1","0","1","0.509788499999559","0.595610999997007","0.449255500003346","1","1","1","1","1","1","1","1","1"
"250025","img/neutralC/CFD-WM-024-015-N.jpg","img/neutralC/CFD-WF-008-002-N.jpg","img/neutralC/CFD-IM-685-004-N.jpg","1","1","1","1","1","1","0.449255500003346","0.509788499999559","0.617379000002984","1","1","1","1","1","1","1","1","1"
"250025","img/neutralC/CFD-IM-685-004-N.jpg","img/neutralC/CFD-WM-024-015-N.jpg","img/neutralC/CFD-WM-232-070-N.jpg","1","1","1","1","1","0","0.617379000002984","0.449255500003346","0.615307499989285","1","1","1","1","1","1","1","1","1"
"250025","img/neutralC/CFD-WM-232-070-N.jpg","img/neutralC/CFD-IM-685-004-N.jpg","img/neutralC/CFD-BM-243-218-N.jpg","1","1","1","0","1","1","0.615307499989285","0.617379000002984","0.798261000003549","1","1","1","1","1","1","1","1","1"
"250025","img/neutralC/CFD-BM-243-218-N.jpg","img/neutralC/CFD-WM-232-070-N.jpg","img/neutralC/CFD-AF-229-160-N.jpg","1","1","1","1","0","0","0.798261000003549","0.615307499989285","0.613493699987885","1","1","1","1","1","1","1","1","1"
"250025","img/neutralC/CFD-AF-229-160-N.jpg","img/neutralC/CFD-BM-243-218-N.jpg","img/neutralC/CFD-MF-329-001-N.jpg","1","1","1","0","1","0","0.613493699987885","0.798261000003549","0.580688000001828","1","1","1","1","1","1","1","1","1"
"250025","img/neutralC/CFD-MF-329-001-N.jpg","img/neutralC/CFD-AF-229-160-N.jpg","img/neutralC/CFD-MM-304-002-N.jpg","1","1","1","0","0","1","0.580688000001828","0.613493699987885","0.661818599997787","1","1","1","1","1","1","1","1","1"
"250025","img/neutralC/CFD-MM-304-002-N.jpg","img/neutralC/CFD-MF-329-001-N.jpg","img/neutralC/CFD-LF-201-035-N.jpg","1","1","1","1","0","1","0.661818599997787","0.580688000001828","0.590998800005764","1","1","1","1","1","1","1","1","1"
"250025","img/neutralC/CFD-LF-201-035-N.jpg","img/neutralC/CFD-MM-304-002-N.jpg","img/neutralC/CFD-IM-675-015-N.jpg","1","1","1","1","1","1","0.590998800005764","0.661818599997787","0.640022299994598","1","1","1","1","1","1","1","1","1"
"250025","img/neutralC/CFD-IM-675-015-N.jpg","img/neutralC/CFD-LF-201-035-N.jpg","img/neutralC/CFD-WM-213-076-N.jpg","1","1","1","1","1","1","0.640022299994598","0.590998800005764","0.531584199998179","1","1","1","1","1","1","1","1","1"
"250025","img/neutralC/CFD-WM-213-076-N.jpg","img/neutralC/CFD-IM-675-015-N.jpg",NA,"1","1",NA,"1","1",NA,"0.531584199998179","0.640022299994598",NA,"1","1",NA,"1","1",NA,"1","1",NA
"250025","img/neutralC/CFD-LF-220-120-N.jpg",NA,"img/neutralC/CFD-WF-001-003-N.jpg","1",NA,"1","1",NA,"1","0.651999399997294",NA,"0.524819799989928","1",NA,"1","1",NA,"1","1",NA,"1"
"250025","img/neutralC/CFD-WF-001-003-N.jpg","img/neutralC/CFD-LF-220-120-N.jpg","img/neutralC/CFD-WF-036-023-N.jpg","1","1","1","1","1","0","0.524819799989928","0.651999399997294","0.60121639999852","1","1","1","1","1","1","1","1","1"
"250025","img/neutralC/CFD-WF-036-023-N.jpg","img/neutralC/CFD-WF-001-003-N.jpg","img/neutralC/CFD-LM-228-188-N.jpg","1","1","1","0","1","1","0.60121639999852","0.524819799989928","0.525763300000108","1","1","1","1","1","1","1","1","1"
"250025","img/neutralC/CFD-LM-228-188-N.jpg","img/neutralC/CFD-WF-036-023-N.jpg","img/neutralC/CFD-BF-232-187-N.jpg","1","1","1","1","0","1","0.525763300000108","0.60121639999852","0.502919899998233","1","1","1","1","1","1","1","1","1"
"250025","img/neutralC/CFD-BF-232-187-N.jpg","img/neutralC/CFD-LM-228-188-N.jpg","img/neutralC/CFD-IM-743-006-N.jpg","1","1","1","1","1","1","0.502919899998233","0.525763300000108","0.49021730000095","1","1","1","1","1","1","1","1","1"
"250025","img/neutralC/CFD-IM-743-006-N.jpg","img/neutralC/CFD-BF-232-187-N.jpg","img/neutralC/CFD-BM-225-154-N.jpg","1","1","1","1","1","1","0.49021730000095","0.502919899998233","0.464846100003342","1","1","1","1","1","1","1","1","1"
"250025","img/neutralC/CFD-BM-225-154-N.jpg","img/neutralC/CFD-IM-743-006-N.jpg","img/neutralC/CFD-BF-226-119-N.jpg","1","1","1","1","1","1","0.464846100003342","0.49021730000095","0.481098999996902","1","1","1","1","1","1","1","1","1"
"250025","img/neutralC/CFD-BF-226-119-N.jpg","img/neutralC/CFD-BM-225-154-N.jpg","img/neutralC/CFD-MF-352-054-N.jpg","1","1","0","1","1","0","0.481098999996902","0.464846100003342","0.72826069999428","1","1","1","1","1","1","1","1","1"
"250025","img/neutralC/CFD-MF-352-054-N.jpg","img/neutralC/CFD-BF-226-119-N.jpg","img/neutralC/CFD-WM-219-008-N.jpg","0","1","1","0","1","0","0.72826069999428","0.481098999996902","0.682380500002182","1","1","1","1","1","1","1","1","1"
"250025","img/neutralC/CFD-WM-219-008-N.jpg","img/neutralC/CFD-MF-352-054-N.jpg","img/neutralC/CFD-WM-235-147-N.jpg","1","0","1","0","0","0","0.682380500002182","0.72826069999428","0.55561999999918","1","1","1","1","1","1","1","1","1"
"250025","img/neutralC/CFD-WM-235-147-N.jpg","img/neutralC/CFD-WM-219-008-N.jpg","img/neutralC/CFD-LF-218-072-N.jpg","1","1","1","0","0","0","0.55561999999918","0.682380500002182","0.62178010000207","1","1","1","1","1","1","1","1","1"
"250025","img/neutralC/CFD-LF-218-072-N.jpg","img/neutralC/CFD-WM-235-147-N.jpg","img/neutralC/CFD-IM-703-182-N.jpg","1","1","1","0","0","1","0.62178010000207","0.55561999999918","0.57328559999587","1","1","1","1","1","1","1","1","1"
"250025","img/neutralC/CFD-IM-703-182-N.jpg","img/neutralC/CFD-LF-218-072-N.jpg","img/neutralC/CFD-IM-645-001-N.jpg","1","1","1","1","0","0","0.57328559999587","0.62178010000207","0.666915199995856","1","1","1","1","1","1","1","1","1"
"250025","img/neutralC/CFD-IM-645-001-N.jpg","img/neutralC/CFD-IM-703-182-N.jpg","img/neutralC/CFD-IF-650-315-N.jpg","1","1","0","0","1","0","0.666915199995856","0.57328559999587","0.590017999988049","1","1","1","1","1","1","1","1","1"
"250025","img/neutralC/CFD-IF-650-315-N.jpg","img/neutralC/CFD-IM-645-001-N.jpg","img/neutralC/CFD-BF-038-037-N.jpg","0","1","1","0","0","1","0.590017999988049","0.666915199995856","1.26454409999133","1","1","1","1","1","1","1","1","1"
"250025","img/neutralC/CFD-BF-038-037-N.jpg","img/neutralC/CFD-IF-650-315-N.jpg","img/neutralC/CFD-WF-200-099-N.jpg","1","0","1","1","0","0","1.26454409999133","0.590017999988049","0.59293999998772","1","1","1","1","1","1","1","1","1"
"250025","img/neutralC/CFD-WF-200-099-N.jpg","img/neutralC/CFD-BF-038-037-N.jpg","img/neutralC/CFD-IM-671-601-N.jpg","1","1","1","0","1","0","0.59293999998772","1.26454409999133","0.616540999995777","1","1","1","1","1","1","1","1","1"
"250025","img/neutralC/CFD-IM-671-601-N.jpg","img/neutralC/CFD-WF-200-099-N.jpg","img/neutralC/CFD-BM-253-004-N.jpg","1","1","1","0","0","1","0.616540999995777","0.59293999998772","0.61884059998556","1","1","1","1","1","1","1","1","1"
"250025","img/neutralC/CFD-BM-253-004-N.jpg","img/neutralC/CFD-IM-671-601-N.jpg","img/neutralC/CFD-WM-020-001-N.jpg","1","1","1","1","0","1","0.61884059998556","0.616540999995777","0.762585399992531","1","1","1","1","1","1","1","1","1"
"250025","img/neutralC/CFD-WM-020-001-N.jpg","img/neutralC/CFD-BM-253-004-N.jpg","img/neutralC/CFD-WM-033-025-N.jpg","1","1","1","1","1","1","0.762585399992531","0.61884059998556","0.58288519999769","1","1","1","1","1","1","1","1","1"
"250025","img/neutralC/CFD-WM-033-025-N.jpg","img/neutralC/CFD-WM-020-001-N.jpg","img/neutralC/CFD-AM-242-176-N.jpg","1","1","1","1","1","1","0.58288519999769","0.762585399992531","0.524380200004089","1","1","1","1","1","1","1","1","1"
"250025","img/neutralC/CFD-AM-242-176-N.jpg","img/neutralC/CFD-WM-033-025-N.jpg","img/neutralC/CFD-AM-211-052-N.jpg","1","1","1","1","1","1","0.524380200004089","0.58288519999769","0.494994399996358","1","1","1","1","1","1","1","1","1"
"250025","img/neutralC/CFD-AM-211-052-N.jpg","img/neutralC/CFD-AM-242-176-N.jpg","img/neutralC/CFD-MF-359-019-N.jpg","1","1","1","1","1","0","0.494994399996358","0.524380200004089","0.705594800005201","1","1","1","1","1","1","1","1","1"
"250025","img/neutralC/CFD-MF-359-019-N.jpg","img/neutralC/CFD-AM-211-052-N.jpg","img/neutralC/CFD-IM-616-214-N.jpg","1","1","1","0","1","0","0.705594800005201","0.494994399996358","0.523182100005215","1","1","1","1","1","1","1","1","1"
"250025","img/neutralC/CFD-IM-616-214-N.jpg","img/neutralC/CFD-MF-359-019-N.jpg","img/neutralC/CFD-AM-251-124-N.jpg","1","1","1","0","0","0","0.523182100005215","0.705594800005201","0.616559400004917","1","1","1","1","1","1","1","1","1"
"250025","img/neutralC/CFD-AM-251-124-N.jpg","img/neutralC/CFD-IM-616-214-N.jpg","img/neutralC/CFD-WF-214-122-N.jpg","1","1","1","0","0","1","0.616559400004917","0.523182100005215","0.528925299993716","1","1","1","1","1","1","1","1","1"
"250025","img/neutralC/CFD-WF-214-122-N.jpg","img/neutralC/CFD-AM-251-124-N.jpg","img/neutralC/CFD-LM-237-264-N.jpg","1","1","1","1","0","0","0.528925299993716","0.616559400004917","0.617130099999486","1","1","1","1","1","1","1","1","1"
"250025","img/neutralC/CFD-LM-237-264-N.jpg","img/neutralC/CFD-WF-214-122-N.jpg","img/neutralC/CFD-IF-623-129-N.jpg","1","1","1","0","1","1","0.617130099999486","0.528925299993716","0.559183999997913","1","1","1","1","1","1","1","1","1"
"250025","img/neutralC/CFD-IF-623-129-N.jpg","img/neutralC/CFD-LM-237-264-N.jpg","img/neutralC/CFD-WM-004-010-N.jpg","1","1","1","1","0","0","0.559183999997913","0.617130099999486","0.598709199999576","1","1","1","1","1","1","1","1","1"
"250025","img/neutralC/CFD-WM-004-010-N.jpg","img/neutralC/CFD-IF-623-129-N.jpg","img/neutralC/CFD-MF-333-012-N.jpg","1","1","1","0","1","0","0.598709199999576","0.559183999997913","0.859626000004937","1","1","1","1","1","1","1","1","1"
"250025","img/neutralC/CFD-MF-333-012-N.jpg","img/neutralC/CFD-WM-004-010-N.jpg","img/neutralC/CFD-BF-229-179-N.jpg","1","1","1","0","0","0","0.859626000004937","0.598709199999576","1.21099900000263","1","1","1","1","1","1","1","1","1"
"250025","img/neutralC/CFD-BF-229-179-N.jpg","img/neutralC/CFD-MF-333-012-N.jpg",NA,"1","1",NA,"0","0",NA,"1.21099900000263","0.859626000004937",NA,"1","1",NA,"1","1",NA,"1","1",NA
"250025","img/neutralC/CFD-WF-233-112-N.jpg",NA,"img/neutralC/CFD-WM-014-002-N.jpg","1",NA,"1","1",NA,"0","0.753660699992906",NA,"0.573029599996516","1",NA,"1","1",NA,"1","1",NA,"1"
"250025","img/neutralC/CFD-WM-014-002-N.jpg","img/neutralC/CFD-WF-233-112-N.jpg","img/neutralC/CFD-BM-207-024-N.jpg","1","1","1","0","1","1","0.573029599996516","0.753660699992906","0.437205599999288","1","1","1","1","1","1","1","1","1"
"250025","img/neutralC/CFD-BM-207-024-N.jpg","img/neutralC/CFD-WM-014-002-N.jpg","img/neutralC/CFD-IF-729-393-N.jpg","1","1","1","1","0","0","0.437205599999288","0.573029599996516","0.534820399989258","1","1","1","1","1","1","1","1","1"
"250025","img/neutralC/CFD-IF-729-393-N.jpg","img/neutralC/CFD-BM-207-024-N.jpg","img/neutralC/CFD-BF-214-308-N.jpg","1","1","1","0","1","1","0.534820399989258","0.437205599999288","0.507652299987967","1","1","1","1","1","1","1","1","1"
"250025","img/neutralC/CFD-BF-214-308-N.jpg","img/neutralC/CFD-IF-729-393-N.jpg","img/neutralC/CFD-BM-036-003-N.jpg","1","1","1","1","0","1","0.507652299987967","0.534820399989258","0.686611500001163","1","1","1","1","1","1","1","1","1"
"250025","img/neutralC/CFD-BM-036-003-N.jpg","img/neutralC/CFD-BF-214-308-N.jpg","img/neutralC/CFD-BM-238-242-N.jpg","1","1","1","1","1","0","0.686611500001163","0.507652299987967","0.493741900005261","1","1","1","1","1","1","1","1","1"
"250025","img/neutralC/CFD-BM-238-242-N.jpg","img/neutralC/CFD-BM-036-003-N.jpg","img/neutralC/CFD-BF-011-002-N.jpg","1","1","1","0","1","1","0.493741900005261","0.686611500001163","0.593549899989739","1","1","1","1","1","1","1","1","1"
"250025","img/neutralC/CFD-BF-011-002-N.jpg","img/neutralC/CFD-BM-238-242-N.jpg","img/neutralC/CFD-MF-301-024-N.jpg","1","1","1","1","0","0","0.593549899989739","0.493741900005261","0.517993800007389","1","1","1","1","1","1","1","1","1"
"250025","img/neutralC/CFD-MF-301-024-N.jpg","img/neutralC/CFD-BF-011-002-N.jpg","img/neutralC/CFD-LF-204-133-N.jpg","1","1","1","0","1","1","0.517993800007389","0.593549899989739","0.453290699995705","1","1","1","1","1","1","1","1","1"
"250025","img/neutralC/CFD-LF-204-133-N.jpg","img/neutralC/CFD-MF-301-024-N.jpg","img/neutralC/CFD-AM-230-150-N.jpg","1","1","1","1","0","0","0.453290699995705","0.517993800007389","0.518827599997167","1","1","1","1","1","1","1","1","1"
"250025","img/neutralC/CFD-AM-230-150-N.jpg","img/neutralC/CFD-LF-204-133-N.jpg","img/neutralC/CFD-IF-742-103-N.jpg","1","1","1","0","1","1","0.518827599997167","0.453290699995705","0.480837700000848","1","1","1","1","1","1","1","1","1"
"250025","img/neutralC/CFD-IF-742-103-N.jpg","img/neutralC/CFD-AM-230-150-N.jpg","img/neutralC/CFD-BF-006-017-N.jpg","1","1","1","1","0","0","0.480837700000848","0.518827599997167","0.474173000009614","1","1","1","1","1","1","1","1","1"
"250025","img/neutralC/CFD-BF-006-017-N.jpg","img/neutralC/CFD-IF-742-103-N.jpg","img/neutralC/CFD-IM-726-248-N.jpg","1","1","1","0","1","0","0.474173000009614","0.480837700000848","0.799606000000495","1","1","1","1","1","1","1","1","1"
"250025","img/neutralC/CFD-IM-726-248-N.jpg","img/neutralC/CFD-BF-006-017-N.jpg","img/neutralC/CFD-BF-027-002-N.jpg","1","1","1","0","0","1","0.799606000000495","0.474173000009614","0.402469499997096","1","1","1","1","1","1","1","1","1"
"250025","img/neutralC/CFD-BF-027-002-N.jpg","img/neutralC/CFD-IM-726-248-N.jpg","img/neutralC/CFD-BM-241-235-N.jpg","1","1","1","1","0","0","0.402469499997096","0.799606000000495","0.647575199996936","1","1","1","1","1","1","1","1","1"
"250025","img/neutralC/CFD-BM-241-235-N.jpg","img/neutralC/CFD-BF-027-002-N.jpg","img/neutralC/CFD-BF-002-001-N.jpg","1","1","1","0","1","0","0.647575199996936","0.402469499997096","0.646653500007233","1","1","1","1","1","1","1","1","1"
"250025","img/neutralC/CFD-BF-002-001-N.jpg","img/neutralC/CFD-BM-241-235-N.jpg","img/neutralC/CFD-WF-208-068-N.jpg","1","1","1","0","0","1","0.646653500007233","0.647575199996936","0.598406799996155","1","1","1","1","1","1","1","1","1"
"250025","img/neutralC/CFD-WF-208-068-N.jpg","img/neutralC/CFD-BF-002-001-N.jpg","img/neutralC/CFD-BF-247-179-N.jpg","1","1","1","1","0","0","0.598406799996155","0.646653500007233","0.559829000005266","1","1","1","1","1","1","1","1","1"
"250025","img/neutralC/CFD-BF-247-179-N.jpg","img/neutralC/CFD-WF-208-068-N.jpg","img/neutralC/CFD-BF-036-027-N.jpg","1","1","1","0","1","0","0.559829000005266","0.598406799996155","0.478650999983074","1","1","1","1","1","1","1","1","1"
"250025","img/neutralC/CFD-BF-036-027-N.jpg","img/neutralC/CFD-BF-247-179-N.jpg","img/neutralC/CFD-IM-696-001-N.jpg","1","1","1","0","0","0","0.478650999983074","0.559829000005266","0.501372200000333","1","1","1","1","1","1","1","1","1"
"250025","img/neutralC/CFD-IM-696-001-N.jpg","img/neutralC/CFD-BF-036-027-N.jpg","img/neutralC/CFD-WF-234-086-N.jpg","1","1","0","0","0","1","0.501372200000333","0.478650999983074","0.701207999998587","1","1","1","1","1","1","1","1","1"
"250025","img/neutralC/CFD-WF-234-086-N.jpg","img/neutralC/CFD-IM-696-001-N.jpg","img/neutralC/CFD-BF-207-004-N.jpg","0","1","1","1","0","1","0.701207999998587","0.501372200000333","0.892336299992166","1","1","1","1","1","1","1","1","1"
"250025","img/neutralC/CFD-BF-207-004-N.jpg","img/neutralC/CFD-WF-234-086-N.jpg","img/neutralC/CFD-WF-029-002-N.jpg","1","0","1","1","1","0","0.892336299992166","0.701207999998587","0.576218400005018","1","1","1","1","1","1","1","1","1"
"250025","img/neutralC/CFD-WF-029-002-N.jpg","img/neutralC/CFD-BF-207-004-N.jpg","img/neutralC/CFD-WM-034-030-N.jpg","1","1","1","0","1","1","0.576218400005018","0.892336299992166","0.535275000002002","1","1","1","1","1","1","1","1","1"
"250025","img/neutralC/CFD-WM-034-030-N.jpg","img/neutralC/CFD-WF-029-002-N.jpg","img/neutralC/CFD-IM-707-105-N.jpg","1","1","1","1","0","1","0.535275000002002","0.576218400005018","0.619986899997457","1","1","1","1","1","1","1","1","1"
"250025","img/neutralC/CFD-IM-707-105-N.jpg","img/neutralC/CFD-WM-034-030-N.jpg","img/neutralC/CFD-LM-213-061-N.jpg","1","1","0","1","1","0","0.619986899997457","0.535275000002002","1.04234430000361","1","1","1","1","1","1","1","1","1"
"250025","img/neutralC/CFD-LM-213-061-N.jpg","img/neutralC/CFD-IM-707-105-N.jpg","img/neutralC/CFD-BF-044-034-N.jpg","0","1","1","0","1","0","1.04234430000361","0.619986899997457","0.666794499993557","1","1","1","1","1","1","1","1","1"
"250025","img/neutralC/CFD-BF-044-034-N.jpg","img/neutralC/CFD-LM-213-061-N.jpg","img/neutralC/CFD-BF-236-177-N.jpg","1","0","1","0","0","0","0.666794499993557","1.04234430000361","0.56500839999353","1","1","1","1","1","1","1","1","1"
"250025","img/neutralC/CFD-BF-236-177-N.jpg","img/neutralC/CFD-BF-044-034-N.jpg","img/neutralC/CFD-IM-721-341-N.jpg","1","1","0","0","0","1","0.56500839999353","0.666794499993557","0.654410999995889","1","1","1","1","1","1","1","1","1"
"250025","img/neutralC/CFD-IM-721-341-N.jpg","img/neutralC/CFD-BF-236-177-N.jpg","img/neutralC/CFD-IF-677-452-1-N.jpg","0","1","1","1","0","1","0.654410999995889","0.56500839999353","0.683890300002531","1","1","1","1","1","1","1","1","1"
"250025","img/neutralC/CFD-IF-677-452-1-N.jpg","img/neutralC/CFD-IM-721-341-N.jpg","img/neutralC/CFD-WM-248-036-N.jpg","1","0","1","1","1","1","0.683890300002531","0.654410999995889","0.570632100003422","1","1","1","1","1","1","1","1","1"
"250025","img/neutralC/CFD-WM-248-036-N.jpg","img/neutralC/CFD-IF-677-452-1-N.jpg",NA,"1","1",NA,"1","1",NA,"0.570632100003422","0.683890300002531",NA,"1","1",NA,"1","1",NA,"1","1",NA
