"participant_id","current_trial_face","pre_trial_face","post_trial_face","current_trial_accuracy","pre_trial_accuracy","post_trial_accuracy","current_trial_congruency","pre_trial_congruency","post_trial_congruency","current_trial_rt","pre_trial_rt","post_trial_rt","current_trial_responded","pre_trial_responded","post_trial_responded","current_trial_legitResponse","pre_trial_legitResponse","post_trial_legitResponse","current_trial_resp_nums","pre_trial_resp_nums","post_trial_resp_nums"
"250059","img/neutralC/CFD-BM-039-029-N.jpg",NA,"img/neutralC/CFD-AF-254-167-N.jpg","1",NA,"1","1",NA,"1","0.512665800051764",NA,"0.429411899996921","1",NA,"1","1",NA,"1","1",NA,"1"
"250059","img/neutralC/CFD-AF-254-167-N.jpg","img/neutralC/CFD-BM-039-029-N.jpg","img/neutralC/CFD-WF-012-002-N.jpg","1","1","1","1","1","1","0.429411899996921","0.512665800051764","0.409323900006711","1","1","1","1","1","1","1","1","1"
"250059","img/neutralC/CFD-WF-012-002-N.jpg","img/neutralC/CFD-AF-254-167-N.jpg","img/neutralC/CFD-MF-327-002-N.jpg","1","1","1","1","1","0","0.409323900006711","0.429411899996921","0.512802099983674","1","1","1","1","1","1","1","1","1"
"250059","img/neutralC/CFD-MF-327-002-N.jpg","img/neutralC/CFD-WF-012-002-N.jpg","img/neutralC/CFD-WM-024-015-N.jpg","1","1","1","0","1","1","0.512802099983674","0.409323900006711","0.324224400043022","1","1","1","1","1","1","1","1","1"
"250059","img/neutralC/CFD-WM-024-015-N.jpg","img/neutralC/CFD-MF-327-002-N.jpg","img/neutralC/CFD-LF-201-035-N.jpg","1","1","1","1","0","1","0.324224400043022","0.512802099983674","0.502294899953995","1","1","1","1","1","1","1","1","1"
"250059","img/neutralC/CFD-LF-201-035-N.jpg","img/neutralC/CFD-WM-024-015-N.jpg","img/neutralC/CFD-MF-300-002-N.jpg","1","1","1","1","1","0","0.502294899953995","0.324224400043022","0.562275000032969","1","1","1","1","1","1","1","1","1"
"250059","img/neutralC/CFD-MF-300-002-N.jpg","img/neutralC/CFD-LF-201-035-N.jpg","img/neutralC/CFD-WM-232-070-N.jpg","1","1","1","0","1","0","0.562275000032969","0.502294899953995","0.41016699996544","1","1","1","1","1","1","1","1","1"
"250059","img/neutralC/CFD-WM-232-070-N.jpg","img/neutralC/CFD-MF-300-002-N.jpg","img/neutralC/CFD-WF-212-050-N.jpg","1","1","1","0","0","0","0.41016699996544","0.562275000032969","0.470823899959214","1","1","1","1","1","1","1","1","1"
"250059","img/neutralC/CFD-WF-212-050-N.jpg","img/neutralC/CFD-WM-232-070-N.jpg","img/neutralC/CFD-BF-051-035-N.jpg","1","1","1","0","0","0","0.470823899959214","0.41016699996544","0.414585799968336","1","1","1","1","1","1","1","1","1"
"250059","img/neutralC/CFD-BF-051-035-N.jpg","img/neutralC/CFD-WF-212-050-N.jpg","img/neutralC/CFD-WF-248-129-N.jpg","1","1","1","0","0","0","0.414585799968336","0.470823899959214","0.456765900016762","1","1","1","1","1","1","1","1","1"
"250059","img/neutralC/CFD-WF-248-129-N.jpg","img/neutralC/CFD-BF-051-035-N.jpg","img/neutralC/CFD-AM-236-090-N.jpg","1","1","1","0","0","1","0.456765900016762","0.414585799968336","0.465063499985263","1","1","1","1","1","1","1","1","1"
"250059","img/neutralC/CFD-AM-236-090-N.jpg","img/neutralC/CFD-WF-248-129-N.jpg","img/neutralC/CFD-BF-043-003-N.jpg","1","1","1","1","0","0","0.465063499985263","0.456765900016762","0.376290399988648","1","1","1","1","1","1","1","1","1"
"250059","img/neutralC/CFD-BF-043-003-N.jpg","img/neutralC/CFD-AM-236-090-N.jpg","img/neutralC/CFD-IF-619-197-N.jpg","1","1","1","0","1","0","0.376290399988648","0.465063499985263","0.474444099992979","1","1","1","1","1","1","1","1","1"
"250059","img/neutralC/CFD-IF-619-197-N.jpg","img/neutralC/CFD-BF-043-003-N.jpg","img/neutralC/CFD-AF-229-160-N.jpg","1","1","1","0","0","0","0.474444099992979","0.376290399988648","0.410957999993116","1","1","1","1","1","1","1","1","1"
"250059","img/neutralC/CFD-AF-229-160-N.jpg","img/neutralC/CFD-IF-619-197-N.jpg","img/neutralC/CFD-WF-217-085-N.jpg","1","1","1","0","0","1","0.410957999993116","0.474444099992979","0.384224399982486","1","1","1","1","1","1","1","1","1"
"250059","img/neutralC/CFD-WF-217-085-N.jpg","img/neutralC/CFD-AF-229-160-N.jpg","img/neutralC/CFD-LF-226-174-N.jpg","1","1","1","1","0","0","0.384224399982486","0.410957999993116","0.533903200004715","1","1","1","1","1","1","1","1","1"
"250059","img/neutralC/CFD-LF-226-174-N.jpg","img/neutralC/CFD-WF-217-085-N.jpg","img/neutralC/CFD-MF-329-001-N.jpg","1","1","0","0","1","0","0.533903200004715","0.384224399982486","0.345127300010063","1","1","1","1","1","1","1","1","1"
"250059","img/neutralC/CFD-MF-329-001-N.jpg","img/neutralC/CFD-LF-226-174-N.jpg","img/neutralC/CFD-IM-685-004-N.jpg","0","1","1","0","0","1","0.345127300010063","0.533903200004715","0.606898600002751","1","1","1","1","1","1","1","1","1"
"250059","img/neutralC/CFD-IM-685-004-N.jpg","img/neutralC/CFD-MF-329-001-N.jpg","img/neutralC/CFD-BF-224-002-N.jpg","1","0","1","1","0","1","0.606898600002751","0.345127300010063","0.382752500008792","1","1","1","1","1","1","1","1","1"
"250059","img/neutralC/CFD-BF-224-002-N.jpg","img/neutralC/CFD-IM-685-004-N.jpg","img/neutralC/CFD-IM-637-007-N.jpg","1","1","1","1","1","0","0.382752500008792","0.606898600002751","0.464352999988478","1","1","1","1","1","1","1","1","1"
"250059","img/neutralC/CFD-IM-637-007-N.jpg","img/neutralC/CFD-BF-224-002-N.jpg","img/neutralC/CFD-LM-217-162-N.jpg","1","1","1","0","1","0","0.464352999988478","0.382752500008792","0.539731600030791","1","1","1","1","1","1","1","1","1"
"250059","img/neutralC/CFD-LM-217-162-N.jpg","img/neutralC/CFD-IM-637-007-N.jpg","img/neutralC/CFD-WM-213-076-N.jpg","1","1","1","0","0","1","0.539731600030791","0.464352999988478","0.46055829996476","1","1","1","1","1","1","1","1","1"
"250059","img/neutralC/CFD-WM-213-076-N.jpg","img/neutralC/CFD-LM-217-162-N.jpg","img/neutralC/CFD-IM-709-103-N.jpg","1","1","1","1","0","0","0.46055829996476","0.539731600030791","0.612678600009531","1","1","1","1","1","1","1","1","1"
"250059","img/neutralC/CFD-IM-709-103-N.jpg","img/neutralC/CFD-WM-213-076-N.jpg","img/neutralC/CFD-IF-608-390-N.jpg","1","1","1","0","1","1","0.612678600009531","0.46055829996476","0.465613699983805","1","1","1","1","1","1","1","1","1"
"250059","img/neutralC/CFD-IF-608-390-N.jpg","img/neutralC/CFD-IM-709-103-N.jpg","img/neutralC/CFD-IM-675-015-N.jpg","1","1","1","1","0","1","0.465613699983805","0.612678600009531","0.563350500015076","1","1","1","1","1","1","1","1","1"
"250059","img/neutralC/CFD-IM-675-015-N.jpg","img/neutralC/CFD-IF-608-390-N.jpg","img/neutralC/CFD-AF-215-70-N.jpg","1","1","1","1","1","0","0.563350500015076","0.465613699983805","0.5575753999874","1","1","1","1","1","1","1","1","1"
"250059","img/neutralC/CFD-AF-215-70-N.jpg","img/neutralC/CFD-IM-675-015-N.jpg","img/neutralC/CFD-IM-604-014-N.jpg","1","1","1","0","1","0","0.5575753999874","0.563350500015076","0.613975999993272","1","1","1","1","1","1","1","1","1"
"250059","img/neutralC/CFD-IM-604-014-N.jpg","img/neutralC/CFD-AF-215-70-N.jpg","img/neutralC/CFD-BM-243-218-N.jpg","1","1","1","0","0","1","0.613975999993272","0.5575753999874","0.41418550000526","1","1","1","1","1","1","1","1","1"
"250059","img/neutralC/CFD-BM-243-218-N.jpg","img/neutralC/CFD-IM-604-014-N.jpg","img/neutralC/CFD-MF-340-026-N.jpg","1","1","1","1","0","1","0.41418550000526","0.613975999993272","0.490397799992934","1","1","1","1","1","1","1","1","1"
"250059","img/neutralC/CFD-MF-340-026-N.jpg","img/neutralC/CFD-BM-243-218-N.jpg","img/neutralC/CFD-WF-008-002-N.jpg","1","1","1","1","1","1","0.490397799992934","0.41418550000526","0.487090299953707","1","1","1","1","1","1","1","1","1"
"250059","img/neutralC/CFD-WF-008-002-N.jpg","img/neutralC/CFD-MF-340-026-N.jpg","img/neutralC/CFD-MM-304-002-N.jpg","1","1","1","1","1","1","0.487090299953707","0.490397799992934","0.514641500019934","1","1","1","1","1","1","1","1","1"
"250059","img/neutralC/CFD-MM-304-002-N.jpg","img/neutralC/CFD-WF-008-002-N.jpg",NA,"1","1",NA,"1","1",NA,"0.514641500019934","0.487090299953707",NA,"1","1",NA,"1","1",NA,"1","1",NA
"250059","img/neutralC/CFD-WF-029-002-N.jpg",NA,"img/neutralC/CFD-BF-247-179-N.jpg","1",NA,"1","0",NA,"0","0.507333599962294",NA,"0.304233599978033","1",NA,"1","1",NA,"1","1",NA,"1"
"250059","img/neutralC/CFD-BF-247-179-N.jpg","img/neutralC/CFD-WF-029-002-N.jpg","img/neutralC/CFD-LM-213-061-N.jpg","1","1","1","0","0","0","0.304233599978033","0.507333599962294","0.413507999968715","1","1","1","1","1","1","1","1","1"
"250059","img/neutralC/CFD-LM-213-061-N.jpg","img/neutralC/CFD-BF-247-179-N.jpg","img/neutralC/CFD-BF-027-002-N.jpg","1","1","1","0","0","1","0.413507999968715","0.304233599978033","0.315913199970964","1","1","1","1","1","1","1","1","1"
"250059","img/neutralC/CFD-BF-027-002-N.jpg","img/neutralC/CFD-LM-213-061-N.jpg","img/neutralC/CFD-IM-707-105-N.jpg","1","1","1","1","0","1","0.315913199970964","0.413507999968715","0.378673699975479","1","1","1","1","1","1","1","1","1"
"250059","img/neutralC/CFD-IM-707-105-N.jpg","img/neutralC/CFD-BF-027-002-N.jpg","img/neutralC/CFD-BF-002-001-N.jpg","1","1","1","1","1","0","0.378673699975479","0.315913199970964","0.44048930000281","1","1","1","1","1","1","1","1","1"
"250059","img/neutralC/CFD-BF-002-001-N.jpg","img/neutralC/CFD-IM-707-105-N.jpg","img/neutralC/CFD-BF-214-308-N.jpg","1","1","1","0","1","1","0.44048930000281","0.378673699975479","0.298758599965367","1","1","1","1","1","1","1","1","1"
"250059","img/neutralC/CFD-BF-214-308-N.jpg","img/neutralC/CFD-BF-002-001-N.jpg","img/neutralC/CFD-AM-230-150-N.jpg","1","1","1","1","0","0","0.298758599965367","0.44048930000281","0.298782799975015","1","1","1","1","1","1","1","1","1"
"250059","img/neutralC/CFD-AM-230-150-N.jpg","img/neutralC/CFD-BF-214-308-N.jpg","img/neutralC/CFD-LF-204-133-N.jpg","1","1","1","0","1","1","0.298782799975015","0.298758599965367","0.378135600010864","1","1","1","1","1","1","1","1","1"
"250059","img/neutralC/CFD-LF-204-133-N.jpg","img/neutralC/CFD-AM-230-150-N.jpg","img/neutralC/CFD-IM-721-341-N.jpg","1","1","1","1","0","1","0.378135600010864","0.298782799975015","0.536939599958714","1","1","1","1","1","1","1","1","1"
"250059","img/neutralC/CFD-IM-721-341-N.jpg","img/neutralC/CFD-LF-204-133-N.jpg","img/neutralC/CFD-IF-729-393-N.jpg","1","1","1","1","1","0","0.536939599958714","0.378135600010864","0.307794100022875","1","1","1","1","1","1","1","1","1"
"250059","img/neutralC/CFD-IF-729-393-N.jpg","img/neutralC/CFD-IM-721-341-N.jpg","img/neutralC/CFD-WM-248-036-N.jpg","1","1","1","0","1","1","0.307794100022875","0.536939599958714","0.383195100002922","1","1","1","1","1","1","1","1","1"
"250059","img/neutralC/CFD-WM-248-036-N.jpg","img/neutralC/CFD-IF-729-393-N.jpg","img/neutralC/CFD-BM-241-235-N.jpg","1","1","1","1","0","0","0.383195100002922","0.307794100022875","0.419610199984163","1","1","1","1","1","1","1","1","1"
"250059","img/neutralC/CFD-BM-241-235-N.jpg","img/neutralC/CFD-WM-248-036-N.jpg","img/neutralC/CFD-BM-036-003-N.jpg","1","1","1","0","1","1","0.419610199984163","0.383195100002922","0.38832819997333","1","1","1","1","1","1","1","1","1"
"250059","img/neutralC/CFD-BM-036-003-N.jpg","img/neutralC/CFD-BM-241-235-N.jpg","img/neutralC/CFD-BF-011-002-N.jpg","1","1","1","1","0","1","0.38832819997333","0.419610199984163","0.408667800016701","1","1","1","1","1","1","1","1","1"
"250059","img/neutralC/CFD-BF-011-002-N.jpg","img/neutralC/CFD-BM-036-003-N.jpg","img/neutralC/CFD-WF-233-112-N.jpg","1","1","1","1","1","1","0.408667800016701","0.38832819997333","0.440456899988931","1","1","1","1","1","1","1","1","1"
"250059","img/neutralC/CFD-WF-233-112-N.jpg","img/neutralC/CFD-BF-011-002-N.jpg","img/neutralC/CFD-MF-301-024-N.jpg","1","1","0","1","1","0","0.440456899988931","0.408667800016701","0.276199300016742","1","1","1","1","1","1","1","1","1"
"250059","img/neutralC/CFD-MF-301-024-N.jpg","img/neutralC/CFD-WF-233-112-N.jpg","img/neutralC/CFD-BF-236-177-N.jpg","0","1","1","0","1","0","0.276199300016742","0.440456899988931","0.414878599985968","1","1","1","1","1","1","1","1","1"
"250059","img/neutralC/CFD-BF-236-177-N.jpg","img/neutralC/CFD-MF-301-024-N.jpg","img/neutralC/CFD-BF-207-004-N.jpg","1","0","1","0","0","1","0.414878599985968","0.276199300016742","0.400455299997702","1","1","1","1","1","1","1","1","1"
"250059","img/neutralC/CFD-BF-207-004-N.jpg","img/neutralC/CFD-BF-236-177-N.jpg","img/neutralC/CFD-BM-238-242-N.jpg","1","1","0","1","0","0","0.400455299997702","0.414878599985968","0.356767499994021","1","1","1","1","1","1","1","1","2"
"250059","img/neutralC/CFD-BM-238-242-N.jpg","img/neutralC/CFD-BF-207-004-N.jpg","img/neutralC/CFD-WM-014-002-N.jpg","0","1","1","0","1","0","0.356767499994021","0.400455299997702","0.464391199988313","1","1","1","1","1","1","2","1","1"
"250059","img/neutralC/CFD-WM-014-002-N.jpg","img/neutralC/CFD-BM-238-242-N.jpg","img/neutralC/CFD-BF-044-034-N.jpg","1","0","1","0","0","0","0.464391199988313","0.356767499994021","0.39600419998169","1","1","1","1","1","1","1","2","1"
"250059","img/neutralC/CFD-BF-044-034-N.jpg","img/neutralC/CFD-WM-014-002-N.jpg","img/neutralC/CFD-IF-742-103-N.jpg","1","1","1","0","0","1","0.39600419998169","0.464391199988313","0.576763799996115","1","1","1","1","1","1","1","1","1"
"250059","img/neutralC/CFD-IF-742-103-N.jpg","img/neutralC/CFD-BF-044-034-N.jpg","img/neutralC/CFD-BF-036-027-N.jpg","1","1","1","1","0","0","0.576763799996115","0.39600419998169","0.305093200004194","1","1","1","1","1","1","1","1","1"
"250059","img/neutralC/CFD-BF-036-027-N.jpg","img/neutralC/CFD-IF-742-103-N.jpg","img/neutralC/CFD-WF-208-068-N.jpg","1","1","1","0","1","1","0.305093200004194","0.576763799996115","0.394007900031283","1","1","1","1","1","1","1","1","1"
"250059","img/neutralC/CFD-WF-208-068-N.jpg","img/neutralC/CFD-BF-036-027-N.jpg","img/neutralC/CFD-BM-207-024-N.jpg","1","1","1","1","0","1","0.394007900031283","0.305093200004194","0.410274099966046","1","1","1","1","1","1","1","1","1"
"250059","img/neutralC/CFD-BM-207-024-N.jpg","img/neutralC/CFD-WF-208-068-N.jpg","img/neutralC/CFD-BF-006-017-N.jpg","1","1","0","1","1","0","0.410274099966046","0.394007900031283","0.27342400001362","1","1","1","1","1","1","1","1","1"
"250059","img/neutralC/CFD-BF-006-017-N.jpg","img/neutralC/CFD-BM-207-024-N.jpg","img/neutralC/CFD-WF-234-086-N.jpg","0","1","1","0","1","1","0.27342400001362","0.410274099966046","0.437226200010628","1","1","1","1","1","1","1","1","1"
"250059","img/neutralC/CFD-WF-234-086-N.jpg","img/neutralC/CFD-BF-006-017-N.jpg","img/neutralC/CFD-IM-726-248-N.jpg","1","0","1","1","0","0","0.437226200010628","0.27342400001362","0.360453700006474","1","1","1","1","1","1","1","1","1"
"250059","img/neutralC/CFD-IM-726-248-N.jpg","img/neutralC/CFD-WF-234-086-N.jpg","img/neutralC/CFD-IM-696-001-N.jpg","1","1","1","0","1","0","0.360453700006474","0.437226200010628","0.365375899942592","1","1","1","1","1","1","1","1","1"
"250059","img/neutralC/CFD-IM-696-001-N.jpg","img/neutralC/CFD-IM-726-248-N.jpg","img/neutralC/CFD-IF-677-452-1-N.jpg","1","1","1","0","0","1","0.365375899942592","0.360453700006474","0.339201700000558","1","1","1","1","1","1","1","1","1"
"250059","img/neutralC/CFD-IF-677-452-1-N.jpg","img/neutralC/CFD-IM-696-001-N.jpg","img/neutralC/CFD-WM-034-030-N.jpg","1","1","1","1","0","1","0.339201700000558","0.365375899942592","0.376722699962556","1","1","1","1","1","1","1","1","1"
"250059","img/neutralC/CFD-WM-034-030-N.jpg","img/neutralC/CFD-IF-677-452-1-N.jpg",NA,"1","1",NA,"1","1",NA,"0.376722699962556","0.339201700000558",NA,"1","1",NA,"1","1",NA,"1","1",NA
"250059","img/neutralC/CFD-IM-635-010-N.jpg",NA,"img/neutralC/CFD-WF-210-086-N.jpg","1",NA,"1","1",NA,"0","2.00193649996072",NA,"0.595130500034429","1",NA,"1","1",NA,"1","1",NA,"1"
"250059","img/neutralC/CFD-WF-210-086-N.jpg","img/neutralC/CFD-IM-635-010-N.jpg","img/neutralC/CFD-AF-205-155-N.jpg","1","1","1","0","1","0","0.595130500034429","2.00193649996072","0.539795899996534","1","1","1","1","1","1","1","1","1"
"250059","img/neutralC/CFD-AF-205-155-N.jpg","img/neutralC/CFD-WF-210-086-N.jpg","img/neutralC/CFD-AM-245-111-N.jpg","1","1","1","0","0","1","0.539795899996534","0.595130500034429","0.353398600011133","1","1","1","1","1","1","1","1","1"
"250059","img/neutralC/CFD-AM-245-111-N.jpg","img/neutralC/CFD-AF-205-155-N.jpg","img/neutralC/CFD-AF-234-208-N.jpg","1","1","1","1","0","1","0.353398600011133","0.539795899996534","0.350087099999655","1","1","1","1","1","1","1","1","1"
"250059","img/neutralC/CFD-AF-234-208-N.jpg","img/neutralC/CFD-AM-245-111-N.jpg","img/neutralC/CFD-IF-636-011-N.jpg","1","1","1","1","1","1","0.350087099999655","0.353398600011133","0.32184489996871","1","1","1","1","1","1","1","1","1"
"250059","img/neutralC/CFD-IF-636-011-N.jpg","img/neutralC/CFD-AF-234-208-N.jpg","img/neutralC/CFD-LF-239-148-N.jpg","1","1","0","1","1","0","0.32184489996871","0.350087099999655","0.295525300025474","1","1","1","1","1","1","1","1","1"
"250059","img/neutralC/CFD-LF-239-148-N.jpg","img/neutralC/CFD-IF-636-011-N.jpg","img/neutralC/CFD-BF-020-002-N.jpg","0","1","1","0","1","1","0.295525300025474","0.32184489996871","0.390533799945842","1","1","1","1","1","1","1","1","1"
"250059","img/neutralC/CFD-BF-020-002-N.jpg","img/neutralC/CFD-LF-239-148-N.jpg","img/neutralC/CFD-BF-042-026-N.jpg","1","0","1","1","0","1","0.390533799945842","0.295525300025474","0.456180399982259","1","1","1","1","1","1","1","1","1"
"250059","img/neutralC/CFD-BF-042-026-N.jpg","img/neutralC/CFD-BF-020-002-N.jpg","img/neutralC/CFD-BF-040-003-N.jpg","1","1","1","1","1","1","0.456180399982259","0.390533799945842","0.300094000005629","1","1","1","1","1","1","1","1","1"
"250059","img/neutralC/CFD-BF-040-003-N.jpg","img/neutralC/CFD-BF-042-026-N.jpg","img/neutralC/CFD-IM-632-097-N.jpg","1","1","1","1","1","0","0.300094000005629","0.456180399982259","0.401653400040232","1","1","1","1","1","1","1","1","1"
"250059","img/neutralC/CFD-IM-632-097-N.jpg","img/neutralC/CFD-BF-040-003-N.jpg","img/neutralC/CFD-MF-302-027-N.jpg","1","1","1","0","1","0","0.401653400040232","0.300094000005629","0.323721100052353","1","1","1","1","1","1","1","1","1"
"250059","img/neutralC/CFD-MF-302-027-N.jpg","img/neutralC/CFD-IM-632-097-N.jpg","img/neutralC/CFD-LM-204-001-N.jpg","1","1","1","0","0","0","0.323721100052353","0.401653400040232","0.480110900010914","1","1","1","1","1","1","1","1","1"
"250059","img/neutralC/CFD-LM-204-001-N.jpg","img/neutralC/CFD-MF-302-027-N.jpg","img/neutralC/CFD-AF-246-242-N.jpg","1","1","1","0","0","0","0.480110900010914","0.323721100052353","0.475592199945822","1","1","1","1","1","1","1","1","1"
"250059","img/neutralC/CFD-AF-246-242-N.jpg","img/neutralC/CFD-LM-204-001-N.jpg","img/neutralC/CFD-LM-241-125-N.jpg","1","1","1","0","0","1","0.475592199945822","0.480110900010914","0.277172800037079","1","1","1","1","1","1","1","1","1"
"250059","img/neutralC/CFD-LM-241-125-N.jpg","img/neutralC/CFD-AF-246-242-N.jpg","img/neutralC/CFD-AM-225-102-N.jpg","1","1","0","1","0","0","0.277172800037079","0.475592199945822","0.363591700035613","1","1","1","1","1","1","1","1","1"
"250059","img/neutralC/CFD-AM-225-102-N.jpg","img/neutralC/CFD-LM-241-125-N.jpg","img/neutralC/CFD-AF-244-168-N.jpg","0","1","0","0","1","0","0.363591700035613","0.277172800037079","0.482529600034468","1","1","1","1","1","1","1","1","1"
"250059","img/neutralC/CFD-AF-244-168-N.jpg","img/neutralC/CFD-AM-225-102-N.jpg","img/neutralC/CFD-AF-250-200-N.jpg","0","0","1","0","0","1","0.482529600034468","0.363591700035613","0.369922599988058","1","1","1","1","1","1","1","1","1"
"250059","img/neutralC/CFD-AF-250-200-N.jpg","img/neutralC/CFD-AF-244-168-N.jpg","img/neutralC/CFD-MF-307-002-N.jpg","1","0","1","1","0","1","0.369922599988058","0.482529600034468","0.429696100007277","1","1","1","1","1","1","1","1","1"
"250059","img/neutralC/CFD-MF-307-002-N.jpg","img/neutralC/CFD-AF-250-200-N.jpg","img/neutralC/CFD-BF-206-143-N.jpg","1","1","1","1","1","1","0.429696100007277","0.369922599988058","0.419783899968024","1","1","1","1","1","1","1","1","1"
"250059","img/neutralC/CFD-BF-206-143-N.jpg","img/neutralC/CFD-MF-307-002-N.jpg","img/neutralC/CFD-BM-004-002-N.jpg","1","1","0","1","1","0","0.419783899968024","0.429696100007277","0.370429300004616","1","1","1","1","1","1","1","1","2"
"250059","img/neutralC/CFD-BM-004-002-N.jpg","img/neutralC/CFD-BF-206-143-N.jpg","img/neutralC/CFD-AF-213-126-N.jpg","0","1","1","0","1","1","0.370429300004616","0.419783899968024","0.40151799999876","1","1","1","1","1","1","2","1","1"
"250059","img/neutralC/CFD-AF-213-126-N.jpg","img/neutralC/CFD-BM-004-002-N.jpg","img/neutralC/CFD-IM-669-111-N.jpg","1","0","1","1","0","1","0.40151799999876","0.370429300004616","0.347194899979513","1","1","1","1","1","1","1","2","1"
"250059","img/neutralC/CFD-IM-669-111-N.jpg","img/neutralC/CFD-AF-213-126-N.jpg","img/neutralC/CFD-WF-235-121-N.jpg","1","1","1","1","1","0","0.347194899979513","0.40151799999876","0.391402899986133","1","1","1","1","1","1","1","1","1"
"250059","img/neutralC/CFD-WF-235-121-N.jpg","img/neutralC/CFD-IM-669-111-N.jpg","img/neutralC/CFD-IM-678-482-N.jpg","1","1","1","0","1","0","0.391402899986133","0.347194899979513","0.440207400009967","1","1","1","1","1","1","1","1","1"
"250059","img/neutralC/CFD-IM-678-482-N.jpg","img/neutralC/CFD-WF-235-121-N.jpg","img/neutralC/CFD-BM-215-155-N.jpg","1","1","1","0","0","0","0.440207400009967","0.391402899986133","0.434558199951425","1","1","1","1","1","1","1","1","1"
"250059","img/neutralC/CFD-BM-215-155-N.jpg","img/neutralC/CFD-IM-678-482-N.jpg","img/neutralC/CFD-BF-235-168-N.jpg","1","1","1","0","0","1","0.434558199951425","0.440207400009967","0.341345500026364","1","1","1","1","1","1","1","1","1"
"250059","img/neutralC/CFD-BF-235-168-N.jpg","img/neutralC/CFD-BM-215-155-N.jpg","img/neutralC/CFD-WM-018-002-N.jpg","1","1","1","1","0","0","0.341345500026364","0.434558199951425","0.427756699966267","1","1","1","1","1","1","1","1","1"
"250059","img/neutralC/CFD-WM-018-002-N.jpg","img/neutralC/CFD-BF-235-168-N.jpg","img/neutralC/CFD-WM-253-119-N.jpg","1","1","1","0","1","1","0.427756699966267","0.341345500026364","0.328432600013912","1","1","1","1","1","1","1","1","1"
"250059","img/neutralC/CFD-WM-253-119-N.jpg","img/neutralC/CFD-WM-018-002-N.jpg","img/neutralC/CFD-BF-217-189-N.jpg","1","1","0","1","0","0","0.328432600013912","0.427756699966267","0.300541400036309","1","1","1","1","1","1","1","1","1"
"250059","img/neutralC/CFD-BF-217-189-N.jpg","img/neutralC/CFD-WM-253-119-N.jpg","img/neutralC/CFD-AM-233-236-N.jpg","0","1","1","0","1","1","0.300541400036309","0.328432600013912","0.343568800017238","1","1","1","1","1","1","1","1","1"
"250059","img/neutralC/CFD-AM-233-236-N.jpg","img/neutralC/CFD-BF-217-189-N.jpg","img/neutralC/CFD-IF-732-260-N.jpg","1","0","1","1","0","0","0.343568800017238","0.300541400036309","0.444898999994621","1","1","1","1","1","1","1","1","1"
"250059","img/neutralC/CFD-IF-732-260-N.jpg","img/neutralC/CFD-AM-233-236-N.jpg",NA,"1","1",NA,"0","1",NA,"0.444898999994621","0.343568800017238",NA,"1","1",NA,"1","1",NA,"1","1",NA
"250059","img/neutralC/CFD-LF-218-072-N.jpg",NA,"img/neutralC/CFD-BF-229-179-N.jpg","1",NA,"0","0",NA,"0","0.487064699991606",NA,"0.388764999981504","1",NA,"1","1",NA,"1","1",NA,"1"
"250059","img/neutralC/CFD-BF-229-179-N.jpg","img/neutralC/CFD-LF-218-072-N.jpg","img/neutralC/CFD-MF-333-012-N.jpg","0","1","1","0","0","0","0.388764999981504","0.487064699991606","0.491684300010093","1","1","1","1","1","1","1","1","1"
"250059","img/neutralC/CFD-MF-333-012-N.jpg","img/neutralC/CFD-BF-229-179-N.jpg","img/neutralC/CFD-LM-228-188-N.jpg","1","0","1","0","0","1","0.491684300010093","0.388764999981504","0.380860800039954","1","1","1","1","1","1","1","1","1"
"250059","img/neutralC/CFD-LM-228-188-N.jpg","img/neutralC/CFD-MF-333-012-N.jpg","img/neutralC/CFD-WF-036-023-N.jpg","1","1","1","1","0","0","0.380860800039954","0.491684300010093","0.43598920002114","1","1","1","1","1","1","1","1","1"
"250059","img/neutralC/CFD-WF-036-023-N.jpg","img/neutralC/CFD-LM-228-188-N.jpg","img/neutralC/CFD-MF-352-054-N.jpg","1","1","0","0","1","0","0.43598920002114","0.380860800039954","0.25797869998496","1","1","1","1","1","1","1","1","1"
"250059","img/neutralC/CFD-MF-352-054-N.jpg","img/neutralC/CFD-WF-036-023-N.jpg","img/neutralC/CFD-IF-623-129-N.jpg","0","1","1","0","0","1","0.25797869998496","0.43598920002114","0.387011800019536","1","1","1","1","1","1","1","1","1"
"250059","img/neutralC/CFD-IF-623-129-N.jpg","img/neutralC/CFD-MF-352-054-N.jpg","img/neutralC/CFD-WF-200-099-N.jpg","1","0","0","1","0","0","0.387011800019536","0.25797869998496","0.331844899978023","1","1","1","1","1","1","1","1","1"
"250059","img/neutralC/CFD-WF-200-099-N.jpg","img/neutralC/CFD-IF-623-129-N.jpg","img/neutralC/CFD-WM-020-001-N.jpg","0","1","1","0","1","1","0.331844899978023","0.387011800019536","0.423857599962503","1","1","1","1","1","1","1","1","1"
"250059","img/neutralC/CFD-WM-020-001-N.jpg","img/neutralC/CFD-WF-200-099-N.jpg","img/neutralC/CFD-LF-220-120-N.jpg","1","0","1","1","0","1","0.423857599962503","0.331844899978023","0.347359500010498","1","1","1","1","1","1","1","1","1"
"250059","img/neutralC/CFD-LF-220-120-N.jpg","img/neutralC/CFD-WM-020-001-N.jpg","img/neutralC/CFD-WF-001-003-N.jpg","1","1","1","1","1","1","0.347359500010498","0.423857599962503","0.365071799955331","1","1","1","1","1","1","1","1","1"
"250059","img/neutralC/CFD-WF-001-003-N.jpg","img/neutralC/CFD-LF-220-120-N.jpg","img/neutralC/CFD-AM-251-124-N.jpg","1","1","1","1","1","0","0.365071799955331","0.347359500010498","0.459434999967925","1","1","1","1","1","1","1","1","1"
"250059","img/neutralC/CFD-AM-251-124-N.jpg","img/neutralC/CFD-WF-001-003-N.jpg","img/neutralC/CFD-WM-235-147-N.jpg","1","1","1","0","1","0","0.459434999967925","0.365071799955331","0.422857199970167","1","1","1","1","1","1","1","1","1"
"250059","img/neutralC/CFD-WM-235-147-N.jpg","img/neutralC/CFD-AM-251-124-N.jpg","img/neutralC/CFD-BM-225-154-N.jpg","1","1","1","0","0","1","0.422857199970167","0.459434999967925","0.306899899966083","1","1","1","1","1","1","1","1","1"
"250059","img/neutralC/CFD-BM-225-154-N.jpg","img/neutralC/CFD-WM-235-147-N.jpg","img/neutralC/CFD-AM-211-052-N.jpg","1","1","1","1","0","1","0.306899899966083","0.422857199970167","0.392621899954975","1","1","1","1","1","1","1","1","1"
"250059","img/neutralC/CFD-AM-211-052-N.jpg","img/neutralC/CFD-BM-225-154-N.jpg","img/neutralC/CFD-LM-237-264-N.jpg","1","1","1","1","1","0","0.392621899954975","0.306899899966083","0.488079099974129","1","1","1","1","1","1","1","1","1"
"250059","img/neutralC/CFD-LM-237-264-N.jpg","img/neutralC/CFD-AM-211-052-N.jpg","img/neutralC/CFD-IM-743-006-N.jpg","1","1","1","0","1","1","0.488079099974129","0.392621899954975","0.305463899974711","1","1","1","1","1","1","1","1","1"
"250059","img/neutralC/CFD-IM-743-006-N.jpg","img/neutralC/CFD-LM-237-264-N.jpg","img/neutralC/CFD-IM-671-601-N.jpg","1","1","1","1","0","0","0.305463899974711","0.488079099974129","0.432790699996985","1","1","1","1","1","1","1","1","1"
"250059","img/neutralC/CFD-IM-671-601-N.jpg","img/neutralC/CFD-IM-743-006-N.jpg","img/neutralC/CFD-IM-703-182-N.jpg","1","1","1","0","1","1","0.432790699996985","0.305463899974711","0.410439600003883","1","1","1","1","1","1","1","1","1"
"250059","img/neutralC/CFD-IM-703-182-N.jpg","img/neutralC/CFD-IM-671-601-N.jpg","img/neutralC/CFD-BF-232-187-N.jpg","1","1","1","1","0","1","0.410439600003883","0.432790699996985","0.402881199959666","1","1","1","1","1","1","1","1","1"
"250059","img/neutralC/CFD-BF-232-187-N.jpg","img/neutralC/CFD-IM-703-182-N.jpg","img/neutralC/CFD-MF-359-019-N.jpg","1","1","1","1","1","0","0.402881199959666","0.410439600003883","0.361989800003357","1","1","1","1","1","1","1","1","1"
"250059","img/neutralC/CFD-MF-359-019-N.jpg","img/neutralC/CFD-BF-232-187-N.jpg","img/neutralC/CFD-BF-038-037-N.jpg","1","1","1","0","1","1","0.361989800003357","0.402881199959666","0.365581499994732","1","1","1","1","1","1","1","1","1"
"250059","img/neutralC/CFD-BF-038-037-N.jpg","img/neutralC/CFD-MF-359-019-N.jpg","img/neutralC/CFD-WF-214-122-N.jpg","1","1","1","1","0","1","0.365581499994732","0.361989800003357","0.372601299954113","1","1","1","1","1","1","1","1","1"
"250059","img/neutralC/CFD-WF-214-122-N.jpg","img/neutralC/CFD-BF-038-037-N.jpg","img/neutralC/CFD-AM-242-176-N.jpg","1","1","1","1","1","1","0.372601299954113","0.365581499994732","0.387897299951874","1","1","1","1","1","1","1","1","1"
"250059","img/neutralC/CFD-AM-242-176-N.jpg","img/neutralC/CFD-WF-214-122-N.jpg","img/neutralC/CFD-BF-226-119-N.jpg","1","1","1","1","1","1","0.387897299951874","0.372601299954113","0.360494699969422","1","1","1","1","1","1","1","1","1"
"250059","img/neutralC/CFD-BF-226-119-N.jpg","img/neutralC/CFD-AM-242-176-N.jpg","img/neutralC/CFD-IM-616-214-N.jpg","1","1","1","1","1","0","0.360494699969422","0.387897299951874","0.4961679999833","1","1","1","1","1","1","1","1","1"
"250059","img/neutralC/CFD-IM-616-214-N.jpg","img/neutralC/CFD-BF-226-119-N.jpg","img/neutralC/CFD-BM-253-004-N.jpg","1","1","1","0","1","1","0.4961679999833","0.360494699969422","0.445399799966253","1","1","1","1","1","1","1","1","1"
"250059","img/neutralC/CFD-BM-253-004-N.jpg","img/neutralC/CFD-IM-616-214-N.jpg","img/neutralC/CFD-WM-033-025-N.jpg","1","1","1","1","0","1","0.445399799966253","0.4961679999833","0.382424900017213","1","1","1","1","1","1","1","1","1"
"250059","img/neutralC/CFD-WM-033-025-N.jpg","img/neutralC/CFD-BM-253-004-N.jpg","img/neutralC/CFD-WM-004-010-N.jpg","1","1","0","1","1","0","0.382424900017213","0.445399799966253","0.329110899998341","1","1","1","1","1","1","1","1","1"
"250059","img/neutralC/CFD-WM-004-010-N.jpg","img/neutralC/CFD-WM-033-025-N.jpg","img/neutralC/CFD-IM-645-001-N.jpg","0","1","0","0","1","0","0.329110899998341","0.382424900017213","0.420706300006714","1","1","1","1","1","1","1","1","1"
"250059","img/neutralC/CFD-IM-645-001-N.jpg","img/neutralC/CFD-WM-004-010-N.jpg","img/neutralC/CFD-WM-219-008-N.jpg","0","0","1","0","0","0","0.420706300006714","0.329110899998341","0.456649300002027","1","1","1","1","1","1","1","1","1"
"250059","img/neutralC/CFD-WM-219-008-N.jpg","img/neutralC/CFD-IM-645-001-N.jpg","img/neutralC/CFD-IF-650-315-N.jpg","1","0","1","0","0","0","0.456649300002027","0.420706300006714","0.464694400026929","1","1","1","1","1","1","1","1","1"
"250059","img/neutralC/CFD-IF-650-315-N.jpg","img/neutralC/CFD-WM-219-008-N.jpg",NA,"1","1",NA,"0","0",NA,"0.464694400026929","0.456649300002027",NA,"1","1",NA,"1","1",NA,"1","1",NA
"250059","img/neutralC/CFD-BM-010-003-N.jpg",NA,"img/neutralC/CFD-WM-228-065-N.jpg","1",NA,"0","0",NA,"0","0.646319999999832",NA,"0.315085499954876","1",NA,"1","1",NA,"1","1",NA,"1"
"250059","img/neutralC/CFD-WM-228-065-N.jpg","img/neutralC/CFD-BM-010-003-N.jpg","img/neutralC/CFD-IM-738-191-N.jpg","0","1","1","0","0","0","0.315085499954876","0.646319999999832","0.444238299969584","1","1","1","1","1","1","1","1","1"
"250059","img/neutralC/CFD-IM-738-191-N.jpg","img/neutralC/CFD-WM-228-065-N.jpg","img/neutralC/CFD-BF-004-014-N.jpg","1","0","0","0","0","1","0.444238299969584","0.315085499954876","0.30199339997489","1","1","1","1","1","1","1","1","1"
"250059","img/neutralC/CFD-BF-004-014-N.jpg","img/neutralC/CFD-IM-738-191-N.jpg","img/neutralC/CFD-BM-028-002-N.jpg","0","1","1","1","0","1","0.30199339997489","0.444238299969584","0.387365099973977","1","1","1","1","1","1","1","1","1"
"250059","img/neutralC/CFD-BM-028-002-N.jpg","img/neutralC/CFD-BF-004-014-N.jpg","img/neutralC/CFD-LF-225-164-N.jpg","1","0","1","1","1","1","0.387365099973977","0.30199339997489","0.394905499997549","1","1","1","1","1","1","1","1","1"
"250059","img/neutralC/CFD-LF-225-164-N.jpg","img/neutralC/CFD-BM-028-002-N.jpg","img/neutralC/CFD-BF-045-003-N.jpg","1","1","1","1","1","0","0.394905499997549","0.387365099973977","0.417574599967338","1","1","1","1","1","1","1","1","1"
"250059","img/neutralC/CFD-BF-045-003-N.jpg","img/neutralC/CFD-LF-225-164-N.jpg","img/neutralC/CFD-BM-013-002-N.jpg","1","1","1","0","1","1","0.417574599967338","0.394905499997549","0.654637600004207","1","1","1","1","1","1","1","1","1"
"250059","img/neutralC/CFD-BM-013-002-N.jpg","img/neutralC/CFD-BF-045-003-N.jpg","img/neutralC/CFD-WF-033-002-N.jpg","1","1","0","1","0","1","0.654637600004207","0.417574599967338","0.426044299965724","1","1","1","1","1","1","1","1","2"
"250059","img/neutralC/CFD-WF-033-002-N.jpg","img/neutralC/CFD-BM-013-002-N.jpg","img/neutralC/CFD-WM-254-152-N.jpg","0","1","1","1","1","1","0.426044299965724","0.654637600004207","0.424943499965593","1","1","1","1","1","1","2","1","1"
"250059","img/neutralC/CFD-WM-254-152-N.jpg","img/neutralC/CFD-WF-033-002-N.jpg","img/neutralC/CFD-MF-312-002-N.jpg","1","0","1","1","1","1","0.424943499965593","0.426044299965724","0.38485590001801","1","1","1","1","1","1","1","2","1"
"250059","img/neutralC/CFD-MF-312-002-N.jpg","img/neutralC/CFD-WM-254-152-N.jpg","img/neutralC/CFD-IF-744-114-N.jpg","1","1","0","1","1","0","0.38485590001801","0.424943499965593","0.342251099995337","1","1","1","1","1","1","1","1","1"
"250059","img/neutralC/CFD-IF-744-114-N.jpg","img/neutralC/CFD-MF-312-002-N.jpg","img/neutralC/CFD-WM-202-107-N.jpg","0","1","1","0","1","1","0.342251099995337","0.38485590001801","0.322605599998496","1","1","1","1","1","1","1","1","1"
"250059","img/neutralC/CFD-WM-202-107-N.jpg","img/neutralC/CFD-IF-744-114-N.jpg","img/neutralC/CFD-LF-210-220-N.jpg","1","0","1","1","0","1","0.322605599998496","0.342251099995337","0.409076199983247","1","1","1","1","1","1","1","1","1"
"250059","img/neutralC/CFD-LF-210-220-N.jpg","img/neutralC/CFD-WM-202-107-N.jpg","img/neutralC/CFD-LM-247-095-N.jpg","1","1","1","1","1","0","0.409076199983247","0.322605599998496","0.440173899987713","1","1","1","1","1","1","1","1","1"
"250059","img/neutralC/CFD-LM-247-095-N.jpg","img/neutralC/CFD-LF-210-220-N.jpg","img/neutralC/CFD-BM-003-003-N.jpg","1","1","1","0","1","0","0.440173899987713","0.409076199983247","0.422037099953741","1","1","1","1","1","1","1","1","1"
"250059","img/neutralC/CFD-BM-003-003-N.jpg","img/neutralC/CFD-LM-247-095-N.jpg","img/neutralC/CFD-IF-673-389-N.jpg","1","1","1","0","0","0","0.422037099953741","0.440173899987713","0.496832399978302","1","1","1","1","1","1","1","1","1"
"250059","img/neutralC/CFD-IF-673-389-N.jpg","img/neutralC/CFD-BM-003-003-N.jpg","img/neutralC/CFD-BM-213-134-N.jpg","1","1","1","0","0","1","0.496832399978302","0.422037099953741","0.427771800023038","1","1","1","1","1","1","1","1","1"
"250059","img/neutralC/CFD-BM-213-134-N.jpg","img/neutralC/CFD-IF-673-389-N.jpg","img/neutralC/CFD-MF-336-016-N.jpg","1","1","1","1","0","1","0.427771800023038","0.496832399978302","0.417011099983938","1","1","1","1","1","1","1","1","1"
"250059","img/neutralC/CFD-MF-336-016-N.jpg","img/neutralC/CFD-BM-213-134-N.jpg","img/neutralC/CFD-WF-223-133-N.jpg","1","1","0","1","1","0","0.417011099983938","0.427771800023038","0.421477600000799","1","1","1","1","1","1","1","1","1"
"250059","img/neutralC/CFD-WF-223-133-N.jpg","img/neutralC/CFD-MF-336-016-N.jpg","img/neutralC/CFD-LM-238-129-N.jpg","0","1","1","0","1","1","0.421477600000799","0.417011099983938","0.433219700003974","1","1","1","1","1","1","1","1","1"
"250059","img/neutralC/CFD-LM-238-129-N.jpg","img/neutralC/CFD-WF-223-133-N.jpg","img/neutralC/CFD-AF-227-207-N.jpg","1","0","1","1","0","1","0.433219700003974","0.421477600000799","0.401259700010996","1","1","1","1","1","1","1","1","1"
"250059","img/neutralC/CFD-AF-227-207-N.jpg","img/neutralC/CFD-LM-238-129-N.jpg","img/neutralC/CFD-WF-006-002-N.jpg","1","1","1","1","1","0","0.401259700010996","0.433219700003974","0.456824799999595","1","1","1","1","1","1","1","1","1"
"250059","img/neutralC/CFD-WF-006-002-N.jpg","img/neutralC/CFD-AF-227-207-N.jpg","img/neutralC/CFD-IF-625-225-N.jpg","1","1","1","0","1","0","0.456824799999595","0.401259700010996","0.391788200009614","1","1","1","1","1","1","1","1","1"
"250059","img/neutralC/CFD-IF-625-225-N.jpg","img/neutralC/CFD-WF-006-002-N.jpg","img/neutralC/CFD-AF-210-050-N.jpg","1","1","1","0","0","1","0.391788200009614","0.456824799999595","0.348081599979196","1","1","1","1","1","1","1","1","1"
"250059","img/neutralC/CFD-AF-210-050-N.jpg","img/neutralC/CFD-IF-625-225-N.jpg","img/neutralC/CFD-AM-221-184-N.jpg","1","1","1","1","0","1","0.348081599979196","0.391788200009614","0.324540000001434","1","1","1","1","1","1","1","1","1"
"250059","img/neutralC/CFD-AM-221-184-N.jpg","img/neutralC/CFD-AF-210-050-N.jpg","img/neutralC/CFD-LF-241-188-N.jpg","1","1","1","1","1","0","0.324540000001434","0.348081599979196","0.346897799987346","1","1","1","1","1","1","1","1","1"
"250059","img/neutralC/CFD-LF-241-188-N.jpg","img/neutralC/CFD-AM-221-184-N.jpg","img/neutralC/CFD-AF-239-171-N.jpg","1","1","1","0","1","1","0.346897799987346","0.324540000001434","0.363478899991605","1","1","1","1","1","1","1","1","1"
"250059","img/neutralC/CFD-AF-239-171-N.jpg","img/neutralC/CFD-LF-241-188-N.jpg","img/neutralC/CFD-IM-659-359-N.jpg","1","1","0","1","0","0","0.363478899991605","0.346897799987346","0.294970299990382","1","1","1","1","1","1","1","1","1"
"250059","img/neutralC/CFD-IM-659-359-N.jpg","img/neutralC/CFD-AF-239-171-N.jpg","img/neutralC/CFD-IM-701-312-N.jpg","0","1","0","0","1","0","0.294970299990382","0.363478899991605","0.341068199952133","1","1","1","1","1","1","1","1","2"
"250059","img/neutralC/CFD-IM-701-312-N.jpg","img/neutralC/CFD-IM-659-359-N.jpg","img/neutralC/CFD-BF-222-240-N.jpg","0","0","1","0","0","0","0.341068199952133","0.294970299990382","0.481451500032563","1","1","1","1","1","1","2","1","1"
"250059","img/neutralC/CFD-BF-222-240-N.jpg","img/neutralC/CFD-IM-701-312-N.jpg","img/neutralC/CFD-LF-208-127-N.jpg","1","0","0","0","0","0","0.481451500032563","0.341068199952133","0.362196199945174","1","1","1","1","1","1","1","2","1"
"250059","img/neutralC/CFD-LF-208-127-N.jpg","img/neutralC/CFD-BF-222-240-N.jpg",NA,"0","1",NA,"0","0",NA,"0.362196199945174","0.481451500032563",NA,"1","1",NA,"1","1",NA,"1","1",NA
"250059","img/neutralC/CFD-WM-225-127-N.jpg",NA,"img/neutralC/CFD-IM-674-281-N.jpg","1",NA,"1","0",NA,"1","0.424092100001872",NA,"0.412126799987163","1",NA,"1","1",NA,"1","1",NA,"1"
"250059","img/neutralC/CFD-IM-674-281-N.jpg","img/neutralC/CFD-WM-225-127-N.jpg","img/neutralC/CFD-LM-252-076-N.jpg","1","1","1","1","0","1","0.412126799987163","0.424092100001872","0.311114800046198","1","1","1","1","1","1","1","1","1"
"250059","img/neutralC/CFD-LM-252-076-N.jpg","img/neutralC/CFD-IM-674-281-N.jpg","img/neutralC/CFD-BF-003-003-N.jpg","1","1","1","1","1","0","0.311114800046198","0.412126799987163","0.325200500024948","1","1","1","1","1","1","1","1","1"
"250059","img/neutralC/CFD-BF-003-003-N.jpg","img/neutralC/CFD-LM-252-076-N.jpg","img/neutralC/CFD-WM-257-161-N.jpg","1","1","1","0","1","1","0.325200500024948","0.311114800046198","0.382383799995296","1","1","1","1","1","1","1","1","1"
"250059","img/neutralC/CFD-WM-257-161-N.jpg","img/neutralC/CFD-BF-003-003-N.jpg","img/neutralC/CFD-BF-255-140-N.jpg","1","1","1","1","0","1","0.382383799995296","0.325200500024948","0.37505410000449","1","1","1","1","1","1","1","1","1"
"250059","img/neutralC/CFD-BF-255-140-N.jpg","img/neutralC/CFD-WM-257-161-N.jpg","img/neutralC/CFD-BM-211-174-N.jpg","1","1","0","1","1","0","0.37505410000449","0.382383799995296","0.347021499997936","1","1","1","1","1","1","1","1","1"
"250059","img/neutralC/CFD-BM-211-174-N.jpg","img/neutralC/CFD-BF-255-140-N.jpg","img/neutralC/CFD-BM-015-015-N.jpg","0","1","1","0","1","0","0.347021499997936","0.37505410000449","0.466498699970543","1","1","1","1","1","1","1","1","1"
"250059","img/neutralC/CFD-BM-015-015-N.jpg","img/neutralC/CFD-BM-211-174-N.jpg","img/neutralC/CFD-LF-216-121-N.jpg","1","0","1","0","0","1","0.466498699970543","0.347021499997936","0.329624800011516","1","1","1","1","1","1","1","1","1"
"250059","img/neutralC/CFD-LF-216-121-N.jpg","img/neutralC/CFD-BM-015-015-N.jpg","img/neutralC/CFD-BF-201-080-N.jpg","1","1","1","1","0","1","0.329624800011516","0.466498699970543","0.383986000029836","1","1","1","1","1","1","1","1","1"
"250059","img/neutralC/CFD-BF-201-080-N.jpg","img/neutralC/CFD-LF-216-121-N.jpg","img/neutralC/CFD-AM-217-085-N.jpg","1","1","1","1","1","0","0.383986000029836","0.329624800011516","0.509613599977456","1","1","1","1","1","1","1","1","1"
"250059","img/neutralC/CFD-AM-217-085-N.jpg","img/neutralC/CFD-BF-201-080-N.jpg","img/neutralC/CFD-BM-027-001-N.jpg","1","1","1","0","1","0","0.509613599977456","0.383986000029836","0.343913299962878","1","1","1","1","1","1","1","1","1"
"250059","img/neutralC/CFD-BM-027-001-N.jpg","img/neutralC/CFD-AM-217-085-N.jpg","img/neutralC/CFD-WM-038-003-N.jpg","1","1","1","0","0","0","0.343913299962878","0.509613599977456","0.422111099993344","1","1","1","1","1","1","1","1","1"
"250059","img/neutralC/CFD-WM-038-003-N.jpg","img/neutralC/CFD-BM-027-001-N.jpg","img/neutralC/CFD-BF-204-189-N.jpg","1","1","1","0","0","1","0.422111099993344","0.343913299962878","0.371937700023409","1","1","1","1","1","1","1","1","1"
"250059","img/neutralC/CFD-BF-204-189-N.jpg","img/neutralC/CFD-WM-038-003-N.jpg","img/neutralC/CFD-AM-235-241-N.jpg","1","1","0","1","0","0","0.371937700023409","0.422111099993344","0.410690899996553","1","1","1","1","1","1","1","1","1"
"250059","img/neutralC/CFD-AM-235-241-N.jpg","img/neutralC/CFD-BF-204-189-N.jpg","img/neutralC/CFD-MM-319-052-N.jpg","0","1","1","0","1","1","0.410690899996553","0.371937700023409","0.442349300021306","1","1","1","1","1","1","1","1","1"
"250059","img/neutralC/CFD-MM-319-052-N.jpg","img/neutralC/CFD-AM-235-241-N.jpg","img/neutralC/CFD-IM-639-263-N.jpg","1","0","1","1","0","1","0.442349300021306","0.410690899996553","0.371010800008662","1","1","1","1","1","1","1","1","1"
"250059","img/neutralC/CFD-IM-639-263-N.jpg","img/neutralC/CFD-MM-319-052-N.jpg","img/neutralC/CFD-IF-672-305-N.jpg","1","1","1","1","1","0","0.371010800008662","0.442349300021306","0.414268099993933","1","1","1","1","1","1","1","1","1"
"250059","img/neutralC/CFD-IF-672-305-N.jpg","img/neutralC/CFD-IM-639-263-N.jpg","img/neutralC/CFD-BF-208-266-N.jpg","1","1","1","0","1","0","0.414268099993933","0.371010800008662","0.442489600041881","1","1","1","1","1","1","1","1","1"
"250059","img/neutralC/CFD-BF-208-266-N.jpg","img/neutralC/CFD-IF-672-305-N.jpg","img/neutralC/CFD-WM-002-009-N.jpg","1","1","1","0","0","0","0.442489600041881","0.414268099993933","0.487001899979077","1","1","1","1","1","1","1","1","1"
"250059","img/neutralC/CFD-WM-002-009-N.jpg","img/neutralC/CFD-BF-208-266-N.jpg","img/neutralC/CFD-WF-002-004-N.jpg","1","1","1","0","0","0","0.487001899979077","0.442489600041881","0.456271600036416","1","1","1","1","1","1","1","1","1"
"250059","img/neutralC/CFD-WF-002-004-N.jpg","img/neutralC/CFD-WM-002-009-N.jpg","img/neutralC/CFD-IF-718-001-N.jpg","1","1","1","0","0","1","0.456271600036416","0.487001899979077","0.490681800001766","1","1","1","1","1","1","1","1","1"
"250059","img/neutralC/CFD-IF-718-001-N.jpg","img/neutralC/CFD-WF-002-004-N.jpg","img/neutralC/CFD-BF-023-010-N.jpg","1","1","1","1","0","1","0.490681800001766","0.456271600036416","0.469947399978992","1","1","1","1","1","1","1","1","1"
"250059","img/neutralC/CFD-BF-023-010-N.jpg","img/neutralC/CFD-IF-718-001-N.jpg","img/neutralC/CFD-BM-247-240-N.jpg","1","1","1","1","1","0","0.469947399978992","0.490681800001766","0.388588699977845","1","1","1","1","1","1","1","1","1"
"250059","img/neutralC/CFD-BM-247-240-N.jpg","img/neutralC/CFD-BF-023-010-N.jpg","img/neutralC/CFD-WF-022-017-N.jpg","1","1","1","0","1","0","0.388588699977845","0.469947399978992","0.306884400022682","1","1","1","1","1","1","1","1","1"
"250059","img/neutralC/CFD-WF-022-017-N.jpg","img/neutralC/CFD-BM-247-240-N.jpg","img/neutralC/CFD-WF-026-002-N.jpg","1","1","1","0","0","1","0.306884400022682","0.388588699977845","0.434908299997915","1","1","1","1","1","1","1","1","1"
"250059","img/neutralC/CFD-WF-026-002-N.jpg","img/neutralC/CFD-WF-022-017-N.jpg","img/neutralC/CFD-IM-728-041-N.jpg","1","1","1","1","0","0","0.434908299997915","0.306884400022682","0.317432200012263","1","1","1","1","1","1","1","1","1"
"250059","img/neutralC/CFD-IM-728-041-N.jpg","img/neutralC/CFD-WF-026-002-N.jpg","img/neutralC/CFD-AM-215-120-N.jpg","1","1","1","0","1","1","0.317432200012263","0.434908299997915","0.317011599952821","1","1","1","1","1","1","1","1","1"
"250059","img/neutralC/CFD-AM-215-120-N.jpg","img/neutralC/CFD-IM-728-041-N.jpg","img/neutralC/CFD-WM-040-022-N.jpg","1","1","0","1","0","0","0.317011599952821","0.317432200012263","0.308844999992289","1","1","1","1","1","1","1","1","1"
"250059","img/neutralC/CFD-WM-040-022-N.jpg","img/neutralC/CFD-AM-215-120-N.jpg","img/neutralC/CFD-LF-236-221-N.jpg","0","1","1","0","1","1","0.308844999992289","0.317011599952821","0.314008100016508","1","1","1","1","1","1","1","1","1"
"250059","img/neutralC/CFD-LF-236-221-N.jpg","img/neutralC/CFD-WM-040-022-N.jpg","img/neutralC/CFD-BF-028-001-N.jpg","1","0","1","1","0","1","0.314008100016508","0.308844999992289","0.343898900027853","1","1","1","1","1","1","1","1","1"
"250059","img/neutralC/CFD-BF-028-001-N.jpg","img/neutralC/CFD-LF-236-221-N.jpg","img/neutralC/CFD-BM-029-024-N.jpg","1","1","1","1","1","1","0.343898900027853","0.314008100016508","0.313307000033092","1","1","1","1","1","1","1","1","1"
"250059","img/neutralC/CFD-BM-029-024-N.jpg","img/neutralC/CFD-BF-028-001-N.jpg",NA,"1","1",NA,"1","1",NA,"0.313307000033092","0.343898900027853",NA,"1","1",NA,"1","1",NA,"1","1",NA
"250059","img/neutralC/CFD-MF-342-022-N.jpg",NA,"img/neutralC/CFD-WF-027-003-N.jpg","1",NA,"1","1",NA,"1","0.549795099999756",NA,"0.359707199968398","1",NA,"1","1",NA,"1","1",NA,"1"
"250059","img/neutralC/CFD-WF-027-003-N.jpg","img/neutralC/CFD-MF-342-022-N.jpg","img/neutralC/CFD-WF-245-084-N.jpg","1","1","1","1","1","1","0.359707199968398","0.549795099999756","0.353259099996649","1","1","1","1","1","1","1","1","1"
"250059","img/neutralC/CFD-WF-245-084-N.jpg","img/neutralC/CFD-WF-027-003-N.jpg","img/neutralC/CFD-WM-221-091-N.jpg","1","1","1","1","1","0","0.353259099996649","0.359707199968398","0.350350099964999","1","1","1","1","1","1","1","1","1"
"250059","img/neutralC/CFD-WM-221-091-N.jpg","img/neutralC/CFD-WF-245-084-N.jpg","img/neutralC/CFD-BF-254-201-N.jpg","1","1","1","0","1","0","0.350350099964999","0.353259099996649","0.314169299963396","1","1","1","1","1","1","1","1","1"
"250059","img/neutralC/CFD-BF-254-201-N.jpg","img/neutralC/CFD-WM-221-091-N.jpg","img/neutralC/CFD-IM-627-178-N.jpg","1","1","1","0","0","1","0.314169299963396","0.350350099964999","0.332105799985584","1","1","1","1","1","1","1","1","1"
"250059","img/neutralC/CFD-IM-627-178-N.jpg","img/neutralC/CFD-BF-254-201-N.jpg","img/neutralC/CFD-LM-253-075-N.jpg","1","1","1","1","0","0","0.332105799985584","0.314169299963396","0.314495800004806","1","1","1","1","1","1","1","1","1"
"250059","img/neutralC/CFD-LM-253-075-N.jpg","img/neutralC/CFD-IM-627-178-N.jpg","img/neutralC/CFD-AF-221-147-N.jpg","1","1","1","0","1","0","0.314495800004806","0.332105799985584","0.403098700044211","1","1","1","1","1","1","1","1","1"
"250059","img/neutralC/CFD-AF-221-147-N.jpg","img/neutralC/CFD-LM-253-075-N.jpg","img/neutralC/CFD-LF-211-003-N.jpg","1","1","0","0","0","0","0.403098700044211","0.314495800004806","0.331056999973953","1","1","1","1","1","1","1","1","1"
"250059","img/neutralC/CFD-LF-211-003-N.jpg","img/neutralC/CFD-AF-221-147-N.jpg","img/neutralC/CFD-BM-023-029-N.jpg","0","1","1","0","0","1","0.331056999973953","0.403098700044211","0.370137899997644","1","1","1","1","1","1","1","1","1"
"250059","img/neutralC/CFD-BM-023-029-N.jpg","img/neutralC/CFD-LF-211-003-N.jpg","img/neutralC/CFD-BF-218-207-N.jpg","1","0","1","1","0","1","0.370137899997644","0.331056999973953","0.414119800028857","1","1","1","1","1","1","1","1","1"
"250059","img/neutralC/CFD-BF-218-207-N.jpg","img/neutralC/CFD-BM-023-029-N.jpg","img/neutralC/CFD-AF-232-078-N.jpg","1","1","1","1","1","1","0.414119800028857","0.370137899997644","0.460732700012159","1","1","1","1","1","1","1","1","1"
"250059","img/neutralC/CFD-AF-232-078-N.jpg","img/neutralC/CFD-BF-218-207-N.jpg","img/neutralC/CFD-WM-255-219-N.jpg","1","1","1","1","1","0","0.460732700012159","0.414119800028857","0.431068799982313","1","1","1","1","1","1","1","1","1"
"250059","img/neutralC/CFD-WM-255-219-N.jpg","img/neutralC/CFD-AF-232-078-N.jpg","img/neutralC/CFD-WM-201-063-N.jpg","1","1","1","0","1","1","0.431068799982313","0.460732700012159","0.375195699976757","1","1","1","1","1","1","1","1","1"
"250059","img/neutralC/CFD-WM-201-063-N.jpg","img/neutralC/CFD-WM-255-219-N.jpg","img/neutralC/CFD-BF-018-039-N.jpg","1","1","1","1","0","1","0.375195699976757","0.431068799982313","0.358444000012241","1","1","1","1","1","1","1","1","1"
"250059","img/neutralC/CFD-BF-018-039-N.jpg","img/neutralC/CFD-WM-201-063-N.jpg","img/neutralC/CFD-WM-009-002-N.jpg","1","1","1","1","1","0","0.358444000012241","0.375195699976757","0.547941500029992","1","1","1","1","1","1","1","1","1"
"250059","img/neutralC/CFD-WM-009-002-N.jpg","img/neutralC/CFD-BF-018-039-N.jpg","img/neutralC/CFD-MM-321-021-N.jpg","1","1","0","0","1","0","0.547941500029992","0.358444000012241","0.362771700019948","1","1","1","1","1","1","1","1","1"
"250059","img/neutralC/CFD-MM-321-021-N.jpg","img/neutralC/CFD-WM-009-002-N.jpg","img/neutralC/CFD-IM-719-221-N.jpg","0","1","1","0","0","0","0.362771700019948","0.547941500029992","0.409560700005386","1","1","1","1","1","1","1","1","1"
"250059","img/neutralC/CFD-IM-719-221-N.jpg","img/neutralC/CFD-MM-321-021-N.jpg","img/neutralC/CFD-IM-700-009-N.jpg","1","0","1","0","0","1","0.409560700005386","0.362771700019948","0.401775699981954","1","1","1","1","1","1","1","1","1"
"250059","img/neutralC/CFD-IM-700-009-N.jpg","img/neutralC/CFD-IM-719-221-N.jpg","img/neutralC/CFD-WM-237-052-N.jpg","1","1","1","1","0","1","0.401775699981954","0.409560700005386","0.373777600005269","1","1","1","1","1","1","1","1","1"
"250059","img/neutralC/CFD-WM-237-052-N.jpg","img/neutralC/CFD-IM-700-009-N.jpg","img/neutralC/CFD-MF-318-022-N.jpg","1","1","1","1","1","1","0.373777600005269","0.401775699981954","0.318914400006179","1","1","1","1","1","1","1","1","1"
"250059","img/neutralC/CFD-MF-318-022-N.jpg","img/neutralC/CFD-WM-237-052-N.jpg","img/neutralC/CFD-WF-023-003-N.jpg","1","1","1","1","1","1","0.318914400006179","0.373777600005269","0.271260600013193","1","1","1","1","1","1","1","1","1"
"250059","img/neutralC/CFD-WF-023-003-N.jpg","img/neutralC/CFD-MF-318-022-N.jpg","img/neutralC/CFD-MF-321-003-N.jpg","1","1","0","1","1","0","0.271260600013193","0.318914400006179","0.291824899963103","1","1","1","1","1","1","1","1","1"
"250059","img/neutralC/CFD-MF-321-003-N.jpg","img/neutralC/CFD-WF-023-003-N.jpg","img/neutralC/CFD-AM-244-222-N.jpg","0","1","1","0","1","0","0.291824899963103","0.271260600013193","0.364177000010386","1","1","1","1","1","1","1","1","1"
"250059","img/neutralC/CFD-AM-244-222-N.jpg","img/neutralC/CFD-MF-321-003-N.jpg","img/neutralC/CFD-WF-226-095-N.jpg","1","0","0","0","0","1","0.364177000010386","0.291824899963103","0.283789400011301","1","1","1","1","1","1","1","1","1"
"250059","img/neutralC/CFD-WF-226-095-N.jpg","img/neutralC/CFD-AM-244-222-N.jpg","img/neutralC/CFD-BM-204-003-N.jpg","0","1","1","1","0","0","0.283789400011301","0.364177000010386","0.38271109998459","1","1","1","1","1","1","1","1","1"
"250059","img/neutralC/CFD-BM-204-003-N.jpg","img/neutralC/CFD-WF-226-095-N.jpg","img/neutralC/CFD-LF-215-157-N.jpg","1","0","1","0","1","0","0.38271109998459","0.283789400011301","0.299683400022332","1","1","1","1","1","1","1","1","1"
"250059","img/neutralC/CFD-LF-215-157-N.jpg","img/neutralC/CFD-BM-204-003-N.jpg","img/neutralC/CFD-IF-629-234-N.jpg","1","1","0","0","0","0","0.299683400022332","0.38271109998459","0.385649300005753","1","1","1","1","1","1","1","1","2"
"250059","img/neutralC/CFD-IF-629-234-N.jpg","img/neutralC/CFD-LF-215-157-N.jpg","img/neutralC/CFD-WF-018-017-N.jpg","0","1","1","0","0","1","0.385649300005753","0.299683400022332","0.322266099974513","1","1","1","1","1","1","2","1","1"
"250059","img/neutralC/CFD-WF-018-017-N.jpg","img/neutralC/CFD-IF-629-234-N.jpg","img/neutralC/CFD-WF-238-023-N.jpg","1","0","1","1","0","0","0.322266099974513","0.385649300005753","0.451468400016893","1","1","1","1","1","1","1","2","1"
"250059","img/neutralC/CFD-WF-238-023-N.jpg","img/neutralC/CFD-WF-018-017-N.jpg","img/neutralC/CFD-BM-200-046-N.jpg","1","1","1","0","1","0","0.451468400016893","0.322266099974513","0.438270199985709","1","1","1","1","1","1","1","1","1"
"250059","img/neutralC/CFD-BM-200-046-N.jpg","img/neutralC/CFD-WF-238-023-N.jpg","img/neutralC/CFD-WM-013-001-N.jpg","1","1","1","0","0","1","0.438270199985709","0.451468400016893","0.365064000012353","1","1","1","1","1","1","1","1","1"
"250059","img/neutralC/CFD-WM-013-001-N.jpg","img/neutralC/CFD-BM-200-046-N.jpg",NA,"1","1",NA,"1","0",NA,"0.365064000012353","0.438270199985709",NA,"1","1",NA,"1","1",NA,"1","1",NA
"250059","img/neutralC/CFD-LF-238-154-N.jpg",NA,"img/neutralC/CFD-AF-237-223-N.jpg","1",NA,"1","1",NA,"0","0.452174399979413",NA,"0.418082399992272","1",NA,"1","1",NA,"1","1",NA,"1"
"250059","img/neutralC/CFD-AF-237-223-N.jpg","img/neutralC/CFD-LF-238-154-N.jpg","img/neutralC/CFD-MM-306-010-N.jpg","1","1","1","0","1","0","0.418082399992272","0.452174399979413","0.391228499996942","1","1","1","1","1","1","1","1","1"
"250059","img/neutralC/CFD-MM-306-010-N.jpg","img/neutralC/CFD-AF-237-223-N.jpg","img/neutralC/CFD-WF-243-148-N.jpg","1","1","0","0","0","0","0.391228499996942","0.418082399992272","0.43423910002457","1","1","1","1","1","1","1","1","2"
"250059","img/neutralC/CFD-WF-243-148-N.jpg","img/neutralC/CFD-MM-306-010-N.jpg","img/neutralC/CFD-WM-028-003-N.jpg","0","1","1","0","0","1","0.43423910002457","0.391228499996942","0.41671530000167","1","1","1","1","1","1","2","1","1"
"250059","img/neutralC/CFD-WM-028-003-N.jpg","img/neutralC/CFD-WF-243-148-N.jpg","img/neutralC/CFD-LF-212-066-N.jpg","1","0","1","1","0","1","0.41671530000167","0.43423910002457","0.347696600016207","1","1","1","1","1","1","1","2","1"
"250059","img/neutralC/CFD-LF-212-066-N.jpg","img/neutralC/CFD-WM-028-003-N.jpg","img/neutralC/CFD-LM-240-013-N.jpg","1","1","1","1","1","1","0.347696600016207","0.41671530000167","0.537750500021502","1","1","1","1","1","1","1","1","1"
"250059","img/neutralC/CFD-LM-240-013-N.jpg","img/neutralC/CFD-LF-212-066-N.jpg","img/neutralC/CFD-BM-009-002-N.jpg","1","1","1","1","1","1","0.537750500021502","0.347696600016207","0.423662599991076","1","1","1","1","1","1","1","1","1"
"250059","img/neutralC/CFD-BM-009-002-N.jpg","img/neutralC/CFD-LM-240-013-N.jpg","img/neutralC/CFD-WF-221-005-N.jpg","1","1","1","1","1","0","0.423662599991076","0.537750500021502","0.564381800009869","1","1","1","1","1","1","1","1","1"
"250059","img/neutralC/CFD-WF-221-005-N.jpg","img/neutralC/CFD-BM-009-002-N.jpg","img/neutralC/CFD-BM-021-021-N.jpg","1","1","1","0","1","1","0.564381800009869","0.423662599991076","0.290768100006972","1","1","1","1","1","1","1","1","1"
"250059","img/neutralC/CFD-BM-021-021-N.jpg","img/neutralC/CFD-WF-221-005-N.jpg","img/neutralC/CFD-IM-689-263-N.jpg","1","1","1","1","0","1","0.290768100006972","0.564381800009869","0.262696100049652","1","1","1","1","1","1","1","1","1"
"250059","img/neutralC/CFD-IM-689-263-N.jpg","img/neutralC/CFD-BM-021-021-N.jpg","img/neutralC/CFD-LF-222-147-N.jpg","1","1","1","1","1","0","0.262696100049652","0.290768100006972","0.360658599995077","1","1","1","1","1","1","1","1","1"
"250059","img/neutralC/CFD-LF-222-147-N.jpg","img/neutralC/CFD-IM-689-263-N.jpg","img/neutralC/CFD-WM-023-001-N.jpg","1","1","1","0","1","0","0.360658599995077","0.262696100049652","0.328829900012352","1","1","1","1","1","1","1","1","1"
"250059","img/neutralC/CFD-WM-023-001-N.jpg","img/neutralC/CFD-LF-222-147-N.jpg","img/neutralC/CFD-IF-676-017-N.jpg","1","1","1","0","0","1","0.328829900012352","0.360658599995077","0.398662799969316","1","1","1","1","1","1","1","1","1"
"250059","img/neutralC/CFD-IF-676-017-N.jpg","img/neutralC/CFD-WM-023-001-N.jpg","img/neutralC/CFD-MF-328-020-N.jpg","1","1","0","1","0","0","0.398662799969316","0.328829900012352","0.421309800003655","1","1","1","1","1","1","1","1","2"
"250059","img/neutralC/CFD-MF-328-020-N.jpg","img/neutralC/CFD-IF-676-017-N.jpg","img/neutralC/CFD-IM-606-008-N.jpg","0","1","1","0","1","0","0.421309800003655","0.398662799969316","0.346599099982996","1","1","1","1","1","1","2","1","1"
"250059","img/neutralC/CFD-IM-606-008-N.jpg","img/neutralC/CFD-MF-328-020-N.jpg","img/neutralC/CFD-BM-227-191-N.jpg","1","0","1","0","0","1","0.346599099982996","0.421309800003655","0.372467099979986","1","1","1","1","1","1","1","2","1"
"250059","img/neutralC/CFD-BM-227-191-N.jpg","img/neutralC/CFD-IM-606-008-N.jpg","img/neutralC/CFD-BF-244-231-N.jpg","1","1","1","1","0","1","0.372467099979986","0.346599099982996","0.333285600005183","1","1","1","1","1","1","1","1","1"
"250059","img/neutralC/CFD-BF-244-231-N.jpg","img/neutralC/CFD-BM-227-191-N.jpg","img/neutralC/CFD-AM-249-163-N.jpg","1","1","0","1","1","1","0.333285600005183","0.372467099979986","0.353135299985297","1","1","1","1","1","1","1","1","1"
"250059","img/neutralC/CFD-AM-249-163-N.jpg","img/neutralC/CFD-BF-244-231-N.jpg","img/neutralC/CFD-AM-205-153-N.jpg","0","1","1","1","1","1","0.353135299985297","0.333285600005183","0.471132999984547","1","1","1","1","1","1","1","1","1"
"250059","img/neutralC/CFD-AM-205-153-N.jpg","img/neutralC/CFD-AM-249-163-N.jpg","img/neutralC/CFD-BF-012-001-N.jpg","1","0","1","1","1","0","0.471132999984547","0.353135299985297","0.496566899993923","1","1","1","1","1","1","1","1","1"
"250059","img/neutralC/CFD-BF-012-001-N.jpg","img/neutralC/CFD-AM-205-153-N.jpg","img/neutralC/CFD-IM-615-167-N.jpg","1","1","1","0","1","0","0.496566899993923","0.471132999984547","0.447081900027115","1","1","1","1","1","1","1","1","1"
"250059","img/neutralC/CFD-IM-615-167-N.jpg","img/neutralC/CFD-BF-012-001-N.jpg","img/neutralC/CFD-IM-697-015-N.jpg","1","1","1","0","0","1","0.447081900027115","0.496566899993923","0.436673699994572","1","1","1","1","1","1","1","1","1"
"250059","img/neutralC/CFD-IM-697-015-N.jpg","img/neutralC/CFD-IM-615-167-N.jpg","img/neutralC/CFD-WF-241-210-N.jpg","1","1","1","1","0","0","0.436673699994572","0.447081900027115","0.432772100029979","1","1","1","1","1","1","1","1","1"
"250059","img/neutralC/CFD-WF-241-210-N.jpg","img/neutralC/CFD-IM-697-015-N.jpg","img/neutralC/CFD-WF-207-014-N.jpg","1","1","0","0","1","1","0.432772100029979","0.436673699994572","0.30215889995452","1","1","1","1","1","1","1","1","1"
"250059","img/neutralC/CFD-WF-207-014-N.jpg","img/neutralC/CFD-WF-241-210-N.jpg","img/neutralC/CFD-BM-030-003-N.jpg","0","1","1","1","0","0","0.30215889995452","0.432772100029979","0.413632600044366","1","1","1","1","1","1","1","1","1"
"250059","img/neutralC/CFD-BM-030-003-N.jpg","img/neutralC/CFD-WF-207-014-N.jpg","img/neutralC/CFD-BM-043-071-N.jpg","1","0","1","0","1","0","0.413632600044366","0.30215889995452","0.358729399973527","1","1","1","1","1","1","1","1","1"
"250059","img/neutralC/CFD-BM-043-071-N.jpg","img/neutralC/CFD-BM-030-003-N.jpg","img/neutralC/CFD-WM-025-002-N.jpg","1","1","0","0","0","0","0.358729399973527","0.413632600044366","0.32118020002963","1","1","1","1","1","1","1","1","1"
"250059","img/neutralC/CFD-WM-025-002-N.jpg","img/neutralC/CFD-BM-043-071-N.jpg","img/neutralC/CFD-AM-219-101-N.jpg","0","1","1","0","0","0","0.32118020002963","0.358729399973527","0.399271899950691","1","1","1","1","1","1","1","1","1"
"250059","img/neutralC/CFD-AM-219-101-N.jpg","img/neutralC/CFD-WM-025-002-N.jpg","img/neutralC/CFD-BM-020-001-N.jpg","1","0","1","0","0","0","0.399271899950691","0.32118020002963","0.425501500023529","1","1","1","1","1","1","1","1","1"
"250059","img/neutralC/CFD-BM-020-001-N.jpg","img/neutralC/CFD-AM-219-101-N.jpg","img/neutralC/CFD-AM-243-212-N.jpg","1","1","1","0","0","1","0.425501500023529","0.399271899950691","0.3769076000317","1","1","1","1","1","1","1","1","1"
"250059","img/neutralC/CFD-AM-243-212-N.jpg","img/neutralC/CFD-BM-020-001-N.jpg","img/neutralC/CFD-WF-009-001-N.jpg","1","1","1","1","0","1","0.3769076000317","0.425501500023529","0.35944390000077","1","1","1","1","1","1","1","1","1"
"250059","img/neutralC/CFD-WF-009-001-N.jpg","img/neutralC/CFD-AM-243-212-N.jpg",NA,"1","1",NA,"1","1",NA,"0.35944390000077","0.3769076000317",NA,"1","1",NA,"1","1",NA,"1","1",NA
"250059","img/neutralC/CFD-IM-648-337-N.jpg",NA,"img/neutralC/CFD-BF-202-109-N.jpg","0",NA,"1","0",NA,"1","0.57109759998275",NA,"0.432318300008774","1",NA,"1","1",NA,"1","1",NA,"1"
"250059","img/neutralC/CFD-BF-202-109-N.jpg","img/neutralC/CFD-IM-648-337-N.jpg","img/neutralC/CFD-LM-243-075-N.jpg","1","0","1","1","0","0","0.432318300008774","0.57109759998275","0.372196700016502","1","1","1","1","1","1","1","1","1"
"250059","img/neutralC/CFD-LM-243-075-N.jpg","img/neutralC/CFD-BF-202-109-N.jpg","img/neutralC/CFD-WM-006-002-N.jpg","1","1","1","0","1","0","0.372196700016502","0.432318300008774","0.364687499997672","1","1","1","1","1","1","1","1","1"
"250059","img/neutralC/CFD-WM-006-002-N.jpg","img/neutralC/CFD-LM-243-075-N.jpg","img/neutralC/CFD-LM-214-165-N.jpg","1","1","1","0","0","1","0.364687499997672","0.372196700016502","0.372411899967119","1","1","1","1","1","1","1","1","1"
"250059","img/neutralC/CFD-LM-214-165-N.jpg","img/neutralC/CFD-WM-006-002-N.jpg","img/neutralC/CFD-MM-317-061-N.jpg","1","1","1","1","0","1","0.372411899967119","0.364687499997672","0.450858399970457","1","1","1","1","1","1","1","1","1"
"250059","img/neutralC/CFD-MM-317-061-N.jpg","img/neutralC/CFD-LM-214-165-N.jpg","img/neutralC/CFD-WM-026-001-N.jpg","1","1","1","1","1","1","0.450858399970457","0.372411899967119","0.392492900020443","1","1","1","1","1","1","1","1","1"
"250059","img/neutralC/CFD-WM-026-001-N.jpg","img/neutralC/CFD-MM-317-061-N.jpg","img/neutralC/CFD-LM-201-057-N.jpg","1","1","1","1","1","1","0.392492900020443","0.450858399970457","0.392268600000534","1","1","1","1","1","1","1","1","1"
"250059","img/neutralC/CFD-LM-201-057-N.jpg","img/neutralC/CFD-WM-026-001-N.jpg","img/neutralC/CFD-IM-646-023-N.jpg","1","1","1","1","1","1","0.392268600000534","0.392492900020443","0.38242799998261","1","1","1","1","1","1","1","1","1"
"250059","img/neutralC/CFD-IM-646-023-N.jpg","img/neutralC/CFD-LM-201-057-N.jpg","img/neutralC/CFD-BM-248-128-N.jpg","1","1","1","1","1","0","0.38242799998261","0.392268600000534","0.718684799969196","1","1","1","1","1","1","1","1","1"
"250059","img/neutralC/CFD-BM-248-128-N.jpg","img/neutralC/CFD-IM-646-023-N.jpg","img/neutralC/CFD-WM-019-003-N.jpg","1","1","1","0","1","1","0.718684799969196","0.38242799998261","0.316085699945688","1","1","1","1","1","1","1","1","1"
"250059","img/neutralC/CFD-WM-019-003-N.jpg","img/neutralC/CFD-BM-248-128-N.jpg","img/neutralC/CFD-AF-240-206-N.jpg","1","1","1","1","0","0","0.316085699945688","0.718684799969196","0.297812700038776","1","1","1","1","1","1","1","1","1"
"250059","img/neutralC/CFD-AF-240-206-N.jpg","img/neutralC/CFD-WM-019-003-N.jpg","img/neutralC/CFD-BM-205-001-N.jpg","1","1","0","0","1","0","0.297812700038776","0.316085699945688","0.33501590002561","1","1","1","1","1","1","1","1","1"
"250059","img/neutralC/CFD-BM-205-001-N.jpg","img/neutralC/CFD-AF-240-206-N.jpg","img/neutralC/CFD-WM-215-041-N.jpg","0","1","1","0","0","0","0.33501590002561","0.297812700038776","0.521505199954845","1","1","1","1","1","1","1","1","1"
"250059","img/neutralC/CFD-WM-215-041-N.jpg","img/neutralC/CFD-BM-205-001-N.jpg","img/neutralC/CFD-WM-012-001-N.jpg","1","0","1","0","0","1","0.521505199954845","0.33501590002561","0.367309900000691","1","1","1","1","1","1","1","1","1"
"250059","img/neutralC/CFD-WM-012-001-N.jpg","img/neutralC/CFD-WM-215-041-N.jpg","img/neutralC/CFD-MF-335-002-N.jpg","1","1","1","1","0","0","0.367309900000691","0.521505199954845","0.425569000013638","1","1","1","1","1","1","1","1","1"
"250059","img/neutralC/CFD-MF-335-002-N.jpg","img/neutralC/CFD-WM-012-001-N.jpg","img/neutralC/CFD-WF-005-010-N.jpg","1","1","1","0","1","0","0.425569000013638","0.367309900000691","0.464948199980427","1","1","1","1","1","1","1","1","1"
"250059","img/neutralC/CFD-WF-005-010-N.jpg","img/neutralC/CFD-MF-335-002-N.jpg","img/neutralC/CFD-BF-228-212-N.jpg","1","1","1","0","0","0","0.464948199980427","0.425569000013638","0.455618800013326","1","1","1","1","1","1","1","1","1"
"250059","img/neutralC/CFD-BF-228-212-N.jpg","img/neutralC/CFD-WF-005-010-N.jpg","img/neutralC/CFD-LM-216-082-N.jpg","1","1","1","0","0","0","0.455618800013326","0.464948199980427","0.476149699999951","1","1","1","1","1","1","1","1","1"
"250059","img/neutralC/CFD-LM-216-082-N.jpg","img/neutralC/CFD-BF-228-212-N.jpg","img/neutralC/CFD-LM-244-068-N.jpg","1","1","1","0","0","1","0.476149699999951","0.455618800013326","0.406788199965376","1","1","1","1","1","1","1","1","1"
"250059","img/neutralC/CFD-LM-244-068-N.jpg","img/neutralC/CFD-LM-216-082-N.jpg","img/neutralC/CFD-IF-642-295-N.jpg","1","1","1","1","0","1","0.406788199965376","0.476149699999951","0.303168799960986","1","1","1","1","1","1","1","1","1"
"250059","img/neutralC/CFD-IF-642-295-N.jpg","img/neutralC/CFD-LM-244-068-N.jpg","img/neutralC/CFD-WM-212-097-N.jpg","1","1","1","1","1","0","0.303168799960986","0.406788199965376","0.453629600000568","1","1","1","1","1","1","1","1","1"
"250059","img/neutralC/CFD-WM-212-097-N.jpg","img/neutralC/CFD-IF-642-295-N.jpg","img/neutralC/CFD-AM-247-165-N.jpg","1","1","1","0","1","1","0.453629600000568","0.303168799960986","0.295910899993032","1","1","1","1","1","1","1","1","1"
"250059","img/neutralC/CFD-AM-247-165-N.jpg","img/neutralC/CFD-WM-212-097-N.jpg","img/neutralC/CFD-BF-041-001-N.jpg","1","1","1","1","0","1","0.295910899993032","0.453629600000568","0.316670799977146","1","1","1","1","1","1","1","1","1"
"250059","img/neutralC/CFD-BF-041-001-N.jpg","img/neutralC/CFD-AM-247-165-N.jpg","img/neutralC/CFD-WM-249-239-N.jpg","1","1","1","1","1","1","0.316670799977146","0.295910899993032","0.385685399989597","1","1","1","1","1","1","1","1","1"
"250059","img/neutralC/CFD-WM-249-239-N.jpg","img/neutralC/CFD-BF-041-001-N.jpg","img/neutralC/CFD-WF-017-003-N.jpg","1","1","1","1","1","1","0.385685399989597","0.316670799977146","0.392583300010301","1","1","1","1","1","1","1","1","1"
"250059","img/neutralC/CFD-WF-017-003-N.jpg","img/neutralC/CFD-WM-249-239-N.jpg","img/neutralC/CFD-BF-212-315-N.jpg","1","1","1","1","1","1","0.392583300010301","0.385685399989597","0.39773129997775","1","1","1","1","1","1","1","1","1"
"250059","img/neutralC/CFD-BF-212-315-N.jpg","img/neutralC/CFD-WF-017-003-N.jpg","img/neutralC/CFD-WF-240-083-N.jpg","1","1","1","1","1","0","0.39773129997775","0.392583300010301","0.450735600024927","1","1","1","1","1","1","1","1","1"
"250059","img/neutralC/CFD-WF-240-083-N.jpg","img/neutralC/CFD-BF-212-315-N.jpg","img/neutralC/CFD-WF-228-196-N.jpg","1","1","0","0","1","0","0.450735600024927","0.39773129997775","0.320251400000416","1","1","1","1","1","1","1","1","1"
"250059","img/neutralC/CFD-WF-228-196-N.jpg","img/neutralC/CFD-WF-240-083-N.jpg","img/neutralC/CFD-MF-309-002-N.jpg","0","1","1","0","0","0","0.320251400000416","0.450735600024927","0.483361600025091","1","1","1","1","1","1","1","1","1"
"250059","img/neutralC/CFD-MF-309-002-N.jpg","img/neutralC/CFD-WF-228-196-N.jpg","img/neutralC/CFD-BF-025-002-N.jpg","1","0","1","0","0","0","0.483361600025091","0.320251400000416","0.356147399987094","1","1","1","1","1","1","1","1","1"
"250059","img/neutralC/CFD-BF-025-002-N.jpg","img/neutralC/CFD-MF-309-002-N.jpg","img/neutralC/CFD-BM-251-013-N.jpg","1","1","1","0","0","1","0.356147399987094","0.483361600025091","0.319045599957462","1","1","1","1","1","1","1","1","1"
"250059","img/neutralC/CFD-BM-251-013-N.jpg","img/neutralC/CFD-BF-025-002-N.jpg",NA,"1","1",NA,"1","0",NA,"0.319045599957462","0.356147399987094",NA,"1","1",NA,"1","1",NA,"1","1",NA
"250059","img/neutralC/CFD-BF-238-190-N.jpg",NA,"img/neutralC/CFD-AF-206-079-N.jpg","1",NA,"1","1",NA,"1","0.392958000011276",NA,"0.420969400031026","1",NA,"1","1",NA,"1","1",NA,"1"
"250059","img/neutralC/CFD-AF-206-079-N.jpg","img/neutralC/CFD-BF-238-190-N.jpg","img/neutralC/CFD-AF-202-122-N.jpg","1","1","1","1","1","1","0.420969400031026","0.392958000011276","0.314363799989223","1","1","1","1","1","1","1","1","1"
"250059","img/neutralC/CFD-AF-202-122-N.jpg","img/neutralC/CFD-AF-206-079-N.jpg","img/neutralC/CFD-IM-657-308-N.jpg","1","1","1","1","1","0","0.314363799989223","0.420969400031026","0.411151300009806","1","1","1","1","1","1","1","1","1"
"250059","img/neutralC/CFD-IM-657-308-N.jpg","img/neutralC/CFD-AF-202-122-N.jpg","img/neutralC/CFD-LF-250-169-N.jpg","1","1","1","0","1","1","0.411151300009806","0.314363799989223","0.36380829999689","1","1","1","1","1","1","1","1","1"
"250059","img/neutralC/CFD-LF-250-169-N.jpg","img/neutralC/CFD-IM-657-308-N.jpg","img/neutralC/CFD-AF-241-141-N.jpg","1","1","0","1","0","1","0.36380829999689","0.411151300009806","0.353465199994389","1","1","1","1","1","1","1","1","1"
"250059","img/neutralC/CFD-AF-241-141-N.jpg","img/neutralC/CFD-LF-250-169-N.jpg","img/neutralC/CFD-LF-245-166-N.jpg","0","1","1","1","1","1","0.353465199994389","0.36380829999689","0.508283499977551","1","1","1","1","1","1","1","1","1"
"250059","img/neutralC/CFD-LF-245-166-N.jpg","img/neutralC/CFD-AF-241-141-N.jpg","img/neutralC/CFD-WM-242-011-N.jpg","1","0","1","1","1","0","0.508283499977551","0.353465199994389","0.471512100019027","1","1","1","1","1","1","1","1","1"
"250059","img/neutralC/CFD-WM-242-011-N.jpg","img/neutralC/CFD-LF-245-166-N.jpg","img/neutralC/CFD-IM-653-008-N.jpg","1","1","0","0","1","0","0.471512100019027","0.508283499977551","0.359955199994147","1","1","1","1","1","1","1","1","1"
"250059","img/neutralC/CFD-IM-653-008-N.jpg","img/neutralC/CFD-WM-242-011-N.jpg","img/neutralC/CFD-WM-227-099-N.jpg","0","1","1","0","0","1","0.359955199994147","0.471512100019027","0.372871099971235","1","1","1","1","1","1","1","1","1"
"250059","img/neutralC/CFD-WM-227-099-N.jpg","img/neutralC/CFD-IM-653-008-N.jpg","img/neutralC/CFD-BM-018-001-N.jpg","1","0","1","1","0","1","0.372871099971235","0.359955199994147","0.403641999990214","1","1","1","1","1","1","1","1","1"
"250059","img/neutralC/CFD-BM-018-001-N.jpg","img/neutralC/CFD-WM-227-099-N.jpg","img/neutralC/CFD-IF-620-218-N.jpg","1","1","1","1","1","0","0.403641999990214","0.372871099971235","0.38719239999773","1","1","1","1","1","1","1","1","1"
"250059","img/neutralC/CFD-IF-620-218-N.jpg","img/neutralC/CFD-BM-018-001-N.jpg","img/neutralC/CFD-BM-026-002-N.jpg","1","1","1","0","1","0","0.38719239999773","0.403641999990214","0.379679599951487","1","1","1","1","1","1","1","1","1"
"250059","img/neutralC/CFD-BM-026-002-N.jpg","img/neutralC/CFD-IF-620-218-N.jpg","img/neutralC/CFD-WM-017-002-N.jpg","1","1","1","0","0","0","0.379679599951487","0.38719239999773","0.319239699980244","1","1","1","1","1","1","1","1","1"
"250059","img/neutralC/CFD-WM-017-002-N.jpg","img/neutralC/CFD-BM-026-002-N.jpg","img/neutralC/CFD-MF-313-002-N.jpg","1","1","1","0","0","0","0.319239699980244","0.379679599951487","0.353268200007733","1","1","1","1","1","1","1","1","1"
"250059","img/neutralC/CFD-MF-313-002-N.jpg","img/neutralC/CFD-WM-017-002-N.jpg","img/neutralC/CFD-IM-638-250-1-N.jpg","1","1","1","0","0","1","0.353268200007733","0.319239699980244","0.303951999987476","1","1","1","1","1","1","1","1","1"
"250059","img/neutralC/CFD-IM-638-250-1-N.jpg","img/neutralC/CFD-MF-313-002-N.jpg","img/neutralC/CFD-BF-033-028-N.jpg","1","1","1","1","0","0","0.303951999987476","0.353268200007733","0.518295700021554","1","1","1","1","1","1","1","1","1"
"250059","img/neutralC/CFD-BF-033-028-N.jpg","img/neutralC/CFD-IM-638-250-1-N.jpg","img/neutralC/CFD-WF-209-052-N.jpg","1","1","1","0","1","1","0.518295700021554","0.303951999987476","0.315438299963716","1","1","1","1","1","1","1","1","1"
"250059","img/neutralC/CFD-WF-209-052-N.jpg","img/neutralC/CFD-BF-033-028-N.jpg","img/neutralC/CFD-IM-617-174-N.jpg","1","1","1","1","0","0","0.315438299963716","0.518295700021554","0.303500499983784","1","1","1","1","1","1","1","1","1"
"250059","img/neutralC/CFD-IM-617-174-N.jpg","img/neutralC/CFD-WF-209-052-N.jpg","img/neutralC/CFD-BM-212-117-N.jpg","1","1","1","0","1","0","0.303500499983784","0.315438299963716","0.459425600012764","1","1","1","1","1","1","1","1","1"
"250059","img/neutralC/CFD-BM-212-117-N.jpg","img/neutralC/CFD-IM-617-174-N.jpg","img/neutralC/CFD-LM-226-175-N.jpg","1","1","0","0","0","0","0.459425600012764","0.303500499983784","0.332764699996915","1","1","1","1","1","1","1","1","1"
"250059","img/neutralC/CFD-LM-226-175-N.jpg","img/neutralC/CFD-BM-212-117-N.jpg","img/neutralC/CFD-LF-242-121-N.jpg","0","1","0","0","0","0","0.332764699996915","0.459425600012764","0.574079099984374","1","1","1","1","1","1","1","1","1"
"250059","img/neutralC/CFD-LF-242-121-N.jpg","img/neutralC/CFD-LM-226-175-N.jpg","img/neutralC/CFD-BM-231-155-N.jpg","0","0","1","0","0","1","0.574079099984374","0.332764699996915","0.50361359998351","1","1","1","1","1","1","1","1","1"
"250059","img/neutralC/CFD-BM-231-155-N.jpg","img/neutralC/CFD-LF-242-121-N.jpg","img/neutralC/CFD-IF-665-015-N.jpg","1","0","1","1","0","0","0.50361359998351","0.574079099984374","0.459953900019173","1","1","1","1","1","1","1","1","1"
"250059","img/neutralC/CFD-IF-665-015-N.jpg","img/neutralC/CFD-BM-231-155-N.jpg","img/neutralC/CFD-BF-010-001-N.jpg","1","1","1","0","1","1","0.459953900019173","0.50361359998351","0.380668999976479","1","1","1","1","1","1","1","1","1"
"250059","img/neutralC/CFD-BF-010-001-N.jpg","img/neutralC/CFD-IF-665-015-N.jpg","img/neutralC/CFD-BM-005-003-N.jpg","1","1","0","1","0","1","0.380668999976479","0.459953900019173","0.354373300040606","1","1","1","1","1","1","1","1","1"
"250059","img/neutralC/CFD-BM-005-003-N.jpg","img/neutralC/CFD-BF-010-001-N.jpg","img/neutralC/CFD-LM-233-171-N.jpg","0","1","1","1","1","0","0.354373300040606","0.380668999976479","0.457407799956854","1","1","1","1","1","1","1","1","1"
"250059","img/neutralC/CFD-LM-233-171-N.jpg","img/neutralC/CFD-BM-005-003-N.jpg","img/neutralC/CFD-IM-727-195-N.jpg","1","0","1","0","1","1","0.457407799956854","0.354373300040606","0.380452800018247","1","1","1","1","1","1","1","1","1"
"250059","img/neutralC/CFD-IM-727-195-N.jpg","img/neutralC/CFD-LM-233-171-N.jpg","img/neutralC/CFD-LM-219-295-N.jpg","1","1","1","1","0","1","0.380452800018247","0.457407799956854","0.341556499945","1","1","1","1","1","1","1","1","1"
"250059","img/neutralC/CFD-LM-219-295-N.jpg","img/neutralC/CFD-IM-727-195-N.jpg","img/neutralC/CFD-LF-247-051-N.jpg","1","1","1","1","1","1","0.341556499945","0.380452800018247","0.352628700027708","1","1","1","1","1","1","1","1","1"
"250059","img/neutralC/CFD-LF-247-051-N.jpg","img/neutralC/CFD-LM-219-295-N.jpg","img/neutralC/CFD-WM-258-125-N.jpg","1","1","1","1","1","0","0.352628700027708","0.341556499945","0.5053325999761","1","1","1","1","1","1","1","1","1"
"250059","img/neutralC/CFD-WM-258-125-N.jpg","img/neutralC/CFD-LF-247-051-N.jpg","img/neutralC/CFD-IM-686-097-N.jpg","1","1","1","0","1","0","0.5053325999761","0.352628700027708","0.404120000021067","1","1","1","1","1","1","1","1","1"
"250059","img/neutralC/CFD-IM-686-097-N.jpg","img/neutralC/CFD-WM-258-125-N.jpg",NA,"1","1",NA,"0","0",NA,"0.404120000021067","0.5053325999761",NA,"1","1",NA,"1","1",NA,"1","1",NA
"250059","img/neutralC/CFD-MF-316-001-N.jpg",NA,"img/neutralC/CFD-IF-626-375-N.jpg","1",NA,"1","0",NA,"0","0.529851800005417",NA,"0.505562799982727","1",NA,"1","1",NA,"1","1",NA,"1"
"250059","img/neutralC/CFD-IF-626-375-N.jpg","img/neutralC/CFD-MF-316-001-N.jpg","img/neutralC/CFD-WF-244-163-N.jpg","1","1","1","0","0","1","0.505562799982727","0.529851800005417","0.379220200004056","1","1","1","1","1","1","1","1","1"
"250059","img/neutralC/CFD-WF-244-163-N.jpg","img/neutralC/CFD-IF-626-375-N.jpg","img/neutralC/CFD-BM-217-082-N.jpg","1","1","1","1","0","0","0.379220200004056","0.505562799982727","0.394882299995515","1","1","1","1","1","1","1","1","1"
"250059","img/neutralC/CFD-BM-217-082-N.jpg","img/neutralC/CFD-WF-244-163-N.jpg","img/neutralC/CFD-MF-357-002-N.jpg","1","1","1","0","1","0","0.394882299995515","0.379220200004056","0.444150399998762","1","1","1","1","1","1","1","1","1"
"250059","img/neutralC/CFD-MF-357-002-N.jpg","img/neutralC/CFD-BM-217-082-N.jpg","img/neutralC/CFD-LF-206-078-N.jpg","1","1","1","0","0","1","0.444150399998762","0.394882299995515","0.424661200027913","1","1","1","1","1","1","1","1","1"
"250059","img/neutralC/CFD-LF-206-078-N.jpg","img/neutralC/CFD-MF-357-002-N.jpg","img/neutralC/CFD-WF-222-092-N.jpg","1","1","1","1","0","1","0.424661200027913","0.444150399998762","0.403201200009789","1","1","1","1","1","1","1","1","1"
"250059","img/neutralC/CFD-WF-222-092-N.jpg","img/neutralC/CFD-LF-206-078-N.jpg","img/neutralC/CFD-LM-200-045-N.jpg","1","1","1","1","1","1","0.403201200009789","0.424661200027913","0.457660500018392","1","1","1","1","1","1","1","1","1"
"250059","img/neutralC/CFD-LM-200-045-N.jpg","img/neutralC/CFD-WF-222-092-N.jpg","img/neutralC/CFD-WM-015-002-N.jpg","1","1","1","1","1","0","0.457660500018392","0.403201200009789","0.434240199974738","1","1","1","1","1","1","1","1","1"
"250059","img/neutralC/CFD-WM-015-002-N.jpg","img/neutralC/CFD-LM-200-045-N.jpg","img/neutralC/CFD-IM-680-369-N.jpg","1","1","1","0","1","1","0.434240199974738","0.457660500018392","0.343291700002737","1","1","1","1","1","1","1","1","1"
"250059","img/neutralC/CFD-IM-680-369-N.jpg","img/neutralC/CFD-WM-015-002-N.jpg","img/neutralC/CFD-IF-660-464-N.jpg","1","1","0","1","0","0","0.343291700002737","0.434240199974738","0.2685380000039","1","1","1","1","1","1","1","1","1"
"250059","img/neutralC/CFD-IF-660-464-N.jpg","img/neutralC/CFD-IM-680-369-N.jpg","img/neutralC/CFD-WF-007-001-N.jpg","0","1","1","0","1","1","0.2685380000039","0.343291700002737","0.375535900006071","1","1","1","1","1","1","1","1","1"
"250059","img/neutralC/CFD-WF-007-001-N.jpg","img/neutralC/CFD-IF-660-464-N.jpg","img/neutralC/CFD-BM-001-014-N.jpg","1","0","1","1","0","0","0.375535900006071","0.2685380000039","0.358606700028758","1","1","1","1","1","1","1","1","1"
"250059","img/neutralC/CFD-BM-001-014-N.jpg","img/neutralC/CFD-WF-007-001-N.jpg","img/neutralC/CFD-WM-209-038-N.jpg","1","1","1","0","1","0","0.358606700028758","0.375535900006071","0.38737879996188","1","1","1","1","1","1","1","1","1"
"250059","img/neutralC/CFD-WM-209-038-N.jpg","img/neutralC/CFD-BM-001-014-N.jpg","img/neutralC/CFD-AF-233-190-N.jpg","1","1","0","0","0","0","0.38737879996188","0.358606700028758","0.358769899990875","1","1","1","1","1","1","1","1","2"
"250059","img/neutralC/CFD-AF-233-190-N.jpg","img/neutralC/CFD-WM-209-038-N.jpg","img/neutralC/CFD-BF-014-002-N.jpg","0","1","1","0","0","1","0.358769899990875","0.38737879996188","0.359072300023399","1","1","1","1","1","1","2","1","1"
"250059","img/neutralC/CFD-BF-014-002-N.jpg","img/neutralC/CFD-AF-233-190-N.jpg","img/neutralC/CFD-WM-218-074-N.jpg","1","0","1","1","0","1","0.359072300023399","0.358769899990875","0.419630900025368","1","1","1","1","1","1","1","2","1"
"250059","img/neutralC/CFD-WM-218-074-N.jpg","img/neutralC/CFD-BF-014-002-N.jpg","img/neutralC/CFD-LF-255-088-N.jpg","1","1","1","1","1","0","0.419630900025368","0.359072300023399","0.315529499959666","1","1","1","1","1","1","1","1","1"
"250059","img/neutralC/CFD-LF-255-088-N.jpg","img/neutralC/CFD-WM-218-074-N.jpg","img/neutralC/CFD-MF-303-013-N.jpg","1","1","0","0","1","0","0.315529499959666","0.419630900025368","0.339259900036268","1","1","1","1","1","1","1","1","1"
"250059","img/neutralC/CFD-MF-303-013-N.jpg","img/neutralC/CFD-LF-255-088-N.jpg","img/neutralC/CFD-MF-343-001-N.jpg","0","1","0","0","0","1","0.339259900036268","0.315529499959666","0.340744199987967","1","1","1","1","1","1","1","1","1"
"250059","img/neutralC/CFD-MF-343-001-N.jpg","img/neutralC/CFD-MF-303-013-N.jpg","img/neutralC/CFD-IM-706-002-N.jpg","0","0","1","1","0","0","0.340744199987967","0.339259900036268","0.411581700027455","1","1","1","1","1","1","1","1","1"
"250059","img/neutralC/CFD-IM-706-002-N.jpg","img/neutralC/CFD-MF-343-001-N.jpg","img/neutralC/CFD-AM-220-134-N.jpg","1","0","1","0","1","0","0.411581700027455","0.340744199987967","0.424484499963","1","1","1","1","1","1","1","1","1"
"250059","img/neutralC/CFD-AM-220-134-N.jpg","img/neutralC/CFD-IM-706-002-N.jpg","img/neutralC/CFD-IM-664-651-N.jpg","1","1","1","0","0","1","0.424484499963","0.411581700027455","0.380507300025783","1","1","1","1","1","1","1","1","1"
"250059","img/neutralC/CFD-IM-664-651-N.jpg","img/neutralC/CFD-AM-220-134-N.jpg","img/neutralC/CFD-MM-324-069-N.jpg","1","1","1","1","0","1","0.380507300025783","0.424484499963","0.469176799990237","1","1","1","1","1","1","1","1","1"
"250059","img/neutralC/CFD-MM-324-069-N.jpg","img/neutralC/CFD-IM-664-651-N.jpg","img/neutralC/CFD-IM-702-101-N.jpg","1","1","1","1","1","1","0.469176799990237","0.380507300025783","0.342340999981388","1","1","1","1","1","1","1","1","1"
"250059","img/neutralC/CFD-IM-702-101-N.jpg","img/neutralC/CFD-MM-324-069-N.jpg","img/neutralC/CFD-LM-225-130-N.jpg","1","1","0","1","1","0","0.342340999981388","0.469176799990237","0.409235699975397","1","1","1","1","1","1","1","1","1"
"250059","img/neutralC/CFD-LM-225-130-N.jpg","img/neutralC/CFD-IM-702-101-N.jpg","img/neutralC/CFD-IM-667-369-N.jpg","0","1","1","0","1","0","0.409235699975397","0.342340999981388","0.43966289999662","1","1","1","1","1","1","1","1","1"
"250059","img/neutralC/CFD-IM-667-369-N.jpg","img/neutralC/CFD-LM-225-130-N.jpg","img/neutralC/CFD-WF-030-002-N.jpg","1","0","0","0","0","0","0.43966289999662","0.409235699975397","0.38869789999444","1","1","1","1","1","1","1","1","1"
"250059","img/neutralC/CFD-WF-030-002-N.jpg","img/neutralC/CFD-IM-667-369-N.jpg","img/neutralC/CFD-BM-250-170-N.jpg","0","1","1","0","0","1","0.38869789999444","0.43966289999662","0.373279499995988","1","1","1","1","1","1","1","1","1"
"250059","img/neutralC/CFD-BM-250-170-N.jpg","img/neutralC/CFD-WF-030-002-N.jpg","img/neutralC/CFD-AF-253-130-N.jpg","1","0","1","1","0","1","0.373279499995988","0.38869789999444","0.335997699992731","1","1","1","1","1","1","1","1","1"
"250059","img/neutralC/CFD-AF-253-130-N.jpg","img/neutralC/CFD-BM-250-170-N.jpg","img/neutralC/CFD-MF-305-014-N.jpg","1","1","1","1","1","1","0.335997699992731","0.373279499995988","0.364421600010246","1","1","1","1","1","1","1","1","1"
"250059","img/neutralC/CFD-MF-305-014-N.jpg","img/neutralC/CFD-AF-253-130-N.jpg","img/neutralC/CFD-BF-237-172-N.jpg","1","1","1","1","1","1","0.364421600010246","0.335997699992731","0.451522400020622","1","1","1","1","1","1","1","1","1"
"250059","img/neutralC/CFD-BF-237-172-N.jpg","img/neutralC/CFD-MF-305-014-N.jpg",NA,"1","1",NA,"1","1",NA,"0.451522400020622","0.364421600010246",NA,"1","1",NA,"1","1",NA,"1","1",NA
"250059","img/neutralC/CFD-BF-029-031-N.jpg",NA,"img/neutralC/CFD-IF-634-382-N.jpg","1",NA,"1","1",NA,"1","0.550753800023813",NA,"0.339960899960715","1",NA,"1","1",NA,"1","1",NA,"1"
"250059","img/neutralC/CFD-IF-634-382-N.jpg","img/neutralC/CFD-BF-029-031-N.jpg","img/neutralC/CFD-WM-021-001-N.jpg","1","1","1","1","1","1","0.339960899960715","0.550753800023813","0.324384600040503","1","1","1","1","1","1","1","1","1"
"250059","img/neutralC/CFD-WM-021-001-N.jpg","img/neutralC/CFD-IF-634-382-N.jpg","img/neutralC/CFD-BF-253-202-N.jpg","1","1","1","1","1","0","0.324384600040503","0.339960899960715","0.388601599959657","1","1","1","1","1","1","1","1","1"
"250059","img/neutralC/CFD-BF-253-202-N.jpg","img/neutralC/CFD-WM-021-001-N.jpg","img/neutralC/CFD-WF-213-031-N.jpg","1","1","1","0","1","1","0.388601599959657","0.324384600040503","0.285586099955253","1","1","1","1","1","1","1","1","1"
"250059","img/neutralC/CFD-WF-213-031-N.jpg","img/neutralC/CFD-BF-253-202-N.jpg","img/neutralC/CFD-LM-218-183-N.jpg","1","1","1","1","0","1","0.285586099955253","0.388601599959657","0.309948000009172","1","1","1","1","1","1","1","1","1"
"250059","img/neutralC/CFD-LM-218-183-N.jpg","img/neutralC/CFD-WF-213-031-N.jpg","img/neutralC/CFD-IM-651-308-N.jpg","1","1","1","1","1","0","0.309948000009172","0.285586099955253","0.404122699983418","1","1","1","1","1","1","1","1","1"
"250059","img/neutralC/CFD-IM-651-308-N.jpg","img/neutralC/CFD-LM-218-183-N.jpg","img/neutralC/CFD-AM-212-050-N.jpg","1","1","1","0","1","1","0.404122699983418","0.309948000009172","0.340066099946853","1","1","1","1","1","1","1","1","1"
"250059","img/neutralC/CFD-AM-212-050-N.jpg","img/neutralC/CFD-IM-651-308-N.jpg","img/neutralC/CFD-IF-710-016-N.jpg","1","1","0","1","0","0","0.340066099946853","0.404122699983418","0.284360999939963","1","1","1","1","1","1","1","1","1"
"250059","img/neutralC/CFD-IF-710-016-N.jpg","img/neutralC/CFD-AM-212-050-N.jpg","img/neutralC/CFD-BF-205-141-N.jpg","0","1","0","0","1","0","0.284360999939963","0.340066099946853","0.37982390000252","1","1","1","1","1","1","1","1","2"
"250059","img/neutralC/CFD-BF-205-141-N.jpg","img/neutralC/CFD-IF-710-016-N.jpg","img/neutralC/CFD-IM-684-008-N.jpg","0","0","1","0","0","1","0.37982390000252","0.284360999939963","0.350290199974552","1","1","1","1","1","1","2","1","1"
"250059","img/neutralC/CFD-IM-684-008-N.jpg","img/neutralC/CFD-BF-205-141-N.jpg","img/neutralC/CFD-LF-224-176-N.jpg","1","0","0","1","0","0","0.350290199974552","0.37982390000252","0.307456200011075","1","1","1","1","1","1","1","2","2"
"250059","img/neutralC/CFD-LF-224-176-N.jpg","img/neutralC/CFD-IM-684-008-N.jpg","img/neutralC/CFD-WF-250-167-N.jpg","0","1","1","0","1","1","0.307456200011075","0.350290199974552","0.379389000008814","1","1","1","1","1","1","2","1","1"
"250059","img/neutralC/CFD-WF-250-167-N.jpg","img/neutralC/CFD-LF-224-176-N.jpg","img/neutralC/CFD-AM-201-076-N.jpg","1","0","1","1","0","1","0.379389000008814","0.307456200011075","0.456419199996162","1","1","1","1","1","1","1","2","1"
"250059","img/neutralC/CFD-AM-201-076-N.jpg","img/neutralC/CFD-WF-250-167-N.jpg","img/neutralC/CFD-MF-337-026-N.jpg","1","1","1","1","1","1","0.456419199996162","0.379389000008814","0.471783999993932","1","1","1","1","1","1","1","1","1"
"250059","img/neutralC/CFD-MF-337-026-N.jpg","img/neutralC/CFD-AM-201-076-N.jpg","img/neutralC/CFD-WF-224-099-N.jpg","1","1","1","1","1","0","0.471783999993932","0.456419199996162","0.43270190001931","1","1","1","1","1","1","1","1","1"
"250059","img/neutralC/CFD-WF-224-099-N.jpg","img/neutralC/CFD-MF-337-026-N.jpg","img/neutralC/CFD-BF-039-031-N.jpg","1","1","1","0","1","1","0.43270190001931","0.471783999993932","0.385836599976756","1","1","1","1","1","1","1","1","1"
"250059","img/neutralC/CFD-BF-039-031-N.jpg","img/neutralC/CFD-WF-224-099-N.jpg","img/neutralC/CFD-BM-019-002-N.jpg","1","1","1","1","0","0","0.385836599976756","0.43270190001931","0.345696399977896","1","1","1","1","1","1","1","1","1"
"250059","img/neutralC/CFD-BM-019-002-N.jpg","img/neutralC/CFD-BF-039-031-N.jpg","img/neutralC/CFD-WM-041-021-N.jpg","1","1","1","0","1","0","0.345696399977896","0.385836599976756","0.432854400016367","1","1","1","1","1","1","1","1","1"
"250059","img/neutralC/CFD-WM-041-021-N.jpg","img/neutralC/CFD-BM-019-002-N.jpg","img/neutralC/CFD-LF-205-100-N.jpg","1","1","1","0","0","1","0.432854400016367","0.345696399977896","0.356077699980233","1","1","1","1","1","1","1","1","1"
"250059","img/neutralC/CFD-LF-205-100-N.jpg","img/neutralC/CFD-WM-041-021-N.jpg","img/neutralC/CFD-BF-213-188-N.jpg","1","1","1","1","0","1","0.356077699980233","0.432854400016367","0.385854099993594","1","1","1","1","1","1","1","1","1"
"250059","img/neutralC/CFD-BF-213-188-N.jpg","img/neutralC/CFD-LF-205-100-N.jpg","img/neutralC/CFD-WM-011-002-N.jpg","1","1","0","1","1","0","0.385854099993594","0.356077699980233","0.403450699988753","1","1","1","1","1","1","1","1","1"
"250059","img/neutralC/CFD-WM-011-002-N.jpg","img/neutralC/CFD-BF-213-188-N.jpg","img/neutralC/CFD-LF-214-090-N.jpg","0","1","1","0","1","0","0.403450699988753","0.385854099993594","0.551535800041165","1","1","1","1","1","1","1","1","1"
"250059","img/neutralC/CFD-LF-214-090-N.jpg","img/neutralC/CFD-WM-011-002-N.jpg","img/neutralC/CFD-LM-215-247-N.jpg","1","0","1","0","0","0","0.551535800041165","0.403450699988753","0.493671200005338","1","1","1","1","1","1","1","1","1"
"250059","img/neutralC/CFD-LM-215-247-N.jpg","img/neutralC/CFD-LF-214-090-N.jpg","img/neutralC/CFD-BM-239-136-N.jpg","1","1","1","0","0","1","0.493671200005338","0.551535800041165","0.394324099994264","1","1","1","1","1","1","1","1","1"
"250059","img/neutralC/CFD-BM-239-136-N.jpg","img/neutralC/CFD-LM-215-247-N.jpg","img/neutralC/CFD-BM-033-003-N.jpg","1","1","1","1","0","0","0.394324099994264","0.493671200005338","0.417558899964206","1","1","1","1","1","1","1","1","1"
"250059","img/neutralC/CFD-BM-033-003-N.jpg","img/neutralC/CFD-BM-239-136-N.jpg","img/neutralC/CFD-AF-231-357-N.jpg","1","1","1","0","1","1","0.417558899964206","0.394324099994264","0.54196179995779","1","1","1","1","1","1","1","1","1"
"250059","img/neutralC/CFD-AF-231-357-N.jpg","img/neutralC/CFD-BM-033-003-N.jpg","img/neutralC/CFD-LF-230-203-N.jpg","1","1","1","1","0","0","0.54196179995779","0.417558899964206","0.440221700002439","1","1","1","1","1","1","1","1","1"
"250059","img/neutralC/CFD-LF-230-203-N.jpg","img/neutralC/CFD-AF-231-357-N.jpg","img/neutralC/CFD-BM-041-035-N.jpg","1","1","1","0","1","0","0.440221700002439","0.54196179995779","0.334284800046589","1","1","1","1","1","1","1","1","1"
"250059","img/neutralC/CFD-BM-041-035-N.jpg","img/neutralC/CFD-LF-230-203-N.jpg","img/neutralC/CFD-LF-203-066-N.jpg","1","1","0","0","0","0","0.334284800046589","0.440221700002439","0.252921400009654","1","1","1","1","1","1","1","1","1"
"250059","img/neutralC/CFD-LF-203-066-N.jpg","img/neutralC/CFD-BM-041-035-N.jpg","img/neutralC/CFD-MM-316-156-N.jpg","0","1","1","0","0","1","0.252921400009654","0.334284800046589","0.348595299990848","1","1","1","1","1","1","1","1","1"
"250059","img/neutralC/CFD-MM-316-156-N.jpg","img/neutralC/CFD-LF-203-066-N.jpg","img/neutralC/CFD-IF-693-172-N.jpg","1","0","1","1","0","0","0.348595299990848","0.252921400009654","0.337403299985453","1","1","1","1","1","1","1","1","1"
"250059","img/neutralC/CFD-IF-693-172-N.jpg","img/neutralC/CFD-MM-316-156-N.jpg",NA,"1","1",NA,"0","1",NA,"0.337403299985453","0.348595299990848",NA,"1","1",NA,"1","1",NA,"1","1",NA
