"participant_id","current_trial_face","pre_trial_face","post_trial_face","current_trial_accuracy","pre_trial_accuracy","post_trial_accuracy","current_trial_congruency","pre_trial_congruency","post_trial_congruency","current_trial_rt","pre_trial_rt","post_trial_rt","current_trial_responded","pre_trial_responded","post_trial_responded","current_trial_legitResponse","pre_trial_legitResponse","post_trial_legitResponse","current_trial_resp_nums","pre_trial_resp_nums","post_trial_resp_nums"
"250045","img/neutralC/CFD-WF-222-092-N.jpg",NA,"img/neutralC/CFD-IM-702-101-N.jpg","1",NA,"1","1",NA,"1","1.08330629998818",NA,"0.530623900005594","1",NA,"1","1",NA,"1","1",NA,"1"
"250045","img/neutralC/CFD-IM-702-101-N.jpg","img/neutralC/CFD-WF-222-092-N.jpg","img/neutralC/CFD-AM-220-134-N.jpg","1","1","1","1","1","0","0.530623900005594","1.08330629998818","0.805301900021732","1","1","1","1","1","1","1","1","1"
"250045","img/neutralC/CFD-AM-220-134-N.jpg","img/neutralC/CFD-IM-702-101-N.jpg","img/neutralC/CFD-AF-233-190-N.jpg","1","1","1","0","1","0","0.805301900021732","0.530623900005594","0.58118460001424","1","1","1","1","1","1","1","1","1"
"250045","img/neutralC/CFD-AF-233-190-N.jpg","img/neutralC/CFD-AM-220-134-N.jpg","img/neutralC/CFD-WM-209-038-N.jpg","1","1","1","0","0","0","0.58118460001424","0.805301900021732","0.626094900071621","1","1","1","1","1","1","1","1","1"
"250045","img/neutralC/CFD-WM-209-038-N.jpg","img/neutralC/CFD-AF-233-190-N.jpg","img/neutralC/CFD-IM-664-651-N.jpg","1","1","1","0","0","1","0.626094900071621","0.58118460001424","0.786021800013259","1","1","1","1","1","1","1","1","1"
"250045","img/neutralC/CFD-IM-664-651-N.jpg","img/neutralC/CFD-WM-209-038-N.jpg","img/neutralC/CFD-WM-015-002-N.jpg","1","1","1","1","0","0","0.786021800013259","0.626094900071621","0.63904479984194","1","1","1","1","1","1","1","1","1"
"250045","img/neutralC/CFD-WM-015-002-N.jpg","img/neutralC/CFD-IM-664-651-N.jpg","img/neutralC/CFD-AF-253-130-N.jpg","1","1","1","0","1","1","0.63904479984194","0.786021800013259","0.617631300119683","1","1","1","1","1","1","1","1","1"
"250045","img/neutralC/CFD-AF-253-130-N.jpg","img/neutralC/CFD-WM-015-002-N.jpg","img/neutralC/CFD-IM-706-002-N.jpg","1","1","1","1","0","0","0.617631300119683","0.63904479984194","0.586212399881333","1","1","1","1","1","1","1","1","1"
"250045","img/neutralC/CFD-IM-706-002-N.jpg","img/neutralC/CFD-AF-253-130-N.jpg","img/neutralC/CFD-WF-244-163-N.jpg","1","1","1","0","1","1","0.586212399881333","0.617631300119683","0.735779900103807","1","1","1","1","1","1","1","1","1"
"250045","img/neutralC/CFD-WF-244-163-N.jpg","img/neutralC/CFD-IM-706-002-N.jpg","img/neutralC/CFD-LF-206-078-N.jpg","1","1","1","1","0","1","0.735779900103807","0.586212399881333","0.772907299920917","1","1","1","1","1","1","1","1","1"
"250045","img/neutralC/CFD-LF-206-078-N.jpg","img/neutralC/CFD-WF-244-163-N.jpg","img/neutralC/CFD-MF-343-001-N.jpg","1","1","1","1","1","1","0.772907299920917","0.735779900103807","0.707508699968457","1","1","1","1","1","1","1","1","1"
"250045","img/neutralC/CFD-MF-343-001-N.jpg","img/neutralC/CFD-LF-206-078-N.jpg","img/neutralC/CFD-LM-225-130-N.jpg","1","1","1","1","1","0","0.707508699968457","0.772907299920917","0.601124100154266","1","1","1","1","1","1","1","1","1"
"250045","img/neutralC/CFD-LM-225-130-N.jpg","img/neutralC/CFD-MF-343-001-N.jpg","img/neutralC/CFD-MM-324-069-N.jpg","1","1","1","0","1","1","0.601124100154266","0.707508699968457","0.585047800093889","1","1","1","1","1","1","1","1","1"
"250045","img/neutralC/CFD-MM-324-069-N.jpg","img/neutralC/CFD-LM-225-130-N.jpg","img/neutralC/CFD-IM-667-369-N.jpg","1","1","1","1","0","0","0.585047800093889","0.601124100154266","0.586249799933285","1","1","1","1","1","1","1","1","1"
"250045","img/neutralC/CFD-IM-667-369-N.jpg","img/neutralC/CFD-MM-324-069-N.jpg","img/neutralC/CFD-LM-200-045-N.jpg","1","1","1","0","1","1","0.586249799933285","0.585047800093889","0.780057100113481","1","1","1","1","1","1","1","1","1"
"250045","img/neutralC/CFD-LM-200-045-N.jpg","img/neutralC/CFD-IM-667-369-N.jpg","img/neutralC/CFD-IF-660-464-N.jpg","1","1","1","1","0","0","0.780057100113481","0.586249799933285","0.697001600172371","1","1","1","1","1","1","1","1","1"
"250045","img/neutralC/CFD-IF-660-464-N.jpg","img/neutralC/CFD-LM-200-045-N.jpg","img/neutralC/CFD-BF-014-002-N.jpg","1","1","1","0","1","1","0.697001600172371","0.780057100113481","0.640427800128236","1","1","1","1","1","1","1","1","1"
"250045","img/neutralC/CFD-BF-014-002-N.jpg","img/neutralC/CFD-IF-660-464-N.jpg","img/neutralC/CFD-IF-626-375-N.jpg","1","1","1","1","0","0","0.640427800128236","0.697001600172371","0.57691719988361","1","1","1","1","1","1","1","1","1"
"250045","img/neutralC/CFD-IF-626-375-N.jpg","img/neutralC/CFD-BF-014-002-N.jpg","img/neutralC/CFD-MF-357-002-N.jpg","1","1","1","0","1","0","0.57691719988361","0.640427800128236","0.557303899899125","1","1","1","1","1","1","1","1","1"
"250045","img/neutralC/CFD-MF-357-002-N.jpg","img/neutralC/CFD-IF-626-375-N.jpg","img/neutralC/CFD-MF-316-001-N.jpg","1","1","1","0","0","0","0.557303899899125","0.57691719988361","0.562096500070766","1","1","1","1","1","1","1","1","1"
"250045","img/neutralC/CFD-MF-316-001-N.jpg","img/neutralC/CFD-MF-357-002-N.jpg","img/neutralC/CFD-BM-217-082-N.jpg","1","1","1","0","0","0","0.562096500070766","0.557303899899125","0.675864899996668","1","1","1","1","1","1","1","1","1"
"250045","img/neutralC/CFD-BM-217-082-N.jpg","img/neutralC/CFD-MF-316-001-N.jpg","img/neutralC/CFD-WM-218-074-N.jpg","1","1","1","0","0","1","0.675864899996668","0.562096500070766","0.654131999937817","1","1","1","1","1","1","1","1","1"
"250045","img/neutralC/CFD-WM-218-074-N.jpg","img/neutralC/CFD-BM-217-082-N.jpg","img/neutralC/CFD-BM-250-170-N.jpg","1","1","1","1","0","1","0.654131999937817","0.675864899996668","0.560504099819809","1","1","1","1","1","1","1","1","1"
"250045","img/neutralC/CFD-BM-250-170-N.jpg","img/neutralC/CFD-WM-218-074-N.jpg","img/neutralC/CFD-BF-237-172-N.jpg","1","1","1","1","1","1","0.560504099819809","0.654131999937817","0.538167300168425","1","1","1","1","1","1","1","1","1"
"250045","img/neutralC/CFD-BF-237-172-N.jpg","img/neutralC/CFD-BM-250-170-N.jpg","img/neutralC/CFD-LF-255-088-N.jpg","1","1","1","1","1","0","0.538167300168425","0.560504099819809","0.533753799973056","1","1","1","1","1","1","1","1","1"
"250045","img/neutralC/CFD-LF-255-088-N.jpg","img/neutralC/CFD-BF-237-172-N.jpg","img/neutralC/CFD-MF-303-013-N.jpg","1","1","1","0","1","0","0.533753799973056","0.538167300168425","0.587589000118896","1","1","1","1","1","1","1","1","1"
"250045","img/neutralC/CFD-MF-303-013-N.jpg","img/neutralC/CFD-LF-255-088-N.jpg","img/neutralC/CFD-WF-007-001-N.jpg","1","1","1","0","0","1","0.587589000118896","0.533753799973056","0.625033099902794","1","1","1","1","1","1","1","1","1"
"250045","img/neutralC/CFD-WF-007-001-N.jpg","img/neutralC/CFD-MF-303-013-N.jpg","img/neutralC/CFD-IM-680-369-N.jpg","1","1","1","1","0","1","0.625033099902794","0.587589000118896","0.488513799849898","1","1","1","1","1","1","1","1","1"
"250045","img/neutralC/CFD-IM-680-369-N.jpg","img/neutralC/CFD-WF-007-001-N.jpg","img/neutralC/CFD-MF-305-014-N.jpg","1","1","1","1","1","1","0.488513799849898","0.625033099902794","0.541442700196058","1","1","1","1","1","1","1","1","1"
"250045","img/neutralC/CFD-MF-305-014-N.jpg","img/neutralC/CFD-IM-680-369-N.jpg","img/neutralC/CFD-WF-030-002-N.jpg","1","1","1","1","1","0","0.541442700196058","0.488513799849898","0.591991199878976","1","1","1","1","1","1","1","1","1"
"250045","img/neutralC/CFD-WF-030-002-N.jpg","img/neutralC/CFD-MF-305-014-N.jpg","img/neutralC/CFD-BM-001-014-N.jpg","1","1","1","0","1","0","0.591991199878976","0.541442700196058","0.566621199948713","1","1","1","1","1","1","1","1","1"
"250045","img/neutralC/CFD-BM-001-014-N.jpg","img/neutralC/CFD-WF-030-002-N.jpg",NA,"1","1",NA,"0","0",NA,"0.566621199948713","0.591991199878976",NA,"1","1",NA,"1","1",NA,"1","1",NA
"250045","img/neutralC/CFD-WM-017-002-N.jpg",NA,"img/neutralC/CFD-LF-250-169-N.jpg","1",NA,"1","0",NA,"1","1.07341760001145",NA,"0.720160000026226","1",NA,"1","1",NA,"1","1",NA,"1"
"250045","img/neutralC/CFD-LF-250-169-N.jpg","img/neutralC/CFD-WM-017-002-N.jpg","img/neutralC/CFD-IM-686-097-N.jpg","1","1","1","1","0","0","0.720160000026226","1.07341760001145","0.571497000055388","1","1","1","1","1","1","1","1","1"
"250045","img/neutralC/CFD-IM-686-097-N.jpg","img/neutralC/CFD-LF-250-169-N.jpg","img/neutralC/CFD-IF-620-218-N.jpg","1","1","1","0","1","0","0.571497000055388","0.720160000026226","0.510728599969298","1","1","1","1","1","1","1","1","1"
"250045","img/neutralC/CFD-IF-620-218-N.jpg","img/neutralC/CFD-IM-686-097-N.jpg","img/neutralC/CFD-MF-313-002-N.jpg","1","1","1","0","0","0","0.510728599969298","0.571497000055388","0.506225500022992","1","1","1","1","1","1","1","1","1"
"250045","img/neutralC/CFD-MF-313-002-N.jpg","img/neutralC/CFD-IF-620-218-N.jpg","img/neutralC/CFD-LF-245-166-N.jpg","1","1","1","0","0","1","0.506225500022992","0.510728599969298","0.451975800096989","1","1","1","1","1","1","1","1","1"
"250045","img/neutralC/CFD-LF-245-166-N.jpg","img/neutralC/CFD-MF-313-002-N.jpg","img/neutralC/CFD-LM-233-171-N.jpg","1","1","1","1","0","0","0.451975800096989","0.506225500022992","0.509127099998295","1","1","1","1","1","1","1","1","1"
"250045","img/neutralC/CFD-LM-233-171-N.jpg","img/neutralC/CFD-LF-245-166-N.jpg","img/neutralC/CFD-LM-219-295-N.jpg","1","1","1","0","1","1","0.509127099998295","0.451975800096989","0.59760360000655","1","1","1","1","1","1","1","1","1"
"250045","img/neutralC/CFD-LM-219-295-N.jpg","img/neutralC/CFD-LM-233-171-N.jpg","img/neutralC/CFD-AF-241-141-N.jpg","1","1","1","1","0","1","0.59760360000655","0.509127099998295","0.442810900043696","1","1","1","1","1","1","1","1","1"
"250045","img/neutralC/CFD-AF-241-141-N.jpg","img/neutralC/CFD-LM-219-295-N.jpg","img/neutralC/CFD-IF-665-015-N.jpg","1","1","1","1","1","0","0.442810900043696","0.59760360000655","0.484897200018167","1","1","1","1","1","1","1","1","1"
"250045","img/neutralC/CFD-IF-665-015-N.jpg","img/neutralC/CFD-AF-241-141-N.jpg","img/neutralC/CFD-BM-026-002-N.jpg","1","1","0","0","1","0","0.484897200018167","0.442810900043696","0.445243300171569","1","1","1","1","1","1","1","1","1"
"250045","img/neutralC/CFD-BM-026-002-N.jpg","img/neutralC/CFD-IF-665-015-N.jpg","img/neutralC/CFD-WM-227-099-N.jpg","0","1","1","0","0","1","0.445243300171569","0.484897200018167","0.603096300037578","1","1","1","1","1","1","1","1","1"
"250045","img/neutralC/CFD-WM-227-099-N.jpg","img/neutralC/CFD-BM-026-002-N.jpg","img/neutralC/CFD-BM-005-003-N.jpg","1","0","1","1","0","1","0.603096300037578","0.445243300171569","0.560789600014687","1","1","1","1","1","1","1","1","1"
"250045","img/neutralC/CFD-BM-005-003-N.jpg","img/neutralC/CFD-WM-227-099-N.jpg","img/neutralC/CFD-IM-617-174-N.jpg","1","1","1","1","1","0","0.560789600014687","0.603096300037578","0.454652399988845","1","1","1","1","1","1","1","1","1"
"250045","img/neutralC/CFD-IM-617-174-N.jpg","img/neutralC/CFD-BM-005-003-N.jpg","img/neutralC/CFD-LM-226-175-N.jpg","1","1","1","0","1","0","0.454652399988845","0.560789600014687","0.501971099991351","1","1","1","1","1","1","1","1","1"
"250045","img/neutralC/CFD-LM-226-175-N.jpg","img/neutralC/CFD-IM-617-174-N.jpg","img/neutralC/CFD-IM-727-195-N.jpg","1","1","1","0","0","1","0.501971099991351","0.454652399988845","0.634756500134245","1","1","1","1","1","1","1","1","1"
"250045","img/neutralC/CFD-IM-727-195-N.jpg","img/neutralC/CFD-LM-226-175-N.jpg","img/neutralC/CFD-AF-202-122-N.jpg","1","1","1","1","0","1","0.634756500134245","0.501971099991351","0.418100800132379","1","1","1","1","1","1","1","1","1"
"250045","img/neutralC/CFD-AF-202-122-N.jpg","img/neutralC/CFD-IM-727-195-N.jpg","img/neutralC/CFD-WF-209-052-N.jpg","1","1","1","1","1","1","0.418100800132379","0.634756500134245","0.441089000087231","1","1","1","1","1","1","1","1","1"
"250045","img/neutralC/CFD-WF-209-052-N.jpg","img/neutralC/CFD-AF-202-122-N.jpg","img/neutralC/CFD-BM-231-155-N.jpg","1","1","1","1","1","1","0.441089000087231","0.418100800132379","0.423793600173667","1","1","1","1","1","1","1","1","1"
"250045","img/neutralC/CFD-BM-231-155-N.jpg","img/neutralC/CFD-WF-209-052-N.jpg","img/neutralC/CFD-BF-238-190-N.jpg","1","1","1","1","1","1","0.423793600173667","0.441089000087231","0.37798220012337","1","1","1","1","1","1","1","1","1"
"250045","img/neutralC/CFD-BF-238-190-N.jpg","img/neutralC/CFD-BM-231-155-N.jpg","img/neutralC/CFD-IM-638-250-1-N.jpg","1","1","1","1","1","1","0.37798220012337","0.423793600173667","0.451343700056896","1","1","1","1","1","1","1","1","1"
"250045","img/neutralC/CFD-IM-638-250-1-N.jpg","img/neutralC/CFD-BF-238-190-N.jpg","img/neutralC/CFD-BF-010-001-N.jpg","1","1","1","1","1","1","0.451343700056896","0.37798220012337","0.412253099959344","1","1","1","1","1","1","1","1","1"
"250045","img/neutralC/CFD-BF-010-001-N.jpg","img/neutralC/CFD-IM-638-250-1-N.jpg","img/neutralC/CFD-BM-018-001-N.jpg","1","1","0","1","1","1","0.412253099959344","0.451343700056896","0.587294899858534","1","1","1","1","1","1","1","1","1"
"250045","img/neutralC/CFD-BM-018-001-N.jpg","img/neutralC/CFD-BF-010-001-N.jpg","img/neutralC/CFD-BF-033-028-N.jpg","0","1","1","1","1","0","0.587294899858534","0.412253099959344","0.65636679995805","1","1","1","1","1","1","1","1","1"
"250045","img/neutralC/CFD-BF-033-028-N.jpg","img/neutralC/CFD-BM-018-001-N.jpg","img/neutralC/CFD-IM-653-008-N.jpg","1","0","1","0","1","0","0.65636679995805","0.587294899858534","0.541366600198671","1","1","1","1","1","1","1","1","1"
"250045","img/neutralC/CFD-IM-653-008-N.jpg","img/neutralC/CFD-BF-033-028-N.jpg","img/neutralC/CFD-BM-212-117-N.jpg","1","1","1","0","0","0","0.541366600198671","0.65636679995805","0.547647699946538","1","1","1","1","1","1","1","1","1"
"250045","img/neutralC/CFD-BM-212-117-N.jpg","img/neutralC/CFD-IM-653-008-N.jpg","img/neutralC/CFD-WM-242-011-N.jpg","1","1","1","0","0","0","0.547647699946538","0.541366600198671","0.438247800106183","1","1","1","1","1","1","1","1","1"
"250045","img/neutralC/CFD-WM-242-011-N.jpg","img/neutralC/CFD-BM-212-117-N.jpg","img/neutralC/CFD-AF-206-079-N.jpg","1","1","1","0","0","1","0.438247800106183","0.547647699946538","0.558582200203091","1","1","1","1","1","1","1","1","1"
"250045","img/neutralC/CFD-AF-206-079-N.jpg","img/neutralC/CFD-WM-242-011-N.jpg","img/neutralC/CFD-WM-258-125-N.jpg","1","1","1","1","0","0","0.558582200203091","0.438247800106183","0.480380899971351","1","1","1","1","1","1","1","1","1"
"250045","img/neutralC/CFD-WM-258-125-N.jpg","img/neutralC/CFD-AF-206-079-N.jpg","img/neutralC/CFD-LF-242-121-N.jpg","1","1","1","0","1","0","0.480380899971351","0.558582200203091","0.48824999993667","1","1","1","1","1","1","1","1","1"
"250045","img/neutralC/CFD-LF-242-121-N.jpg","img/neutralC/CFD-WM-258-125-N.jpg","img/neutralC/CFD-LF-247-051-N.jpg","1","1","1","0","0","1","0.48824999993667","0.480380899971351","0.637261700117961","1","1","1","1","1","1","1","1","1"
"250045","img/neutralC/CFD-LF-247-051-N.jpg","img/neutralC/CFD-LF-242-121-N.jpg","img/neutralC/CFD-IM-657-308-N.jpg","1","1","1","1","0","0","0.637261700117961","0.48824999993667","0.570752100087702","1","1","1","1","1","1","1","1","1"
"250045","img/neutralC/CFD-IM-657-308-N.jpg","img/neutralC/CFD-LF-247-051-N.jpg",NA,"1","1",NA,"0","1",NA,"0.570752100087702","0.637261700117961",NA,"1","1",NA,"1","1",NA,"1","1",NA
"250045","img/neutralC/CFD-BM-247-240-N.jpg",NA,"img/neutralC/CFD-BM-015-015-N.jpg","1",NA,"0","0",NA,"0","0.821874700020999",NA,"0.452235799981281","1",NA,"1","1",NA,"1","1",NA,"1"
"250045","img/neutralC/CFD-BM-015-015-N.jpg","img/neutralC/CFD-BM-247-240-N.jpg","img/neutralC/CFD-BF-201-080-N.jpg","0","1","0","0","0","1","0.452235799981281","0.821874700020999","0.528065100079402","1","1","1","1","1","1","1","1","1"
"250045","img/neutralC/CFD-BF-201-080-N.jpg","img/neutralC/CFD-BM-015-015-N.jpg","img/neutralC/CFD-LF-216-121-N.jpg","0","0","1","1","0","1","0.528065100079402","0.452235799981281","0.481954399961978","1","1","1","1","1","1","1","1","1"
"250045","img/neutralC/CFD-LF-216-121-N.jpg","img/neutralC/CFD-BF-201-080-N.jpg","img/neutralC/CFD-BF-204-189-N.jpg","1","0","1","1","1","1","0.481954399961978","0.528065100079402","0.548831900116056","1","1","1","1","1","1","1","1","1"
"250045","img/neutralC/CFD-BF-204-189-N.jpg","img/neutralC/CFD-LF-216-121-N.jpg","img/neutralC/CFD-LM-252-076-N.jpg","1","1","0","1","1","1","0.548831900116056","0.481954399961978","0.453068099915981","1","1","1","1","1","1","1","1","2"
"250045","img/neutralC/CFD-LM-252-076-N.jpg","img/neutralC/CFD-BF-204-189-N.jpg","img/neutralC/CFD-AM-235-241-N.jpg","0","1","1","1","1","0","0.453068099915981","0.548831900116056","0.477732500061393","1","1","1","1","1","1","2","1","1"
"250045","img/neutralC/CFD-AM-235-241-N.jpg","img/neutralC/CFD-LM-252-076-N.jpg","img/neutralC/CFD-AM-215-120-N.jpg","1","0","1","0","1","1","0.477732500061393","0.453068099915981","0.46283070021309","1","1","1","1","1","1","1","2","1"
"250045","img/neutralC/CFD-AM-215-120-N.jpg","img/neutralC/CFD-AM-235-241-N.jpg","img/neutralC/CFD-WF-002-004-N.jpg","1","1","1","1","0","0","0.46283070021309","0.477732500061393","0.453132099937648","1","1","1","1","1","1","1","1","1"
"250045","img/neutralC/CFD-WF-002-004-N.jpg","img/neutralC/CFD-AM-215-120-N.jpg","img/neutralC/CFD-BF-003-003-N.jpg","1","1","0","0","1","0","0.453132099937648","0.46283070021309","0.398912299890071","1","1","1","1","1","1","1","1","1"
"250045","img/neutralC/CFD-BF-003-003-N.jpg","img/neutralC/CFD-WF-002-004-N.jpg","img/neutralC/CFD-WF-022-017-N.jpg","0","1","1","0","0","0","0.398912299890071","0.453132099937648","0.510018599918112","1","1","1","1","1","1","1","1","1"
"250045","img/neutralC/CFD-WF-022-017-N.jpg","img/neutralC/CFD-BF-003-003-N.jpg","img/neutralC/CFD-WM-002-009-N.jpg","1","0","1","0","0","0","0.510018599918112","0.398912299890071","0.473166899988428","1","1","1","1","1","1","1","1","1"
"250045","img/neutralC/CFD-WM-002-009-N.jpg","img/neutralC/CFD-WF-022-017-N.jpg","img/neutralC/CFD-WM-225-127-N.jpg","1","1","1","0","0","0","0.473166899988428","0.510018599918112","0.516096400097013","1","1","1","1","1","1","1","1","1"
"250045","img/neutralC/CFD-WM-225-127-N.jpg","img/neutralC/CFD-WM-002-009-N.jpg","img/neutralC/CFD-BM-029-024-N.jpg","1","1","1","0","0","1","0.516096400097013","0.473166899988428","0.458102399948984","1","1","1","1","1","1","1","1","1"
"250045","img/neutralC/CFD-BM-029-024-N.jpg","img/neutralC/CFD-WM-225-127-N.jpg","img/neutralC/CFD-BM-211-174-N.jpg","1","1","1","1","0","0","0.458102399948984","0.516096400097013","0.4634346999228","1","1","1","1","1","1","1","1","1"
"250045","img/neutralC/CFD-BM-211-174-N.jpg","img/neutralC/CFD-BM-029-024-N.jpg","img/neutralC/CFD-WM-040-022-N.jpg","1","1","1","0","1","0","0.4634346999228","0.458102399948984","0.470079499995336","1","1","1","1","1","1","1","1","1"
"250045","img/neutralC/CFD-WM-040-022-N.jpg","img/neutralC/CFD-BM-211-174-N.jpg","img/neutralC/CFD-BF-023-010-N.jpg","1","1","1","0","0","1","0.470079499995336","0.4634346999228","0.489427000051364","1","1","1","1","1","1","1","1","1"
"250045","img/neutralC/CFD-BF-023-010-N.jpg","img/neutralC/CFD-WM-040-022-N.jpg","img/neutralC/CFD-MM-319-052-N.jpg","1","1","1","1","0","1","0.489427000051364","0.470079499995336","0.596969700185582","1","1","1","1","1","1","1","1","1"
"250045","img/neutralC/CFD-MM-319-052-N.jpg","img/neutralC/CFD-BF-023-010-N.jpg","img/neutralC/CFD-IM-639-263-N.jpg","1","1","1","1","1","1","0.596969700185582","0.489427000051364","0.374989500036463","1","1","1","1","1","1","1","1","1"
"250045","img/neutralC/CFD-IM-639-263-N.jpg","img/neutralC/CFD-MM-319-052-N.jpg","img/neutralC/CFD-AM-217-085-N.jpg","1","1","1","1","1","0","0.374989500036463","0.596969700185582","0.427994400030002","1","1","1","1","1","1","1","1","1"
"250045","img/neutralC/CFD-AM-217-085-N.jpg","img/neutralC/CFD-IM-639-263-N.jpg","img/neutralC/CFD-IM-728-041-N.jpg","1","1","1","0","1","0","0.427994400030002","0.374989500036463","0.367617100011557","1","1","1","1","1","1","1","1","1"
"250045","img/neutralC/CFD-IM-728-041-N.jpg","img/neutralC/CFD-AM-217-085-N.jpg","img/neutralC/CFD-WM-257-161-N.jpg","1","1","1","0","0","1","0.367617100011557","0.427994400030002","0.340546599822119","1","1","1","1","1","1","1","1","1"
"250045","img/neutralC/CFD-WM-257-161-N.jpg","img/neutralC/CFD-IM-728-041-N.jpg","img/neutralC/CFD-WM-038-003-N.jpg","1","1","1","1","0","0","0.340546599822119","0.367617100011557","0.474412800045684","1","1","1","1","1","1","1","1","1"
"250045","img/neutralC/CFD-WM-038-003-N.jpg","img/neutralC/CFD-WM-257-161-N.jpg","img/neutralC/CFD-WF-026-002-N.jpg","1","1","1","0","1","1","0.474412800045684","0.340546599822119","0.395477500045672","1","1","1","1","1","1","1","1","1"
"250045","img/neutralC/CFD-WF-026-002-N.jpg","img/neutralC/CFD-WM-038-003-N.jpg","img/neutralC/CFD-BF-028-001-N.jpg","1","1","0","1","0","1","0.395477500045672","0.474412800045684","0.440108700189739","1","1","1","1","1","1","1","1","1"
"250045","img/neutralC/CFD-BF-028-001-N.jpg","img/neutralC/CFD-WF-026-002-N.jpg","img/neutralC/CFD-IF-672-305-N.jpg","0","1","1","1","1","0","0.440108700189739","0.395477500045672","0.512406399939209","1","1","1","1","1","1","1","1","1"
"250045","img/neutralC/CFD-IF-672-305-N.jpg","img/neutralC/CFD-BF-028-001-N.jpg","img/neutralC/CFD-BF-255-140-N.jpg","1","0","1","0","1","1","0.512406399939209","0.440108700189739","0.378450300078839","1","1","1","1","1","1","1","1","1"
"250045","img/neutralC/CFD-BF-255-140-N.jpg","img/neutralC/CFD-IF-672-305-N.jpg","img/neutralC/CFD-BM-027-001-N.jpg","1","1","1","1","0","0","0.378450300078839","0.512406399939209","0.450755400117487","1","1","1","1","1","1","1","1","1"
"250045","img/neutralC/CFD-BM-027-001-N.jpg","img/neutralC/CFD-BF-255-140-N.jpg","img/neutralC/CFD-IM-674-281-N.jpg","1","1","1","0","1","1","0.450755400117487","0.378450300078839","0.410305500030518","1","1","1","1","1","1","1","1","1"
"250045","img/neutralC/CFD-IM-674-281-N.jpg","img/neutralC/CFD-BM-027-001-N.jpg","img/neutralC/CFD-LF-236-221-N.jpg","1","1","1","1","0","1","0.410305500030518","0.450755400117487","0.385109199909493","1","1","1","1","1","1","1","1","1"
"250045","img/neutralC/CFD-LF-236-221-N.jpg","img/neutralC/CFD-IM-674-281-N.jpg","img/neutralC/CFD-BF-208-266-N.jpg","1","1","1","1","1","0","0.385109199909493","0.410305500030518","0.495574900181964","1","1","1","1","1","1","1","1","1"
"250045","img/neutralC/CFD-BF-208-266-N.jpg","img/neutralC/CFD-LF-236-221-N.jpg","img/neutralC/CFD-IF-718-001-N.jpg","1","1","1","0","1","1","0.495574900181964","0.385109199909493","0.460998199880123","1","1","1","1","1","1","1","1","1"
"250045","img/neutralC/CFD-IF-718-001-N.jpg","img/neutralC/CFD-BF-208-266-N.jpg",NA,"1","1",NA,"1","0",NA,"0.460998199880123","0.495574900181964",NA,"1","1",NA,"1","1",NA,"1","1",NA
"250045","img/neutralC/CFD-AM-236-090-N.jpg",NA,"img/neutralC/CFD-BF-051-035-N.jpg","1",NA,"0","1",NA,"0","0.634982199873775",NA,"0.440391500014812","1",NA,"1","1",NA,"1","1",NA,"1"
"250045","img/neutralC/CFD-BF-051-035-N.jpg","img/neutralC/CFD-AM-236-090-N.jpg","img/neutralC/CFD-LM-217-162-N.jpg","0","1","1","0","1","0","0.440391500014812","0.634982199873775","0.498648199951276","1","1","1","1","1","1","1","1","1"
"250045","img/neutralC/CFD-LM-217-162-N.jpg","img/neutralC/CFD-BF-051-035-N.jpg","img/neutralC/CFD-LF-226-174-N.jpg","1","0","1","0","0","0","0.498648199951276","0.440391500014812","0.46064590010792","1","1","1","1","1","1","1","1","1"
"250045","img/neutralC/CFD-LF-226-174-N.jpg","img/neutralC/CFD-LM-217-162-N.jpg","img/neutralC/CFD-MF-340-026-N.jpg","1","1","1","0","0","1","0.46064590010792","0.498648199951276","0.571366799995303","1","1","1","1","1","1","1","1","1"
"250045","img/neutralC/CFD-MF-340-026-N.jpg","img/neutralC/CFD-LF-226-174-N.jpg","img/neutralC/CFD-IF-619-197-N.jpg","1","1","0","1","0","0","0.571366799995303","0.46064590010792","0.487123600207269","1","1","1","1","1","1","1","1","1"
"250045","img/neutralC/CFD-IF-619-197-N.jpg","img/neutralC/CFD-MF-340-026-N.jpg","img/neutralC/CFD-WM-213-076-N.jpg","0","1","1","0","1","1","0.487123600207269","0.571366799995303","0.471860700054094","1","1","1","1","1","1","1","1","1"
"250045","img/neutralC/CFD-WM-213-076-N.jpg","img/neutralC/CFD-IF-619-197-N.jpg","img/neutralC/CFD-IM-685-004-N.jpg","1","0","1","1","0","1","0.471860700054094","0.487123600207269","0.453616100130603","1","1","1","1","1","1","1","1","1"
"250045","img/neutralC/CFD-IM-685-004-N.jpg","img/neutralC/CFD-WM-213-076-N.jpg","img/neutralC/CFD-WF-248-129-N.jpg","1","1","1","1","1","0","0.453616100130603","0.471860700054094","0.453059500083327","1","1","1","1","1","1","1","1","1"
"250045","img/neutralC/CFD-WF-248-129-N.jpg","img/neutralC/CFD-IM-685-004-N.jpg","img/neutralC/CFD-MF-300-002-N.jpg","1","1","0","0","1","0","0.453059500083327","0.453616100130603","0.444898100104183","1","1","1","1","1","1","1","1","1"
"250045","img/neutralC/CFD-MF-300-002-N.jpg","img/neutralC/CFD-WF-248-129-N.jpg","img/neutralC/CFD-MM-304-002-N.jpg","0","1","1","0","0","1","0.444898100104183","0.453059500083327","0.459325100062415","1","1","1","1","1","1","1","1","1"
"250045","img/neutralC/CFD-MM-304-002-N.jpg","img/neutralC/CFD-MF-300-002-N.jpg","img/neutralC/CFD-IM-637-007-N.jpg","1","0","1","1","0","0","0.459325100062415","0.444898100104183","0.532980100018904","1","1","1","1","1","1","1","1","1"
"250045","img/neutralC/CFD-IM-637-007-N.jpg","img/neutralC/CFD-MM-304-002-N.jpg","img/neutralC/CFD-AF-229-160-N.jpg","1","1","1","0","1","0","0.532980100018904","0.459325100062415","0.400839699897915","1","1","1","1","1","1","1","1","1"
"250045","img/neutralC/CFD-AF-229-160-N.jpg","img/neutralC/CFD-IM-637-007-N.jpg","img/neutralC/CFD-WF-217-085-N.jpg","1","1","1","0","0","1","0.400839699897915","0.532980100018904","0.448054000036791","1","1","1","1","1","1","1","1","1"
"250045","img/neutralC/CFD-WF-217-085-N.jpg","img/neutralC/CFD-AF-229-160-N.jpg","img/neutralC/CFD-BM-243-218-N.jpg","1","1","1","1","0","1","0.448054000036791","0.400839699897915","0.624743799911812","1","1","1","1","1","1","1","1","1"
"250045","img/neutralC/CFD-BM-243-218-N.jpg","img/neutralC/CFD-WF-217-085-N.jpg","img/neutralC/CFD-WF-012-002-N.jpg","1","1","1","1","1","1","0.624743799911812","0.448054000036791","0.383791200118139","1","1","1","1","1","1","1","1","1"
"250045","img/neutralC/CFD-WF-012-002-N.jpg","img/neutralC/CFD-BM-243-218-N.jpg","img/neutralC/CFD-BM-039-029-N.jpg","1","1","1","1","1","1","0.383791200118139","0.624743799911812","0.431568400003016","1","1","1","1","1","1","1","1","1"
"250045","img/neutralC/CFD-BM-039-029-N.jpg","img/neutralC/CFD-WF-012-002-N.jpg","img/neutralC/CFD-AF-215-70-N.jpg","1","1","1","1","1","0","0.431568400003016","0.383791200118139","0.444525099825114","1","1","1","1","1","1","1","1","1"
"250045","img/neutralC/CFD-AF-215-70-N.jpg","img/neutralC/CFD-BM-039-029-N.jpg","img/neutralC/CFD-WM-232-070-N.jpg","1","1","0","0","1","0","0.444525099825114","0.431568400003016","0.412370800040662","1","1","1","1","1","1","1","1","1"
"250045","img/neutralC/CFD-WM-232-070-N.jpg","img/neutralC/CFD-AF-215-70-N.jpg","img/neutralC/CFD-BF-043-003-N.jpg","0","1","1","0","0","0","0.412370800040662","0.444525099825114","0.532952000154182","1","1","1","1","1","1","1","1","1"
"250045","img/neutralC/CFD-BF-043-003-N.jpg","img/neutralC/CFD-WM-232-070-N.jpg","img/neutralC/CFD-MF-327-002-N.jpg","1","0","1","0","0","0","0.532952000154182","0.412370800040662","0.526798499980941","1","1","1","1","1","1","1","1","1"
"250045","img/neutralC/CFD-MF-327-002-N.jpg","img/neutralC/CFD-BF-043-003-N.jpg","img/neutralC/CFD-MF-329-001-N.jpg","1","1","1","0","0","0","0.526798499980941","0.532952000154182","0.504208199912682","1","1","1","1","1","1","1","1","1"
"250045","img/neutralC/CFD-MF-329-001-N.jpg","img/neutralC/CFD-MF-327-002-N.jpg","img/neutralC/CFD-IM-675-015-N.jpg","1","1","1","0","0","1","0.504208199912682","0.526798499980941","0.392081700032577","1","1","1","1","1","1","1","1","1"
"250045","img/neutralC/CFD-IM-675-015-N.jpg","img/neutralC/CFD-MF-329-001-N.jpg","img/neutralC/CFD-LF-201-035-N.jpg","1","1","0","1","0","1","0.392081700032577","0.504208199912682","0.467951899860054","1","1","1","1","1","1","1","1","1"
"250045","img/neutralC/CFD-LF-201-035-N.jpg","img/neutralC/CFD-IM-675-015-N.jpg","img/neutralC/CFD-IM-604-014-N.jpg","0","1","1","1","1","0","0.467951899860054","0.392081700032577","0.555650199996307","1","1","1","1","1","1","1","1","1"
"250045","img/neutralC/CFD-IM-604-014-N.jpg","img/neutralC/CFD-LF-201-035-N.jpg","img/neutralC/CFD-AF-254-167-N.jpg","1","0","1","0","1","1","0.555650199996307","0.467951899860054","0.442410199902952","1","1","1","1","1","1","1","1","1"
"250045","img/neutralC/CFD-AF-254-167-N.jpg","img/neutralC/CFD-IM-604-014-N.jpg","img/neutralC/CFD-IF-608-390-N.jpg","1","1","1","1","0","1","0.442410199902952","0.555650199996307","0.448334200074896","1","1","1","1","1","1","1","1","1"
"250045","img/neutralC/CFD-IF-608-390-N.jpg","img/neutralC/CFD-AF-254-167-N.jpg","img/neutralC/CFD-WF-212-050-N.jpg","1","1","1","1","1","0","0.448334200074896","0.442410199902952","0.611665500095114","1","1","1","1","1","1","1","1","1"
"250045","img/neutralC/CFD-WF-212-050-N.jpg","img/neutralC/CFD-IF-608-390-N.jpg","img/neutralC/CFD-WF-008-002-N.jpg","1","1","1","0","1","1","0.611665500095114","0.448334200074896","0.482118900166824","1","1","1","1","1","1","1","1","1"
"250045","img/neutralC/CFD-WF-008-002-N.jpg","img/neutralC/CFD-WF-212-050-N.jpg","img/neutralC/CFD-BF-224-002-N.jpg","1","1","1","1","0","1","0.482118900166824","0.611665500095114","0.423117599915713","1","1","1","1","1","1","1","1","1"
"250045","img/neutralC/CFD-BF-224-002-N.jpg","img/neutralC/CFD-WF-008-002-N.jpg","img/neutralC/CFD-WM-024-015-N.jpg","1","1","1","1","1","1","0.423117599915713","0.482118900166824","0.408266599988565","1","1","1","1","1","1","1","1","1"
"250045","img/neutralC/CFD-WM-024-015-N.jpg","img/neutralC/CFD-BF-224-002-N.jpg","img/neutralC/CFD-IM-709-103-N.jpg","1","1","1","1","1","0","0.408266599988565","0.423117599915713","0.530836999882013","1","1","1","1","1","1","1","1","1"
"250045","img/neutralC/CFD-IM-709-103-N.jpg","img/neutralC/CFD-WM-024-015-N.jpg",NA,"1","1",NA,"0","1",NA,"0.530836999882013","0.408266599988565",NA,"1","1",NA,"1","1",NA,"1","1",NA
"250045","img/neutralC/CFD-BM-213-134-N.jpg",NA,"img/neutralC/CFD-AF-239-171-N.jpg","0",NA,"1","1",NA,"1","0.564796700142324",NA,"0.493927800096571","1",NA,"1","1",NA,"1","1",NA,"1"
"250045","img/neutralC/CFD-AF-239-171-N.jpg","img/neutralC/CFD-BM-213-134-N.jpg","img/neutralC/CFD-WF-223-133-N.jpg","1","0","1","1","1","0","0.493927800096571","0.564796700142324","0.535292600048706","1","1","1","1","1","1","1","1","1"
"250045","img/neutralC/CFD-WF-223-133-N.jpg","img/neutralC/CFD-AF-239-171-N.jpg","img/neutralC/CFD-IF-625-225-N.jpg","1","1","1","0","1","0","0.535292600048706","0.493927800096571","0.523823699913919","1","1","1","1","1","1","1","1","1"
"250045","img/neutralC/CFD-IF-625-225-N.jpg","img/neutralC/CFD-WF-223-133-N.jpg","img/neutralC/CFD-IM-738-191-N.jpg","1","1","1","0","0","0","0.523823699913919","0.535292600048706","0.491942800115794","1","1","1","1","1","1","1","1","1"
"250045","img/neutralC/CFD-IM-738-191-N.jpg","img/neutralC/CFD-IF-625-225-N.jpg","img/neutralC/CFD-BF-045-003-N.jpg","1","1","1","0","0","0","0.491942800115794","0.523823699913919","0.531627499964088","1","1","1","1","1","1","1","1","1"
"250045","img/neutralC/CFD-BF-045-003-N.jpg","img/neutralC/CFD-IM-738-191-N.jpg","img/neutralC/CFD-BM-013-002-N.jpg","1","1","1","0","0","1","0.531627499964088","0.491942800115794","0.455614499980584","1","1","1","1","1","1","1","1","1"
"250045","img/neutralC/CFD-BM-013-002-N.jpg","img/neutralC/CFD-BF-045-003-N.jpg","img/neutralC/CFD-LF-210-220-N.jpg","1","1","1","1","0","1","0.455614499980584","0.531627499964088","0.446217900142074","1","1","1","1","1","1","1","1","1"
"250045","img/neutralC/CFD-LF-210-220-N.jpg","img/neutralC/CFD-BM-013-002-N.jpg","img/neutralC/CFD-LM-238-129-N.jpg","1","1","1","1","1","1","0.446217900142074","0.455614499980584","0.466381400125101","1","1","1","1","1","1","1","1","1"
"250045","img/neutralC/CFD-LM-238-129-N.jpg","img/neutralC/CFD-LF-210-220-N.jpg","img/neutralC/CFD-IF-744-114-N.jpg","1","1","1","1","1","0","0.466381400125101","0.446217900142074","0.459623199887574","1","1","1","1","1","1","1","1","1"
"250045","img/neutralC/CFD-IF-744-114-N.jpg","img/neutralC/CFD-LM-238-129-N.jpg","img/neutralC/CFD-BM-003-003-N.jpg","1","1","1","0","1","0","0.459623199887574","0.466381400125101","0.493289300007746","1","1","1","1","1","1","1","1","1"
"250045","img/neutralC/CFD-BM-003-003-N.jpg","img/neutralC/CFD-IF-744-114-N.jpg","img/neutralC/CFD-LF-241-188-N.jpg","1","1","1","0","0","0","0.493289300007746","0.459623199887574","0.464198499917984","1","1","1","1","1","1","1","1","1"
"250045","img/neutralC/CFD-LF-241-188-N.jpg","img/neutralC/CFD-BM-003-003-N.jpg","img/neutralC/CFD-IM-701-312-N.jpg","1","1","1","0","0","0","0.464198499917984","0.493289300007746","0.52075930009596","1","1","1","1","1","1","1","1","1"
"250045","img/neutralC/CFD-IM-701-312-N.jpg","img/neutralC/CFD-LF-241-188-N.jpg","img/neutralC/CFD-IF-673-389-N.jpg","1","1","1","0","0","0","0.52075930009596","0.464198499917984","0.591825400013477","1","1","1","1","1","1","1","1","1"
"250045","img/neutralC/CFD-IF-673-389-N.jpg","img/neutralC/CFD-IM-701-312-N.jpg","img/neutralC/CFD-MF-312-002-N.jpg","1","1","1","0","0","1","0.591825400013477","0.52075930009596","0.568695100024343","1","1","1","1","1","1","1","1","1"
"250045","img/neutralC/CFD-MF-312-002-N.jpg","img/neutralC/CFD-IF-673-389-N.jpg","img/neutralC/CFD-AF-210-050-N.jpg","1","1","1","1","0","1","0.568695100024343","0.591825400013477","0.543875900097191","1","1","1","1","1","1","1","1","1"
"250045","img/neutralC/CFD-AF-210-050-N.jpg","img/neutralC/CFD-MF-312-002-N.jpg","img/neutralC/CFD-MF-336-016-N.jpg","1","1","1","1","1","1","0.543875900097191","0.568695100024343","0.412593699991703","1","1","1","1","1","1","1","1","1"
"250045","img/neutralC/CFD-MF-336-016-N.jpg","img/neutralC/CFD-AF-210-050-N.jpg","img/neutralC/CFD-WM-202-107-N.jpg","1","1","1","1","1","1","0.412593699991703","0.543875900097191","0.389841899974272","1","1","1","1","1","1","1","1","1"
"250045","img/neutralC/CFD-WM-202-107-N.jpg","img/neutralC/CFD-MF-336-016-N.jpg","img/neutralC/CFD-IM-659-359-N.jpg","1","1","1","1","1","0","0.389841899974272","0.412593699991703","0.536675299983472","1","1","1","1","1","1","1","1","1"
"250045","img/neutralC/CFD-IM-659-359-N.jpg","img/neutralC/CFD-WM-202-107-N.jpg","img/neutralC/CFD-BM-010-003-N.jpg","1","1","1","0","1","0","0.536675299983472","0.389841899974272","0.519573300145566","1","1","1","1","1","1","1","1","1"
"250045","img/neutralC/CFD-BM-010-003-N.jpg","img/neutralC/CFD-IM-659-359-N.jpg","img/neutralC/CFD-LM-247-095-N.jpg","1","1","1","0","0","0","0.519573300145566","0.536675299983472","0.499581600073725","1","1","1","1","1","1","1","1","1"
"250045","img/neutralC/CFD-LM-247-095-N.jpg","img/neutralC/CFD-BM-010-003-N.jpg","img/neutralC/CFD-BF-004-014-N.jpg","1","1","1","0","0","1","0.499581600073725","0.519573300145566","0.420467799995095","1","1","1","1","1","1","1","1","1"
"250045","img/neutralC/CFD-BF-004-014-N.jpg","img/neutralC/CFD-LM-247-095-N.jpg","img/neutralC/CFD-WF-006-002-N.jpg","1","1","1","1","0","0","0.420467799995095","0.499581600073725","0.542180699994788","1","1","1","1","1","1","1","1","1"
"250045","img/neutralC/CFD-WF-006-002-N.jpg","img/neutralC/CFD-BF-004-014-N.jpg","img/neutralC/CFD-WF-033-002-N.jpg","1","1","0","0","1","1","0.542180699994788","0.420467799995095","0.548559300135821","1","1","1","1","1","1","1","1","1"
"250045","img/neutralC/CFD-WF-033-002-N.jpg","img/neutralC/CFD-WF-006-002-N.jpg","img/neutralC/CFD-AM-221-184-N.jpg","0","1","1","1","0","1","0.548559300135821","0.542180699994788","0.480988300172612","1","1","1","1","1","1","1","1","1"
"250045","img/neutralC/CFD-AM-221-184-N.jpg","img/neutralC/CFD-WF-033-002-N.jpg","img/neutralC/CFD-LF-208-127-N.jpg","1","0","1","1","1","0","0.480988300172612","0.548559300135821","0.487631200114265","1","1","1","1","1","1","1","1","1"
"250045","img/neutralC/CFD-LF-208-127-N.jpg","img/neutralC/CFD-AM-221-184-N.jpg","img/neutralC/CFD-WM-228-065-N.jpg","1","1","1","0","1","0","0.487631200114265","0.480988300172612","0.486015899805352","1","1","1","1","1","1","1","1","1"
"250045","img/neutralC/CFD-WM-228-065-N.jpg","img/neutralC/CFD-LF-208-127-N.jpg","img/neutralC/CFD-LF-225-164-N.jpg","1","1","1","0","0","1","0.486015899805352","0.487631200114265","0.431771199917421","1","1","1","1","1","1","1","1","1"
"250045","img/neutralC/CFD-LF-225-164-N.jpg","img/neutralC/CFD-WM-228-065-N.jpg","img/neutralC/CFD-WM-254-152-N.jpg","1","1","1","1","0","1","0.431771199917421","0.486015899805352","0.503074100008234","1","1","1","1","1","1","1","1","1"
"250045","img/neutralC/CFD-WM-254-152-N.jpg","img/neutralC/CFD-LF-225-164-N.jpg","img/neutralC/CFD-AF-227-207-N.jpg","1","1","1","1","1","1","0.503074100008234","0.431771199917421","0.628220699960366","1","1","1","1","1","1","1","1","1"
"250045","img/neutralC/CFD-AF-227-207-N.jpg","img/neutralC/CFD-WM-254-152-N.jpg","img/neutralC/CFD-BM-028-002-N.jpg","1","1","1","1","1","1","0.628220699960366","0.503074100008234","0.720571900019422","1","1","1","1","1","1","1","1","1"
"250045","img/neutralC/CFD-BM-028-002-N.jpg","img/neutralC/CFD-AF-227-207-N.jpg","img/neutralC/CFD-BF-222-240-N.jpg","1","1","1","1","1","0","0.720571900019422","0.628220699960366","0.450446299975738","1","1","1","1","1","1","1","1","1"
"250045","img/neutralC/CFD-BF-222-240-N.jpg","img/neutralC/CFD-BM-028-002-N.jpg",NA,"1","1",NA,"0","1",NA,"0.450446299975738","0.720571900019422",NA,"1","1",NA,"1","1",NA,"1","1",NA
"250045","img/neutralC/CFD-WF-213-031-N.jpg",NA,"img/neutralC/CFD-WM-041-021-N.jpg","1",NA,"1","1",NA,"0","0.626313399989158",NA,"0.469954499974847","1",NA,"1","1",NA,"1","1",NA,"1"
"250045","img/neutralC/CFD-WM-041-021-N.jpg","img/neutralC/CFD-WF-213-031-N.jpg","img/neutralC/CFD-BF-205-141-N.jpg","1","1","1","0","1","0","0.469954499974847","0.626313399989158","0.516718500060961","1","1","1","1","1","1","1","1","1"
"250045","img/neutralC/CFD-BF-205-141-N.jpg","img/neutralC/CFD-WM-041-021-N.jpg","img/neutralC/CFD-IF-634-382-N.jpg","1","1","1","0","0","1","0.516718500060961","0.469954499974847","0.414552900008857","1","1","1","1","1","1","1","1","1"
"250045","img/neutralC/CFD-IF-634-382-N.jpg","img/neutralC/CFD-BF-205-141-N.jpg","img/neutralC/CFD-IF-710-016-N.jpg","1","1","0","1","0","0","0.414552900008857","0.516718500060961","0.432049999944866","1","1","1","1","1","1","1","1","1"
"250045","img/neutralC/CFD-IF-710-016-N.jpg","img/neutralC/CFD-IF-634-382-N.jpg","img/neutralC/CFD-BM-033-003-N.jpg","0","1","1","0","1","0","0.432049999944866","0.414552900008857","0.449525400064886","1","1","1","1","1","1","1","1","1"
"250045","img/neutralC/CFD-BM-033-003-N.jpg","img/neutralC/CFD-IF-710-016-N.jpg","img/neutralC/CFD-LF-205-100-N.jpg","1","0","1","0","0","1","0.449525400064886","0.432049999944866","0.402330700075254","1","1","1","1","1","1","1","1","1"
"250045","img/neutralC/CFD-LF-205-100-N.jpg","img/neutralC/CFD-BM-033-003-N.jpg","img/neutralC/CFD-MM-316-156-N.jpg","1","1","1","1","0","1","0.402330700075254","0.449525400064886","0.385057699866593","1","1","1","1","1","1","1","1","1"
"250045","img/neutralC/CFD-MM-316-156-N.jpg","img/neutralC/CFD-LF-205-100-N.jpg","img/neutralC/CFD-IM-651-308-N.jpg","1","1","1","1","1","0","0.385057699866593","0.402330700075254","0.439105299999937","1","1","1","1","1","1","1","1","1"
"250045","img/neutralC/CFD-IM-651-308-N.jpg","img/neutralC/CFD-MM-316-156-N.jpg","img/neutralC/CFD-BF-039-031-N.jpg","1","1","1","0","1","1","0.439105299999937","0.385057699866593","0.467450600117445","1","1","1","1","1","1","1","1","1"
"250045","img/neutralC/CFD-BF-039-031-N.jpg","img/neutralC/CFD-IM-651-308-N.jpg","img/neutralC/CFD-WF-224-099-N.jpg","1","1","0","1","0","0","0.467450600117445","0.439105299999937","0.391322999959812","1","1","1","1","1","1","1","1","1"
"250045","img/neutralC/CFD-WF-224-099-N.jpg","img/neutralC/CFD-BF-039-031-N.jpg","img/neutralC/CFD-LF-224-176-N.jpg","0","1","1","0","1","0","0.391322999959812","0.467450600117445","0.520964799914509","1","1","1","1","1","1","1","1","1"
"250045","img/neutralC/CFD-LF-224-176-N.jpg","img/neutralC/CFD-WF-224-099-N.jpg","img/neutralC/CFD-BF-029-031-N.jpg","1","0","1","0","0","1","0.520964799914509","0.391322999959812","0.4664092999883","1","1","1","1","1","1","1","1","1"
"250045","img/neutralC/CFD-BF-029-031-N.jpg","img/neutralC/CFD-LF-224-176-N.jpg","img/neutralC/CFD-IM-684-008-N.jpg","1","1","1","1","0","1","0.4664092999883","0.520964799914509","0.408060400048271","1","1","1","1","1","1","1","1","1"
"250045","img/neutralC/CFD-IM-684-008-N.jpg","img/neutralC/CFD-BF-029-031-N.jpg","img/neutralC/CFD-IF-693-172-N.jpg","1","1","0","1","1","0","0.408060400048271","0.4664092999883","0.476255099987611","1","1","1","1","1","1","1","1","1"
"250045","img/neutralC/CFD-IF-693-172-N.jpg","img/neutralC/CFD-IM-684-008-N.jpg","img/neutralC/CFD-BF-213-188-N.jpg","0","1","1","0","1","1","0.476255099987611","0.408060400048271","0.415919099934399","1","1","1","1","1","1","1","1","1"
"250045","img/neutralC/CFD-BF-213-188-N.jpg","img/neutralC/CFD-IF-693-172-N.jpg","img/neutralC/CFD-AF-231-357-N.jpg","1","0","1","1","0","1","0.415919099934399","0.476255099987611","0.448261699872091","1","1","1","1","1","1","1","1","1"
"250045","img/neutralC/CFD-AF-231-357-N.jpg","img/neutralC/CFD-BF-213-188-N.jpg","img/neutralC/CFD-LF-203-066-N.jpg","1","1","1","1","1","0","0.448261699872091","0.415919099934399","0.439513100078329","1","1","1","1","1","1","1","1","1"
"250045","img/neutralC/CFD-LF-203-066-N.jpg","img/neutralC/CFD-AF-231-357-N.jpg","img/neutralC/CFD-WM-011-002-N.jpg","1","1","1","0","1","0","0.439513100078329","0.448261699872091","0.436578900087625","1","1","1","1","1","1","1","1","1"
"250045","img/neutralC/CFD-WM-011-002-N.jpg","img/neutralC/CFD-LF-203-066-N.jpg","img/neutralC/CFD-BM-019-002-N.jpg","1","1","1","0","0","0","0.436578900087625","0.439513100078329","0.540118400007486","1","1","1","1","1","1","1","1","1"
"250045","img/neutralC/CFD-BM-019-002-N.jpg","img/neutralC/CFD-WM-011-002-N.jpg","img/neutralC/CFD-LF-230-203-N.jpg","1","1","1","0","0","0","0.540118400007486","0.436578900087625","0.707730300026014","1","1","1","1","1","1","1","1","1"
"250045","img/neutralC/CFD-LF-230-203-N.jpg","img/neutralC/CFD-BM-019-002-N.jpg","img/neutralC/CFD-AM-201-076-N.jpg","1","1","1","0","0","1","0.707730300026014","0.540118400007486","0.566462900023907","1","1","1","1","1","1","1","1","1"
"250045","img/neutralC/CFD-AM-201-076-N.jpg","img/neutralC/CFD-LF-230-203-N.jpg","img/neutralC/CFD-LM-215-247-N.jpg","1","1","1","1","0","0","0.566462900023907","0.707730300026014","0.47667789994739","1","1","1","1","1","1","1","1","1"
"250045","img/neutralC/CFD-LM-215-247-N.jpg","img/neutralC/CFD-AM-201-076-N.jpg","img/neutralC/CFD-BF-253-202-N.jpg","1","1","1","0","1","0","0.47667789994739","0.566462900023907","0.458470599958673","1","1","1","1","1","1","1","1","1"
"250045","img/neutralC/CFD-BF-253-202-N.jpg","img/neutralC/CFD-LM-215-247-N.jpg","img/neutralC/CFD-MF-337-026-N.jpg","1","1","1","0","0","1","0.458470599958673","0.47667789994739","0.382907999912277","1","1","1","1","1","1","1","1","1"
"250045","img/neutralC/CFD-MF-337-026-N.jpg","img/neutralC/CFD-BF-253-202-N.jpg","img/neutralC/CFD-BM-239-136-N.jpg","1","1","0","1","0","1","0.382907999912277","0.458470599958673","0.540367499925196","1","1","1","1","1","1","1","1","1"
"250045","img/neutralC/CFD-BM-239-136-N.jpg","img/neutralC/CFD-MF-337-026-N.jpg","img/neutralC/CFD-AM-212-050-N.jpg","0","1","1","1","1","1","0.540367499925196","0.382907999912277","0.349973300006241","1","1","1","1","1","1","1","1","1"
"250045","img/neutralC/CFD-AM-212-050-N.jpg","img/neutralC/CFD-BM-239-136-N.jpg","img/neutralC/CFD-LF-214-090-N.jpg","1","0","0","1","1","0","0.349973300006241","0.540367499925196","0.417503400007263","1","1","1","1","1","1","1","1","2"
"250045","img/neutralC/CFD-LF-214-090-N.jpg","img/neutralC/CFD-AM-212-050-N.jpg","img/neutralC/CFD-WM-021-001-N.jpg","0","1","1","0","1","1","0.417503400007263","0.349973300006241","0.449999900069088","1","1","1","1","1","1","2","1","1"
"250045","img/neutralC/CFD-WM-021-001-N.jpg","img/neutralC/CFD-LF-214-090-N.jpg","img/neutralC/CFD-BM-041-035-N.jpg","1","0","1","1","0","0","0.449999900069088","0.417503400007263","0.525780699914321","1","1","1","1","1","1","1","2","1"
"250045","img/neutralC/CFD-BM-041-035-N.jpg","img/neutralC/CFD-WM-021-001-N.jpg","img/neutralC/CFD-LM-218-183-N.jpg","1","1","1","0","1","1","0.525780699914321","0.449999900069088","0.384664400015026","1","1","1","1","1","1","1","1","1"
"250045","img/neutralC/CFD-LM-218-183-N.jpg","img/neutralC/CFD-BM-041-035-N.jpg","img/neutralC/CFD-WF-250-167-N.jpg","1","1","1","1","0","1","0.384664400015026","0.525780699914321","0.450525099877268","1","1","1","1","1","1","1","1","1"
"250045","img/neutralC/CFD-WF-250-167-N.jpg","img/neutralC/CFD-LM-218-183-N.jpg",NA,"1","1",NA,"1","1",NA,"0.450525099877268","0.384664400015026",NA,"1","1",NA,"1","1",NA,"1","1",NA
"250045","img/neutralC/CFD-BF-244-231-N.jpg",NA,"img/neutralC/CFD-WM-025-002-N.jpg","1",NA,"1","1",NA,"0","0.678820099914446",NA,"0.452096299966797","1",NA,"1","1",NA,"1","1",NA,"1"
"250045","img/neutralC/CFD-WM-025-002-N.jpg","img/neutralC/CFD-BF-244-231-N.jpg","img/neutralC/CFD-LF-212-066-N.jpg","1","1","1","0","1","1","0.452096299966797","0.678820099914446","0.406229199841619","1","1","1","1","1","1","1","1","1"
"250045","img/neutralC/CFD-LF-212-066-N.jpg","img/neutralC/CFD-WM-025-002-N.jpg","img/neutralC/CFD-IM-689-263-N.jpg","1","1","1","1","0","1","0.406229199841619","0.452096299966797","0.373837900115177","1","1","1","1","1","1","1","1","1"
"250045","img/neutralC/CFD-IM-689-263-N.jpg","img/neutralC/CFD-LF-212-066-N.jpg","img/neutralC/CFD-AM-243-212-N.jpg","1","1","1","1","1","1","0.373837900115177","0.406229199841619","0.437876699957997","1","1","1","1","1","1","1","1","1"
"250045","img/neutralC/CFD-AM-243-212-N.jpg","img/neutralC/CFD-IM-689-263-N.jpg","img/neutralC/CFD-WF-243-148-N.jpg","1","1","0","1","1","0","0.437876699957997","0.373837900115177","0.410759299993515","1","1","1","1","1","1","1","1","1"
"250045","img/neutralC/CFD-WF-243-148-N.jpg","img/neutralC/CFD-AM-243-212-N.jpg","img/neutralC/CFD-WF-207-014-N.jpg","0","1","1","0","1","1","0.410759299993515","0.437876699957997","0.363396900007501","1","1","1","1","1","1","1","1","1"
"250045","img/neutralC/CFD-WF-207-014-N.jpg","img/neutralC/CFD-WF-243-148-N.jpg","img/neutralC/CFD-IF-676-017-N.jpg","1","0","1","1","0","1","0.363396900007501","0.410759299993515","0.440046000061557","1","1","1","1","1","1","1","1","1"
"250045","img/neutralC/CFD-IF-676-017-N.jpg","img/neutralC/CFD-WF-207-014-N.jpg","img/neutralC/CFD-WM-028-003-N.jpg","1","1","1","1","1","1","0.440046000061557","0.363396900007501","0.40906469989568","1","1","1","1","1","1","1","1","1"
"250045","img/neutralC/CFD-WM-028-003-N.jpg","img/neutralC/CFD-IF-676-017-N.jpg","img/neutralC/CFD-AM-219-101-N.jpg","1","1","1","1","1","0","0.40906469989568","0.440046000061557","0.449785399949178","1","1","1","1","1","1","1","1","1"
"250045","img/neutralC/CFD-AM-219-101-N.jpg","img/neutralC/CFD-WM-028-003-N.jpg","img/neutralC/CFD-WF-241-210-N.jpg","1","1","0","0","1","0","0.449785399949178","0.40906469989568","0.4068998999428","1","1","1","1","1","1","1","1","1"
"250045","img/neutralC/CFD-WF-241-210-N.jpg","img/neutralC/CFD-AM-219-101-N.jpg","img/neutralC/CFD-IM-615-167-N.jpg","0","1","1","0","0","0","0.4068998999428","0.449785399949178","0.463146399939433","1","1","1","1","1","1","1","1","1"
"250045","img/neutralC/CFD-IM-615-167-N.jpg","img/neutralC/CFD-WF-241-210-N.jpg","img/neutralC/CFD-LM-240-013-N.jpg","1","0","1","0","0","1","0.463146399939433","0.4068998999428","0.396807200042531","1","1","1","1","1","1","1","1","1"
"250045","img/neutralC/CFD-LM-240-013-N.jpg","img/neutralC/CFD-IM-615-167-N.jpg","img/neutralC/CFD-BM-227-191-N.jpg","1","1","1","1","0","1","0.396807200042531","0.463146399939433","0.381904900074005","1","1","1","1","1","1","1","1","1"
"250045","img/neutralC/CFD-BM-227-191-N.jpg","img/neutralC/CFD-LM-240-013-N.jpg","img/neutralC/CFD-WF-009-001-N.jpg","1","1","1","1","1","1","0.381904900074005","0.396807200042531","0.375727399950847","1","1","1","1","1","1","1","1","1"
"250045","img/neutralC/CFD-WF-009-001-N.jpg","img/neutralC/CFD-BM-227-191-N.jpg","img/neutralC/CFD-AF-237-223-N.jpg","1","1","0","1","1","0","0.375727399950847","0.381904900074005","0.449221499962732","1","1","1","1","1","1","1","1","1"
"250045","img/neutralC/CFD-AF-237-223-N.jpg","img/neutralC/CFD-WF-009-001-N.jpg","img/neutralC/CFD-MF-328-020-N.jpg","0","1","1","0","1","0","0.449221499962732","0.375727399950847","0.541284200036898","1","1","1","1","1","1","1","1","1"
"250045","img/neutralC/CFD-MF-328-020-N.jpg","img/neutralC/CFD-AF-237-223-N.jpg","img/neutralC/CFD-BM-020-001-N.jpg","1","0","0","0","0","0","0.541284200036898","0.449221499962732","0.49199129990302","1","1","1","1","1","1","1","1","1"
"250045","img/neutralC/CFD-BM-020-001-N.jpg","img/neutralC/CFD-MF-328-020-N.jpg","img/neutralC/CFD-WM-023-001-N.jpg","0","1","1","0","0","0","0.49199129990302","0.541284200036898","0.530071000102907","1","1","1","1","1","1","1","1","1"
"250045","img/neutralC/CFD-WM-023-001-N.jpg","img/neutralC/CFD-BM-020-001-N.jpg","img/neutralC/CFD-BM-009-002-N.jpg","1","0","1","0","0","1","0.530071000102907","0.49199129990302","0.435030499938875","1","1","1","1","1","1","1","1","1"
"250045","img/neutralC/CFD-BM-009-002-N.jpg","img/neutralC/CFD-WM-023-001-N.jpg","img/neutralC/CFD-IM-697-015-N.jpg","1","1","1","1","0","1","0.435030499938875","0.530071000102907","0.438723400002345","1","1","1","1","1","1","1","1","1"
"250045","img/neutralC/CFD-IM-697-015-N.jpg","img/neutralC/CFD-BM-009-002-N.jpg","img/neutralC/CFD-AM-249-163-N.jpg","1","1","1","1","1","1","0.438723400002345","0.435030499938875","0.436373699922115","1","1","1","1","1","1","1","1","1"
"250045","img/neutralC/CFD-AM-249-163-N.jpg","img/neutralC/CFD-IM-697-015-N.jpg","img/neutralC/CFD-LF-222-147-N.jpg","1","1","0","1","1","0","0.436373699922115","0.438723400002345","0.536232199985534","1","1","1","1","1","1","1","1","1"
"250045","img/neutralC/CFD-LF-222-147-N.jpg","img/neutralC/CFD-AM-249-163-N.jpg","img/neutralC/CFD-BM-030-003-N.jpg","0","1","1","0","1","0","0.536232199985534","0.436373699922115","0.553861899999902","1","1","1","1","1","1","1","1","1"
"250045","img/neutralC/CFD-BM-030-003-N.jpg","img/neutralC/CFD-LF-222-147-N.jpg","img/neutralC/CFD-AM-205-153-N.jpg","1","0","1","0","0","1","0.553861899999902","0.536232199985534","0.575629399856552","1","1","1","1","1","1","1","1","1"
"250045","img/neutralC/CFD-AM-205-153-N.jpg","img/neutralC/CFD-BM-030-003-N.jpg","img/neutralC/CFD-LF-238-154-N.jpg","1","1","1","1","0","1","0.575629399856552","0.553861899999902","0.384013700066134","1","1","1","1","1","1","1","1","1"
"250045","img/neutralC/CFD-LF-238-154-N.jpg","img/neutralC/CFD-AM-205-153-N.jpg","img/neutralC/CFD-IM-606-008-N.jpg","1","1","1","1","1","0","0.384013700066134","0.575629399856552","0.525526199955493","1","1","1","1","1","1","1","1","1"
"250045","img/neutralC/CFD-IM-606-008-N.jpg","img/neutralC/CFD-LF-238-154-N.jpg","img/neutralC/CFD-MM-306-010-N.jpg","1","1","1","0","1","0","0.525526199955493","0.384013700066134","0.472095199860632","1","1","1","1","1","1","1","1","1"
"250045","img/neutralC/CFD-MM-306-010-N.jpg","img/neutralC/CFD-IM-606-008-N.jpg","img/neutralC/CFD-BM-043-071-N.jpg","1","1","0","0","0","0","0.472095199860632","0.525526199955493","0.476024699863046","1","1","1","1","1","1","1","1","1"
"250045","img/neutralC/CFD-BM-043-071-N.jpg","img/neutralC/CFD-MM-306-010-N.jpg","img/neutralC/CFD-WF-221-005-N.jpg","0","1","0","0","0","0","0.476024699863046","0.472095199860632","0.467642400180921","1","1","1","1","1","1","1","1","1"
"250045","img/neutralC/CFD-WF-221-005-N.jpg","img/neutralC/CFD-BM-043-071-N.jpg","img/neutralC/CFD-BF-012-001-N.jpg","0","0","1","0","0","0","0.467642400180921","0.476024699863046","0.551736100111157","1","1","1","1","1","1","1","1","1"
"250045","img/neutralC/CFD-BF-012-001-N.jpg","img/neutralC/CFD-WF-221-005-N.jpg","img/neutralC/CFD-BM-021-021-N.jpg","1","0","1","0","0","1","0.551736100111157","0.467642400180921","0.521201000083238","1","1","1","1","1","1","1","1","1"
"250045","img/neutralC/CFD-BM-021-021-N.jpg","img/neutralC/CFD-BF-012-001-N.jpg",NA,"1","1",NA,"1","0",NA,"0.521201000083238","0.551736100111157",NA,"1","1",NA,"1","1",NA,"1","1",NA
"250045","img/neutralC/CFD-WM-255-219-N.jpg",NA,"img/neutralC/CFD-IM-719-221-N.jpg","1",NA,"1","0",NA,"0","0.598722300026566",NA,"0.634737699991092","1",NA,"1","1",NA,"1","1",NA,"1"
"250045","img/neutralC/CFD-IM-719-221-N.jpg","img/neutralC/CFD-WM-255-219-N.jpg","img/neutralC/CFD-BF-218-207-N.jpg","1","1","1","0","0","1","0.634737699991092","0.598722300026566","0.363402599934488","1","1","1","1","1","1","1","1","1"
"250045","img/neutralC/CFD-BF-218-207-N.jpg","img/neutralC/CFD-IM-719-221-N.jpg","img/neutralC/CFD-AF-221-147-N.jpg","1","1","1","1","0","0","0.363402599934488","0.634737699991092","0.43365229992196","1","1","1","1","1","1","1","1","1"
"250045","img/neutralC/CFD-AF-221-147-N.jpg","img/neutralC/CFD-BF-218-207-N.jpg","img/neutralC/CFD-BM-200-046-N.jpg","1","1","1","0","1","0","0.43365229992196","0.363402599934488","0.450385400094092","1","1","1","1","1","1","1","1","1"
"250045","img/neutralC/CFD-BM-200-046-N.jpg","img/neutralC/CFD-AF-221-147-N.jpg","img/neutralC/CFD-WM-009-002-N.jpg","1","1","1","0","0","0","0.450385400094092","0.43365229992196","0.45630249986425","1","1","1","1","1","1","1","1","1"
"250045","img/neutralC/CFD-WM-009-002-N.jpg","img/neutralC/CFD-BM-200-046-N.jpg","img/neutralC/CFD-IM-700-009-N.jpg","1","1","1","0","0","1","0.45630249986425","0.450385400094092","0.375848500058055","1","1","1","1","1","1","1","1","1"
"250045","img/neutralC/CFD-IM-700-009-N.jpg","img/neutralC/CFD-WM-009-002-N.jpg","img/neutralC/CFD-WM-013-001-N.jpg","1","1","1","1","0","1","0.375848500058055","0.45630249986425","0.416144300019368","1","1","1","1","1","1","1","1","1"
"250045","img/neutralC/CFD-WM-013-001-N.jpg","img/neutralC/CFD-IM-700-009-N.jpg","img/neutralC/CFD-WF-023-003-N.jpg","1","1","1","1","1","1","0.416144300019368","0.375848500058055","0.393736399943009","1","1","1","1","1","1","1","1","1"
"250045","img/neutralC/CFD-WF-023-003-N.jpg","img/neutralC/CFD-WM-013-001-N.jpg","img/neutralC/CFD-LF-211-003-N.jpg","1","1","0","1","1","0","0.393736399943009","0.416144300019368","0.569300000090152","1","1","1","1","1","1","1","1","1"
"250045","img/neutralC/CFD-LF-211-003-N.jpg","img/neutralC/CFD-WF-023-003-N.jpg","img/neutralC/CFD-MF-321-003-N.jpg","0","1","1","0","1","0","0.569300000090152","0.393736399943009","0.465752499876544","1","1","1","1","1","1","1","1","1"
"250045","img/neutralC/CFD-MF-321-003-N.jpg","img/neutralC/CFD-LF-211-003-N.jpg","img/neutralC/CFD-MM-321-021-N.jpg","1","0","0","0","0","0","0.465752499876544","0.569300000090152","0.450005799997598","1","1","1","1","1","1","1","1","1"
"250045","img/neutralC/CFD-MM-321-021-N.jpg","img/neutralC/CFD-MF-321-003-N.jpg","img/neutralC/CFD-MF-342-022-N.jpg","0","1","1","0","0","1","0.450005799997598","0.465752499876544","0.377810799982399","1","1","1","1","1","1","1","1","1"
"250045","img/neutralC/CFD-MF-342-022-N.jpg","img/neutralC/CFD-MM-321-021-N.jpg","img/neutralC/CFD-BF-018-039-N.jpg","1","0","1","1","0","1","0.377810799982399","0.450005799997598","0.43566759978421","1","1","1","1","1","1","1","1","1"
"250045","img/neutralC/CFD-BF-018-039-N.jpg","img/neutralC/CFD-MF-342-022-N.jpg","img/neutralC/CFD-WF-018-017-N.jpg","1","1","1","1","1","1","0.43566759978421","0.377810799982399","0.429577899863943","1","1","1","1","1","1","1","1","1"
"250045","img/neutralC/CFD-WF-018-017-N.jpg","img/neutralC/CFD-BF-018-039-N.jpg","img/neutralC/CFD-IM-627-178-N.jpg","1","1","1","1","1","1","0.429577899863943","0.43566759978421","0.446346400072798","1","1","1","1","1","1","1","1","1"
"250045","img/neutralC/CFD-IM-627-178-N.jpg","img/neutralC/CFD-WF-018-017-N.jpg","img/neutralC/CFD-AM-244-222-N.jpg","1","1","1","1","1","0","0.446346400072798","0.429577899863943","0.619769799988717","1","1","1","1","1","1","1","1","1"
"250045","img/neutralC/CFD-AM-244-222-N.jpg","img/neutralC/CFD-IM-627-178-N.jpg","img/neutralC/CFD-AF-232-078-N.jpg","1","1","1","0","1","1","0.619769799988717","0.446346400072798","0.419705299893394","1","1","1","1","1","1","1","1","1"
"250045","img/neutralC/CFD-AF-232-078-N.jpg","img/neutralC/CFD-AM-244-222-N.jpg","img/neutralC/CFD-WF-226-095-N.jpg","1","1","1","1","0","1","0.419705299893394","0.619769799988717","0.398860300192609","1","1","1","1","1","1","1","1","1"
"250045","img/neutralC/CFD-WF-226-095-N.jpg","img/neutralC/CFD-AF-232-078-N.jpg","img/neutralC/CFD-MF-318-022-N.jpg","1","1","1","1","1","1","0.398860300192609","0.419705299893394","0.378018599934876","1","1","1","1","1","1","1","1","1"
"250045","img/neutralC/CFD-MF-318-022-N.jpg","img/neutralC/CFD-WF-226-095-N.jpg","img/neutralC/CFD-WM-201-063-N.jpg","1","1","1","1","1","1","0.378018599934876","0.398860300192609","0.355338599998504","1","1","1","1","1","1","1","1","1"
"250045","img/neutralC/CFD-WM-201-063-N.jpg","img/neutralC/CFD-MF-318-022-N.jpg","img/neutralC/CFD-BM-023-029-N.jpg","1","1","1","1","1","1","0.355338599998504","0.378018599934876","0.472651199903339","1","1","1","1","1","1","1","1","1"
"250045","img/neutralC/CFD-BM-023-029-N.jpg","img/neutralC/CFD-WM-201-063-N.jpg","img/neutralC/CFD-WM-221-091-N.jpg","1","1","0","1","1","0","0.472651199903339","0.355338599998504","0.454989899881184","1","1","1","1","1","1","1","1","1"
"250045","img/neutralC/CFD-WM-221-091-N.jpg","img/neutralC/CFD-BM-023-029-N.jpg","img/neutralC/CFD-BF-254-201-N.jpg","0","1","1","0","1","0","0.454989899881184","0.472651199903339","0.499889499973506","1","1","1","1","1","1","1","1","1"
"250045","img/neutralC/CFD-BF-254-201-N.jpg","img/neutralC/CFD-WM-221-091-N.jpg","img/neutralC/CFD-WF-238-023-N.jpg","1","0","0","0","0","0","0.499889499973506","0.454989899881184","0.438137100078166","1","1","1","1","1","1","1","1","1"
"250045","img/neutralC/CFD-WF-238-023-N.jpg","img/neutralC/CFD-BF-254-201-N.jpg","img/neutralC/CFD-LM-253-075-N.jpg","0","1","1","0","0","0","0.438137100078166","0.499889499973506","0.481457700021565","1","1","1","1","1","1","1","1","1"
"250045","img/neutralC/CFD-LM-253-075-N.jpg","img/neutralC/CFD-WF-238-023-N.jpg","img/neutralC/CFD-BM-204-003-N.jpg","1","0","1","0","0","0","0.481457700021565","0.438137100078166","0.550833200104535","1","1","1","1","1","1","1","1","1"
"250045","img/neutralC/CFD-BM-204-003-N.jpg","img/neutralC/CFD-LM-253-075-N.jpg","img/neutralC/CFD-WM-237-052-N.jpg","1","1","1","0","0","1","0.550833200104535","0.481457700021565","0.381037199869752","1","1","1","1","1","1","1","1","1"
"250045","img/neutralC/CFD-WM-237-052-N.jpg","img/neutralC/CFD-BM-204-003-N.jpg","img/neutralC/CFD-WF-245-084-N.jpg","1","1","0","1","0","1","0.381037199869752","0.550833200104535","0.537357100052759","1","1","1","1","1","1","1","1","1"
"250045","img/neutralC/CFD-WF-245-084-N.jpg","img/neutralC/CFD-WM-237-052-N.jpg","img/neutralC/CFD-IF-629-234-N.jpg","0","1","0","1","1","0","0.537357100052759","0.381037199869752","0.485080499900505","1","1","1","1","1","1","1","1","1"
"250045","img/neutralC/CFD-IF-629-234-N.jpg","img/neutralC/CFD-WF-245-084-N.jpg","img/neutralC/CFD-WF-027-003-N.jpg","0","0","1","0","1","1","0.485080499900505","0.537357100052759","0.474422399885952","1","1","1","1","1","1","1","1","1"
"250045","img/neutralC/CFD-WF-027-003-N.jpg","img/neutralC/CFD-IF-629-234-N.jpg","img/neutralC/CFD-LF-215-157-N.jpg","1","0","0","1","0","0","0.474422399885952","0.485080499900505","0.352419800125062","1","1","1","1","1","1","1","1","1"
"250045","img/neutralC/CFD-LF-215-157-N.jpg","img/neutralC/CFD-WF-027-003-N.jpg",NA,"0","1",NA,"0","1",NA,"0.352419800125062","0.474422399885952",NA,"1","1",NA,"1","1",NA,"1","1",NA
"250045","img/neutralC/CFD-MF-309-002-N.jpg",NA,"img/neutralC/CFD-BF-025-002-N.jpg","1",NA,"1","0",NA,"0","0.787015999900177",NA,"0.420722999842838","1",NA,"1","1",NA,"1","1",NA,"1"
"250045","img/neutralC/CFD-BF-025-002-N.jpg","img/neutralC/CFD-MF-309-002-N.jpg","img/neutralC/CFD-BF-212-315-N.jpg","1","1","1","0","0","1","0.420722999842838","0.787015999900177","0.39460020000115","1","1","1","1","1","1","1","1","1"
"250045","img/neutralC/CFD-BF-212-315-N.jpg","img/neutralC/CFD-BF-025-002-N.jpg","img/neutralC/CFD-BF-041-001-N.jpg","1","1","1","1","0","1","0.39460020000115","0.420722999842838","0.345010000048205","1","1","1","1","1","1","1","1","1"
"250045","img/neutralC/CFD-BF-041-001-N.jpg","img/neutralC/CFD-BF-212-315-N.jpg","img/neutralC/CFD-WM-006-002-N.jpg","1","1","0","1","1","0","0.345010000048205","0.39460020000115","0.420263099949807","1","1","1","1","1","1","1","1","1"
"250045","img/neutralC/CFD-WM-006-002-N.jpg","img/neutralC/CFD-BF-041-001-N.jpg","img/neutralC/CFD-IM-646-023-N.jpg","0","1","1","0","1","1","0.420263099949807","0.345010000048205","0.406131899915636","1","1","1","1","1","1","1","1","1"
"250045","img/neutralC/CFD-IM-646-023-N.jpg","img/neutralC/CFD-WM-006-002-N.jpg","img/neutralC/CFD-WM-212-097-N.jpg","1","0","0","1","0","0","0.406131899915636","0.420263099949807","0.407936899922788","1","1","1","1","1","1","1","1","1"
"250045","img/neutralC/CFD-WM-212-097-N.jpg","img/neutralC/CFD-IM-646-023-N.jpg","img/neutralC/CFD-LM-214-165-N.jpg","0","1","1","0","1","1","0.407936899922788","0.406131899915636","0.437940000090748","1","1","1","1","1","1","1","1","1"
"250045","img/neutralC/CFD-LM-214-165-N.jpg","img/neutralC/CFD-WM-212-097-N.jpg","img/neutralC/CFD-LM-201-057-N.jpg","1","0","1","1","0","1","0.437940000090748","0.407936899922788","0.430774099892005","1","1","1","1","1","1","1","1","1"
"250045","img/neutralC/CFD-LM-201-057-N.jpg","img/neutralC/CFD-LM-214-165-N.jpg","img/neutralC/CFD-WF-005-010-N.jpg","1","1","0","1","1","0","0.430774099892005","0.437940000090748","0.52840769989416","1","1","1","1","1","1","1","1","1"
"250045","img/neutralC/CFD-WF-005-010-N.jpg","img/neutralC/CFD-LM-201-057-N.jpg","img/neutralC/CFD-WM-019-003-N.jpg","0","1","1","0","1","1","0.52840769989416","0.430774099892005","0.433980200206861","1","1","1","1","1","1","1","1","1"
"250045","img/neutralC/CFD-WM-019-003-N.jpg","img/neutralC/CFD-WF-005-010-N.jpg","img/neutralC/CFD-MF-335-002-N.jpg","1","0","1","1","0","0","0.433980200206861","0.52840769989416","0.487459299853072","1","1","1","1","1","1","1","1","1"
"250045","img/neutralC/CFD-MF-335-002-N.jpg","img/neutralC/CFD-WM-019-003-N.jpg","img/neutralC/CFD-LM-244-068-N.jpg","1","1","1","0","1","1","0.487459299853072","0.433980200206861","0.51632359996438","1","1","1","1","1","1","1","1","1"
"250045","img/neutralC/CFD-LM-244-068-N.jpg","img/neutralC/CFD-MF-335-002-N.jpg","img/neutralC/CFD-WM-215-041-N.jpg","1","1","1","1","0","0","0.51632359996438","0.487459299853072","0.481540400069207","1","1","1","1","1","1","1","1","1"
"250045","img/neutralC/CFD-WM-215-041-N.jpg","img/neutralC/CFD-LM-244-068-N.jpg","img/neutralC/CFD-BM-248-128-N.jpg","1","1","1","0","1","0","0.481540400069207","0.51632359996438","0.434536299901083","1","1","1","1","1","1","1","1","1"
"250045","img/neutralC/CFD-BM-248-128-N.jpg","img/neutralC/CFD-WM-215-041-N.jpg","img/neutralC/CFD-BM-205-001-N.jpg","1","1","0","0","0","0","0.434536299901083","0.481540400069207","0.456723100040108","1","1","1","1","1","1","1","1","1"
"250045","img/neutralC/CFD-BM-205-001-N.jpg","img/neutralC/CFD-BM-248-128-N.jpg","img/neutralC/CFD-IM-648-337-N.jpg","0","1","1","0","0","0","0.456723100040108","0.434536299901083","0.51138349995017","1","1","1","1","1","1","1","1","1"
"250045","img/neutralC/CFD-IM-648-337-N.jpg","img/neutralC/CFD-BM-205-001-N.jpg","img/neutralC/CFD-LM-216-082-N.jpg","1","0","1","0","0","0","0.51138349995017","0.456723100040108","0.521000599954277","1","1","1","1","1","1","1","1","1"
"250045","img/neutralC/CFD-LM-216-082-N.jpg","img/neutralC/CFD-IM-648-337-N.jpg","img/neutralC/CFD-WF-240-083-N.jpg","1","1","1","0","0","0","0.521000599954277","0.51138349995017","0.41290370002389","1","1","1","1","1","1","1","1","1"
"250045","img/neutralC/CFD-WF-240-083-N.jpg","img/neutralC/CFD-LM-216-082-N.jpg","img/neutralC/CFD-BF-228-212-N.jpg","1","1","1","0","0","0","0.41290370002389","0.521000599954277","0.451162100071087","1","1","1","1","1","1","1","1","1"
"250045","img/neutralC/CFD-BF-228-212-N.jpg","img/neutralC/CFD-WF-240-083-N.jpg","img/neutralC/CFD-WF-017-003-N.jpg","1","1","1","0","0","1","0.451162100071087","0.41290370002389","0.401341499993578","1","1","1","1","1","1","1","1","1"
"250045","img/neutralC/CFD-WF-017-003-N.jpg","img/neutralC/CFD-BF-228-212-N.jpg","img/neutralC/CFD-MM-317-061-N.jpg","1","1","1","1","0","1","0.401341499993578","0.451162100071087","0.409667199943215","1","1","1","1","1","1","1","1","1"
"250045","img/neutralC/CFD-MM-317-061-N.jpg","img/neutralC/CFD-WF-017-003-N.jpg","img/neutralC/CFD-IF-642-295-N.jpg","1","1","0","1","1","1","0.409667199943215","0.401341499993578","0.447288499912247","1","1","1","1","1","1","1","1","1"
"250045","img/neutralC/CFD-IF-642-295-N.jpg","img/neutralC/CFD-MM-317-061-N.jpg","img/neutralC/CFD-BF-202-109-N.jpg","0","1","1","1","1","1","0.447288499912247","0.409667199943215","0.43111850018613","1","1","1","1","1","1","1","1","1"
"250045","img/neutralC/CFD-BF-202-109-N.jpg","img/neutralC/CFD-IF-642-295-N.jpg","img/neutralC/CFD-WM-026-001-N.jpg","1","0","1","1","1","1","0.43111850018613","0.447288499912247","0.38214399991557","1","1","1","1","1","1","1","1","1"
"250045","img/neutralC/CFD-WM-026-001-N.jpg","img/neutralC/CFD-BF-202-109-N.jpg","img/neutralC/CFD-BM-251-013-N.jpg","1","1","1","1","1","1","0.38214399991557","0.43111850018613","0.431779899867252","1","1","1","1","1","1","1","1","1"
"250045","img/neutralC/CFD-BM-251-013-N.jpg","img/neutralC/CFD-WM-026-001-N.jpg","img/neutralC/CFD-WM-012-001-N.jpg","1","1","1","1","1","1","0.431779899867252","0.38214399991557","0.397402299800888","1","1","1","1","1","1","1","1","1"
"250045","img/neutralC/CFD-WM-012-001-N.jpg","img/neutralC/CFD-BM-251-013-N.jpg","img/neutralC/CFD-AM-247-165-N.jpg","1","1","1","1","1","1","0.397402299800888","0.431779899867252","0.430877200094983","1","1","1","1","1","1","1","1","1"
"250045","img/neutralC/CFD-AM-247-165-N.jpg","img/neutralC/CFD-WM-012-001-N.jpg","img/neutralC/CFD-LM-243-075-N.jpg","1","1","1","1","1","0","0.430877200094983","0.397402299800888","0.478435999946669","1","1","1","1","1","1","1","1","1"
"250045","img/neutralC/CFD-LM-243-075-N.jpg","img/neutralC/CFD-AM-247-165-N.jpg","img/neutralC/CFD-AF-240-206-N.jpg","1","1","1","0","1","0","0.478435999946669","0.430877200094983","0.535039799986407","1","1","1","1","1","1","1","1","1"
"250045","img/neutralC/CFD-AF-240-206-N.jpg","img/neutralC/CFD-LM-243-075-N.jpg","img/neutralC/CFD-WF-228-196-N.jpg","1","1","1","0","0","0","0.535039799986407","0.478435999946669","0.487060399958864","1","1","1","1","1","1","1","1","1"
"250045","img/neutralC/CFD-WF-228-196-N.jpg","img/neutralC/CFD-AF-240-206-N.jpg","img/neutralC/CFD-WM-249-239-N.jpg","1","1","1","0","0","1","0.487060399958864","0.535039799986407","0.400551600148901","1","1","1","1","1","1","1","1","1"
"250045","img/neutralC/CFD-WM-249-239-N.jpg","img/neutralC/CFD-WF-228-196-N.jpg",NA,"1","1",NA,"1","0",NA,"0.400551600148901","0.487060399958864",NA,"1","1",NA,"1","1",NA,"1","1",NA
"250045","img/neutralC/CFD-WM-014-002-N.jpg",NA,"img/neutralC/CFD-BF-036-027-N.jpg","1",NA,"0","0",NA,"0","0.544588499935344",NA,"0.492184599861503","1",NA,"1","1",NA,"1","1",NA,"1"
"250045","img/neutralC/CFD-BF-036-027-N.jpg","img/neutralC/CFD-WM-014-002-N.jpg","img/neutralC/CFD-WF-234-086-N.jpg","0","1","1","0","0","1","0.492184599861503","0.544588499935344","0.424698000075296","1","1","1","1","1","1","1","1","1"
"250045","img/neutralC/CFD-WF-234-086-N.jpg","img/neutralC/CFD-BF-036-027-N.jpg","img/neutralC/CFD-AM-230-150-N.jpg","1","0","1","1","0","0","0.424698000075296","0.492184599861503","0.454074200009927","1","1","1","1","1","1","1","1","1"
"250045","img/neutralC/CFD-AM-230-150-N.jpg","img/neutralC/CFD-WF-234-086-N.jpg","img/neutralC/CFD-IM-721-341-N.jpg","1","1","1","0","1","1","0.454074200009927","0.424698000075296","0.453381099971011","1","1","1","1","1","1","1","1","1"
"250045","img/neutralC/CFD-IM-721-341-N.jpg","img/neutralC/CFD-AM-230-150-N.jpg","img/neutralC/CFD-IM-707-105-N.jpg","1","1","1","1","0","1","0.453381099971011","0.454074200009927","0.396767700091004","1","1","1","1","1","1","1","1","1"
"250045","img/neutralC/CFD-IM-707-105-N.jpg","img/neutralC/CFD-IM-721-341-N.jpg","img/neutralC/CFD-IF-677-452-1-N.jpg","1","1","1","1","1","1","0.396767700091004","0.453381099971011","0.423080899985507","1","1","1","1","1","1","1","1","1"
"250045","img/neutralC/CFD-IF-677-452-1-N.jpg","img/neutralC/CFD-IM-707-105-N.jpg","img/neutralC/CFD-BF-011-002-N.jpg","1","1","1","1","1","1","0.423080899985507","0.396767700091004","0.353519200114533","1","1","1","1","1","1","1","1","1"
"250045","img/neutralC/CFD-BF-011-002-N.jpg","img/neutralC/CFD-IF-677-452-1-N.jpg","img/neutralC/CFD-BF-002-001-N.jpg","1","1","1","1","1","0","0.353519200114533","0.423080899985507","0.426217299886048","1","1","1","1","1","1","1","1","1"
"250045","img/neutralC/CFD-BF-002-001-N.jpg","img/neutralC/CFD-BF-011-002-N.jpg","img/neutralC/CFD-WF-208-068-N.jpg","1","1","1","0","1","1","0.426217299886048","0.353519200114533","0.421330099925399","1","1","1","1","1","1","1","1","1"
"250045","img/neutralC/CFD-WF-208-068-N.jpg","img/neutralC/CFD-BF-002-001-N.jpg","img/neutralC/CFD-WM-034-030-N.jpg","1","1","1","1","0","1","0.421330099925399","0.426217299886048","0.429131000069901","1","1","1","1","1","1","1","1","1"
"250045","img/neutralC/CFD-WM-034-030-N.jpg","img/neutralC/CFD-WF-208-068-N.jpg","img/neutralC/CFD-LM-213-061-N.jpg","1","1","0","1","1","0","0.429131000069901","0.421330099925399","0.466751900035888","1","1","1","1","1","1","1","1","1"
"250045","img/neutralC/CFD-LM-213-061-N.jpg","img/neutralC/CFD-WM-034-030-N.jpg","img/neutralC/CFD-WM-248-036-N.jpg","0","1","1","0","1","1","0.466751900035888","0.429131000069901","0.376980900065973","1","1","1","1","1","1","1","1","1"
"250045","img/neutralC/CFD-WM-248-036-N.jpg","img/neutralC/CFD-LM-213-061-N.jpg","img/neutralC/CFD-BF-006-017-N.jpg","1","0","1","1","0","0","0.376980900065973","0.466751900035888","0.350151299964637","1","1","1","1","1","1","1","1","1"
"250045","img/neutralC/CFD-BF-006-017-N.jpg","img/neutralC/CFD-WM-248-036-N.jpg","img/neutralC/CFD-BF-207-004-N.jpg","1","1","1","0","1","1","0.350151299964637","0.376980900065973","0.420589199988171","1","1","1","1","1","1","1","1","1"
"250045","img/neutralC/CFD-BF-207-004-N.jpg","img/neutralC/CFD-BF-006-017-N.jpg","img/neutralC/CFD-BF-247-179-N.jpg","1","1","1","1","0","0","0.420589199988171","0.350151299964637","0.376702999928966","1","1","1","1","1","1","1","1","1"
"250045","img/neutralC/CFD-BF-247-179-N.jpg","img/neutralC/CFD-BF-207-004-N.jpg","img/neutralC/CFD-BF-214-308-N.jpg","1","1","0","0","1","1","0.376702999928966","0.420589199988171","0.505529099842533","1","1","1","1","1","1","1","1","1"
"250045","img/neutralC/CFD-BF-214-308-N.jpg","img/neutralC/CFD-BF-247-179-N.jpg","img/neutralC/CFD-IF-742-103-N.jpg","0","1","1","1","0","1","0.505529099842533","0.376702999928966","0.401968299876899","1","1","1","1","1","1","1","1","1"
"250045","img/neutralC/CFD-IF-742-103-N.jpg","img/neutralC/CFD-BF-214-308-N.jpg","img/neutralC/CFD-BM-238-242-N.jpg","1","0","1","1","1","0","0.401968299876899","0.505529099842533","0.432058300124481","1","1","1","1","1","1","1","1","1"
"250045","img/neutralC/CFD-BM-238-242-N.jpg","img/neutralC/CFD-IF-742-103-N.jpg","img/neutralC/CFD-LF-204-133-N.jpg","1","1","1","0","1","1","0.432058300124481","0.401968299876899","0.390669499989599","1","1","1","1","1","1","1","1","1"
"250045","img/neutralC/CFD-LF-204-133-N.jpg","img/neutralC/CFD-BM-238-242-N.jpg","img/neutralC/CFD-WF-029-002-N.jpg","1","1","1","1","0","0","0.390669499989599","0.432058300124481","0.559051199816167","1","1","1","1","1","1","1","1","1"
"250045","img/neutralC/CFD-WF-029-002-N.jpg","img/neutralC/CFD-LF-204-133-N.jpg","img/neutralC/CFD-BM-207-024-N.jpg","1","1","1","0","1","1","0.559051199816167","0.390669499989599","0.464432399952784","1","1","1","1","1","1","1","1","1"
"250045","img/neutralC/CFD-BM-207-024-N.jpg","img/neutralC/CFD-WF-029-002-N.jpg","img/neutralC/CFD-WF-233-112-N.jpg","1","1","1","1","0","1","0.464432399952784","0.559051199816167","0.464689099928364","1","1","1","1","1","1","1","1","1"
"250045","img/neutralC/CFD-WF-233-112-N.jpg","img/neutralC/CFD-BM-207-024-N.jpg","img/neutralC/CFD-MF-301-024-N.jpg","1","1","1","1","1","0","0.464689099928364","0.464432399952784","0.484748299932107","1","1","1","1","1","1","1","1","1"
"250045","img/neutralC/CFD-MF-301-024-N.jpg","img/neutralC/CFD-WF-233-112-N.jpg","img/neutralC/CFD-IM-696-001-N.jpg","1","1","1","0","1","0","0.484748299932107","0.464689099928364","0.461998899932951","1","1","1","1","1","1","1","1","1"
"250045","img/neutralC/CFD-IM-696-001-N.jpg","img/neutralC/CFD-MF-301-024-N.jpg","img/neutralC/CFD-BF-236-177-N.jpg","1","1","1","0","0","0","0.461998899932951","0.484748299932107","0.511468500131741","1","1","1","1","1","1","1","1","1"
"250045","img/neutralC/CFD-BF-236-177-N.jpg","img/neutralC/CFD-IM-696-001-N.jpg","img/neutralC/CFD-BF-044-034-N.jpg","1","1","1","0","0","0","0.511468500131741","0.461998899932951","0.439989600097761","1","1","1","1","1","1","1","1","1"
"250045","img/neutralC/CFD-BF-044-034-N.jpg","img/neutralC/CFD-BF-236-177-N.jpg","img/neutralC/CFD-IF-729-393-N.jpg","1","1","0","0","0","0","0.439989600097761","0.511468500131741","0.501644300064072","1","1","1","1","1","1","1","1","1"
"250045","img/neutralC/CFD-IF-729-393-N.jpg","img/neutralC/CFD-BF-044-034-N.jpg","img/neutralC/CFD-BF-027-002-N.jpg","0","1","1","0","0","1","0.501644300064072","0.439989600097761","0.423418999882415","1","1","1","1","1","1","1","1","1"
"250045","img/neutralC/CFD-BF-027-002-N.jpg","img/neutralC/CFD-IF-729-393-N.jpg","img/neutralC/CFD-IM-726-248-N.jpg","1","0","1","1","0","0","0.423418999882415","0.501644300064072","0.440049200085923","1","1","1","1","1","1","1","1","1"
"250045","img/neutralC/CFD-IM-726-248-N.jpg","img/neutralC/CFD-BF-027-002-N.jpg","img/neutralC/CFD-BM-036-003-N.jpg","1","1","1","0","1","1","0.440049200085923","0.423418999882415","0.45430999994278","1","1","1","1","1","1","1","1","1"
"250045","img/neutralC/CFD-BM-036-003-N.jpg","img/neutralC/CFD-IM-726-248-N.jpg","img/neutralC/CFD-BM-241-235-N.jpg","1","1","1","1","0","0","0.45430999994278","0.440049200085923","0.432922899955884","1","1","1","1","1","1","1","1","1"
"250045","img/neutralC/CFD-BM-241-235-N.jpg","img/neutralC/CFD-BM-036-003-N.jpg",NA,"1","1",NA,"0","1",NA,"0.432922899955884","0.45430999994278",NA,"1","1",NA,"1","1",NA,"1","1",NA
"250045","img/neutralC/CFD-AF-213-126-N.jpg",NA,"img/neutralC/CFD-LM-241-125-N.jpg","1",NA,"1","1",NA,"1","0.659910599933937",NA,"0.467518000165001","1",NA,"1","1",NA,"1","1",NA,"1"
"250045","img/neutralC/CFD-LM-241-125-N.jpg","img/neutralC/CFD-AF-213-126-N.jpg","img/neutralC/CFD-AF-244-168-N.jpg","1","1","1","1","1","0","0.467518000165001","0.659910599933937","0.680311899865046","1","1","1","1","1","1","1","1","1"
"250045","img/neutralC/CFD-AF-244-168-N.jpg","img/neutralC/CFD-LM-241-125-N.jpg","img/neutralC/CFD-AM-245-111-N.jpg","1","1","0","0","1","1","0.680311899865046","0.467518000165001","0.459184200037271","1","1","1","1","1","1","1","1","1"
"250045","img/neutralC/CFD-AM-245-111-N.jpg","img/neutralC/CFD-AF-244-168-N.jpg","img/neutralC/CFD-WF-235-121-N.jpg","0","1","0","1","0","0","0.459184200037271","0.680311899865046","0.450895400019363","1","1","1","1","1","1","1","1","1"
"250045","img/neutralC/CFD-WF-235-121-N.jpg","img/neutralC/CFD-AM-245-111-N.jpg","img/neutralC/CFD-BM-004-002-N.jpg","0","0","1","0","1","0","0.450895400019363","0.459184200037271","0.562871900154278","1","1","1","1","1","1","1","1","1"
"250045","img/neutralC/CFD-BM-004-002-N.jpg","img/neutralC/CFD-WF-235-121-N.jpg","img/neutralC/CFD-BF-040-003-N.jpg","1","0","1","0","0","1","0.562871900154278","0.450895400019363","0.435790000017732","1","1","1","1","1","1","1","1","1"
"250045","img/neutralC/CFD-BF-040-003-N.jpg","img/neutralC/CFD-BM-004-002-N.jpg","img/neutralC/CFD-WM-253-119-N.jpg","1","1","1","1","0","1","0.435790000017732","0.562871900154278","0.420423900010064","1","1","1","1","1","1","1","1","1"
"250045","img/neutralC/CFD-WM-253-119-N.jpg","img/neutralC/CFD-BF-040-003-N.jpg","img/neutralC/CFD-IF-636-011-N.jpg","1","1","1","1","1","1","0.420423900010064","0.435790000017732","0.473859499907121","1","1","1","1","1","1","1","1","1"
"250045","img/neutralC/CFD-IF-636-011-N.jpg","img/neutralC/CFD-WM-253-119-N.jpg","img/neutralC/CFD-WF-210-086-N.jpg","1","1","1","1","1","0","0.473859499907121","0.420423900010064","0.53663789993152","1","1","1","1","1","1","1","1","1"
"250045","img/neutralC/CFD-WF-210-086-N.jpg","img/neutralC/CFD-IF-636-011-N.jpg","img/neutralC/CFD-MF-302-027-N.jpg","1","1","1","0","1","0","0.53663789993152","0.473859499907121","0.640787299955264","1","1","1","1","1","1","1","1","1"
"250045","img/neutralC/CFD-MF-302-027-N.jpg","img/neutralC/CFD-WF-210-086-N.jpg","img/neutralC/CFD-LF-239-148-N.jpg","1","1","1","0","0","0","0.640787299955264","0.53663789993152","0.520421499852091","1","1","1","1","1","1","1","1","1"
"250045","img/neutralC/CFD-LF-239-148-N.jpg","img/neutralC/CFD-MF-302-027-N.jpg","img/neutralC/CFD-BF-217-189-N.jpg","1","1","1","0","0","0","0.520421499852091","0.640787299955264","0.504931299947202","1","1","1","1","1","1","1","1","1"
"250045","img/neutralC/CFD-BF-217-189-N.jpg","img/neutralC/CFD-LF-239-148-N.jpg","img/neutralC/CFD-BF-042-026-N.jpg","1","1","1","0","0","1","0.504931299947202","0.520421499852091","0.438699500169605","1","1","1","1","1","1","1","1","1"
"250045","img/neutralC/CFD-BF-042-026-N.jpg","img/neutralC/CFD-BF-217-189-N.jpg","img/neutralC/CFD-AF-205-155-N.jpg","1","1","1","1","0","0","0.438699500169605","0.504931299947202","0.532682200195268","1","1","1","1","1","1","1","1","1"
"250045","img/neutralC/CFD-AF-205-155-N.jpg","img/neutralC/CFD-BF-042-026-N.jpg","img/neutralC/CFD-IM-632-097-N.jpg","1","1","1","0","1","0","0.532682200195268","0.438699500169605","0.475208100164309","1","1","1","1","1","1","1","1","1"
"250045","img/neutralC/CFD-IM-632-097-N.jpg","img/neutralC/CFD-AF-205-155-N.jpg","img/neutralC/CFD-LM-204-001-N.jpg","1","1","1","0","0","0","0.475208100164309","0.532682200195268","0.450614500092342","1","1","1","1","1","1","1","1","1"
"250045","img/neutralC/CFD-LM-204-001-N.jpg","img/neutralC/CFD-IM-632-097-N.jpg","img/neutralC/CFD-BF-020-002-N.jpg","1","1","1","0","0","1","0.450614500092342","0.475208100164309","0.45055319997482","1","1","1","1","1","1","1","1","1"
"250045","img/neutralC/CFD-BF-020-002-N.jpg","img/neutralC/CFD-LM-204-001-N.jpg","img/neutralC/CFD-BF-235-168-N.jpg","1","1","1","1","0","1","0.45055319997482","0.450614500092342","0.416227500187233","1","1","1","1","1","1","1","1","1"
"250045","img/neutralC/CFD-BF-235-168-N.jpg","img/neutralC/CFD-BF-020-002-N.jpg","img/neutralC/CFD-IM-669-111-N.jpg","1","1","1","1","1","1","0.416227500187233","0.45055319997482","0.434392499970272","1","1","1","1","1","1","1","1","1"
"250045","img/neutralC/CFD-IM-669-111-N.jpg","img/neutralC/CFD-BF-235-168-N.jpg","img/neutralC/CFD-AF-234-208-N.jpg","1","1","1","1","1","1","0.434392499970272","0.416227500187233","0.426941700046882","1","1","1","1","1","1","1","1","1"
"250045","img/neutralC/CFD-AF-234-208-N.jpg","img/neutralC/CFD-IM-669-111-N.jpg","img/neutralC/CFD-AM-233-236-N.jpg","1","1","1","1","1","1","0.426941700046882","0.434392499970272","0.441433600150049","1","1","1","1","1","1","1","1","1"
"250045","img/neutralC/CFD-AM-233-236-N.jpg","img/neutralC/CFD-AF-234-208-N.jpg","img/neutralC/CFD-AF-246-242-N.jpg","1","1","0","1","1","0","0.441433600150049","0.426941700046882","0.351432200055569","1","1","1","1","1","1","1","1","1"
"250045","img/neutralC/CFD-AF-246-242-N.jpg","img/neutralC/CFD-AM-233-236-N.jpg","img/neutralC/CFD-MF-307-002-N.jpg","0","1","1","0","1","1","0.351432200055569","0.441433600150049","0.404105299850926","1","1","1","1","1","1","1","1","1"
"250045","img/neutralC/CFD-MF-307-002-N.jpg","img/neutralC/CFD-AF-246-242-N.jpg","img/neutralC/CFD-AF-250-200-N.jpg","1","0","1","1","0","1","0.404105299850926","0.351432200055569","0.421814800007269","1","1","1","1","1","1","1","1","1"
"250045","img/neutralC/CFD-AF-250-200-N.jpg","img/neutralC/CFD-MF-307-002-N.jpg","img/neutralC/CFD-IM-678-482-N.jpg","1","1","0","1","1","0","0.421814800007269","0.404105299850926","0.575637200148776","1","1","1","1","1","1","1","1","1"
"250045","img/neutralC/CFD-IM-678-482-N.jpg","img/neutralC/CFD-AF-250-200-N.jpg","img/neutralC/CFD-AM-225-102-N.jpg","0","1","1","0","1","0","0.575637200148776","0.421814800007269","0.504715099930763","1","1","1","1","1","1","1","1","1"
"250045","img/neutralC/CFD-AM-225-102-N.jpg","img/neutralC/CFD-IM-678-482-N.jpg","img/neutralC/CFD-IF-732-260-N.jpg","1","0","1","0","0","0","0.504715099930763","0.575637200148776","0.501791899790987","1","1","1","1","1","1","1","1","1"
"250045","img/neutralC/CFD-IF-732-260-N.jpg","img/neutralC/CFD-AM-225-102-N.jpg","img/neutralC/CFD-IM-635-010-N.jpg","1","1","1","0","0","1","0.501791899790987","0.504715099930763","0.391999899875373","1","1","1","1","1","1","1","1","1"
"250045","img/neutralC/CFD-IM-635-010-N.jpg","img/neutralC/CFD-IF-732-260-N.jpg","img/neutralC/CFD-WM-018-002-N.jpg","1","1","1","1","0","0","0.391999899875373","0.501791899790987","0.497312699910253","1","1","1","1","1","1","1","1","1"
"250045","img/neutralC/CFD-WM-018-002-N.jpg","img/neutralC/CFD-IM-635-010-N.jpg","img/neutralC/CFD-BM-215-155-N.jpg","1","1","1","0","1","0","0.497312699910253","0.391999899875373","0.618012999882922","1","1","1","1","1","1","1","1","1"
"250045","img/neutralC/CFD-BM-215-155-N.jpg","img/neutralC/CFD-WM-018-002-N.jpg","img/neutralC/CFD-BF-206-143-N.jpg","1","1","1","0","0","1","0.618012999882922","0.497312699910253","0.498040999984369","1","1","1","1","1","1","1","1","1"
"250045","img/neutralC/CFD-BF-206-143-N.jpg","img/neutralC/CFD-BM-215-155-N.jpg",NA,"1","1",NA,"1","0",NA,"0.498040999984369","0.618012999882922",NA,"1","1",NA,"1","1",NA,"1","1",NA
"250045","img/neutralC/CFD-MF-359-019-N.jpg",NA,"img/neutralC/CFD-WF-036-023-N.jpg","1",NA,"1","0",NA,"0","0.51071870001033",NA,"0.470150399953127","1",NA,"1","1",NA,"1","1",NA,"1"
"250045","img/neutralC/CFD-WF-036-023-N.jpg","img/neutralC/CFD-MF-359-019-N.jpg","img/neutralC/CFD-BF-038-037-N.jpg","1","1","1","0","0","1","0.470150399953127","0.51071870001033","0.410824900027364","1","1","1","1","1","1","1","1","1"
"250045","img/neutralC/CFD-BF-038-037-N.jpg","img/neutralC/CFD-WF-036-023-N.jpg","img/neutralC/CFD-WF-214-122-N.jpg","1","1","1","1","0","1","0.410824900027364","0.470150399953127","0.386786400107667","1","1","1","1","1","1","1","1","1"
"250045","img/neutralC/CFD-WF-214-122-N.jpg","img/neutralC/CFD-BF-038-037-N.jpg","img/neutralC/CFD-WM-004-010-N.jpg","1","1","1","1","1","0","0.386786400107667","0.410824900027364","0.54136550007388","1","1","1","1","1","1","1","1","1"
"250045","img/neutralC/CFD-WM-004-010-N.jpg","img/neutralC/CFD-WF-214-122-N.jpg","img/neutralC/CFD-LF-220-120-N.jpg","1","1","1","0","1","1","0.54136550007388","0.386786400107667","0.447216200176626","1","1","1","1","1","1","1","1","1"
"250045","img/neutralC/CFD-LF-220-120-N.jpg","img/neutralC/CFD-WM-004-010-N.jpg","img/neutralC/CFD-AM-211-052-N.jpg","1","1","1","1","0","1","0.447216200176626","0.54136550007388","0.392944099847227","1","1","1","1","1","1","1","1","1"
"250045","img/neutralC/CFD-AM-211-052-N.jpg","img/neutralC/CFD-LF-220-120-N.jpg","img/neutralC/CFD-WM-033-025-N.jpg","1","1","1","1","1","1","0.392944099847227","0.447216200176626","0.458565299864858","1","1","1","1","1","1","1","1","1"
"250045","img/neutralC/CFD-WM-033-025-N.jpg","img/neutralC/CFD-AM-211-052-N.jpg","img/neutralC/CFD-IM-616-214-N.jpg","1","1","1","1","1","0","0.458565299864858","0.392944099847227","0.474553000181913","1","1","1","1","1","1","1","1","1"
"250045","img/neutralC/CFD-IM-616-214-N.jpg","img/neutralC/CFD-WM-033-025-N.jpg","img/neutralC/CFD-BF-232-187-N.jpg","1","1","1","0","1","1","0.474553000181913","0.458565299864858","0.469773099990562","1","1","1","1","1","1","1","1","1"
"250045","img/neutralC/CFD-BF-232-187-N.jpg","img/neutralC/CFD-IM-616-214-N.jpg","img/neutralC/CFD-MF-352-054-N.jpg","1","1","1","1","0","0","0.469773099990562","0.474553000181913","0.468444800004363","1","1","1","1","1","1","1","1","1"
"250045","img/neutralC/CFD-MF-352-054-N.jpg","img/neutralC/CFD-BF-232-187-N.jpg","img/neutralC/CFD-AM-251-124-N.jpg","1","1","1","0","1","0","0.468444800004363","0.469773099990562","0.451738500036299","1","1","1","1","1","1","1","1","1"
"250045","img/neutralC/CFD-AM-251-124-N.jpg","img/neutralC/CFD-MF-352-054-N.jpg","img/neutralC/CFD-WF-001-003-N.jpg","1","1","1","0","0","1","0.451738500036299","0.468444800004363","0.51219779998064","1","1","1","1","1","1","1","1","1"
"250045","img/neutralC/CFD-WF-001-003-N.jpg","img/neutralC/CFD-AM-251-124-N.jpg","img/neutralC/CFD-WM-020-001-N.jpg","1","1","1","1","0","1","0.51219779998064","0.451738500036299","0.421649599913508","1","1","1","1","1","1","1","1","1"
"250045","img/neutralC/CFD-WM-020-001-N.jpg","img/neutralC/CFD-WF-001-003-N.jpg","img/neutralC/CFD-IM-645-001-N.jpg","1","1","1","1","1","0","0.421649599913508","0.51219779998064","0.427165600005537","1","1","1","1","1","1","1","1","1"
"250045","img/neutralC/CFD-IM-645-001-N.jpg","img/neutralC/CFD-WM-020-001-N.jpg","img/neutralC/CFD-LM-228-188-N.jpg","1","1","1","0","1","1","0.427165600005537","0.421649599913508","0.392159100156277","1","1","1","1","1","1","1","1","1"
"250045","img/neutralC/CFD-LM-228-188-N.jpg","img/neutralC/CFD-IM-645-001-N.jpg","img/neutralC/CFD-WM-219-008-N.jpg","1","1","1","1","0","0","0.392159100156277","0.427165600005537","0.476614600047469","1","1","1","1","1","1","1","1","1"
"250045","img/neutralC/CFD-WM-219-008-N.jpg","img/neutralC/CFD-LM-228-188-N.jpg","img/neutralC/CFD-BF-226-119-N.jpg","1","1","1","0","1","1","0.476614600047469","0.392159100156277","0.477005299879238","1","1","1","1","1","1","1","1","1"
"250045","img/neutralC/CFD-BF-226-119-N.jpg","img/neutralC/CFD-WM-219-008-N.jpg","img/neutralC/CFD-IM-671-601-N.jpg","1","1","1","1","0","0","0.477005299879238","0.476614600047469","0.537330100079998","1","1","1","1","1","1","1","1","1"
"250045","img/neutralC/CFD-IM-671-601-N.jpg","img/neutralC/CFD-BF-226-119-N.jpg","img/neutralC/CFD-IM-703-182-N.jpg","1","1","1","0","1","1","0.537330100079998","0.477005299879238","0.448475199984387","1","1","1","1","1","1","1","1","1"
"250045","img/neutralC/CFD-IM-703-182-N.jpg","img/neutralC/CFD-IM-671-601-N.jpg","img/neutralC/CFD-WM-235-147-N.jpg","1","1","1","1","0","0","0.448475199984387","0.537330100079998","0.47038590000011","1","1","1","1","1","1","1","1","1"
"250045","img/neutralC/CFD-WM-235-147-N.jpg","img/neutralC/CFD-IM-703-182-N.jpg","img/neutralC/CFD-BM-253-004-N.jpg","1","1","1","0","1","1","0.47038590000011","0.448475199984387","0.402006599819288","1","1","1","1","1","1","1","1","1"
"250045","img/neutralC/CFD-BM-253-004-N.jpg","img/neutralC/CFD-WM-235-147-N.jpg","img/neutralC/CFD-MF-333-012-N.jpg","1","1","0","1","0","0","0.402006599819288","0.47038590000011","0.443860299885273","1","1","1","1","1","1","1","1","1"
"250045","img/neutralC/CFD-MF-333-012-N.jpg","img/neutralC/CFD-BM-253-004-N.jpg","img/neutralC/CFD-BF-229-179-N.jpg","0","1","1","0","1","0","0.443860299885273","0.402006599819288","0.551726300036535","1","1","1","1","1","1","1","1","1"
"250045","img/neutralC/CFD-BF-229-179-N.jpg","img/neutralC/CFD-MF-333-012-N.jpg","img/neutralC/CFD-BM-225-154-N.jpg","1","0","1","0","0","1","0.551726300036535","0.443860299885273","0.48389060003683","1","1","1","1","1","1","1","1","1"
"250045","img/neutralC/CFD-BM-225-154-N.jpg","img/neutralC/CFD-BF-229-179-N.jpg","img/neutralC/CFD-LM-237-264-N.jpg","1","1","1","1","0","0","0.48389060003683","0.551726300036535","0.499401099979878","1","1","1","1","1","1","1","1","1"
"250045","img/neutralC/CFD-LM-237-264-N.jpg","img/neutralC/CFD-BM-225-154-N.jpg","img/neutralC/CFD-LF-218-072-N.jpg","1","1","0","0","1","0","0.499401099979878","0.48389060003683","0.489892600104213","1","1","1","1","1","1","1","1","1"
"250045","img/neutralC/CFD-LF-218-072-N.jpg","img/neutralC/CFD-LM-237-264-N.jpg","img/neutralC/CFD-WF-200-099-N.jpg","0","1","1","0","0","0","0.489892600104213","0.499401099979878","0.532782000023872","1","1","1","1","1","1","1","1","1"
"250045","img/neutralC/CFD-WF-200-099-N.jpg","img/neutralC/CFD-LF-218-072-N.jpg","img/neutralC/CFD-IF-650-315-N.jpg","1","0","1","0","0","0","0.532782000023872","0.489892600104213","0.508784200064838","1","1","1","1","1","1","1","1","1"
"250045","img/neutralC/CFD-IF-650-315-N.jpg","img/neutralC/CFD-WF-200-099-N.jpg","img/neutralC/CFD-IM-743-006-N.jpg","1","1","1","0","0","1","0.508784200064838","0.532782000023872","0.52855039993301","1","1","1","1","1","1","1","1","1"
"250045","img/neutralC/CFD-IM-743-006-N.jpg","img/neutralC/CFD-IF-650-315-N.jpg","img/neutralC/CFD-IF-623-129-N.jpg","1","1","1","1","0","1","0.52855039993301","0.508784200064838","0.458062799880281","1","1","1","1","1","1","1","1","1"
"250045","img/neutralC/CFD-IF-623-129-N.jpg","img/neutralC/CFD-IM-743-006-N.jpg","img/neutralC/CFD-AM-242-176-N.jpg","1","1","1","1","1","1","0.458062799880281","0.52855039993301","0.39154540002346","1","1","1","1","1","1","1","1","1"
"250045","img/neutralC/CFD-AM-242-176-N.jpg","img/neutralC/CFD-IF-623-129-N.jpg",NA,"1","1",NA,"1","1",NA,"0.39154540002346","0.458062799880281",NA,"1","1",NA,"1","1",NA,"1","1",NA
