"participant_id","current_trial_face","pre_trial_face","post_trial_face","current_trial_accuracy","pre_trial_accuracy","post_trial_accuracy","current_trial_congruency","pre_trial_congruency","post_trial_congruency","current_trial_rt","pre_trial_rt","post_trial_rt","current_trial_responded","pre_trial_responded","post_trial_responded","current_trial_legitResponse","pre_trial_legitResponse","post_trial_legitResponse","current_trial_resp_nums","pre_trial_resp_nums","post_trial_resp_nums"
"250054","img/neutralC/CFD-AF-246-242-N.jpg",NA,"img/neutralC/CFD-BF-042-026-N.jpg","0",NA,"1","0",NA,"1",NA,NA,"0.956552700023167","0",NA,"1","0",NA,"1","0",NA,"1"
"250054","img/neutralC/CFD-BF-042-026-N.jpg","img/neutralC/CFD-AF-246-242-N.jpg","img/neutralC/CFD-AF-234-208-N.jpg","1","0","1","1","0","1","0.956552700023167",NA,"0.68337790001533","1","0","1","1","0","1","1","0","1"
"250054","img/neutralC/CFD-AF-234-208-N.jpg","img/neutralC/CFD-BF-042-026-N.jpg","img/neutralC/CFD-AM-245-111-N.jpg","1","1","1","1","1","1","0.68337790001533","0.956552700023167","0.557281699992018","1","1","1","1","1","1","1","1","1"
"250054","img/neutralC/CFD-AM-245-111-N.jpg","img/neutralC/CFD-AF-234-208-N.jpg","img/neutralC/CFD-BF-206-143-N.jpg","1","1","1","1","1","1","0.557281699992018","0.68337790001533","0.812356900016312","1","1","1","1","1","1","1","1","1"
"250054","img/neutralC/CFD-BF-206-143-N.jpg","img/neutralC/CFD-AM-245-111-N.jpg","img/neutralC/CFD-BF-217-189-N.jpg","1","1","1","1","1","0","0.812356900016312","0.557281699992018","1.19598990000668","1","1","1","1","1","1","1","1","1"
"250054","img/neutralC/CFD-BF-217-189-N.jpg","img/neutralC/CFD-BF-206-143-N.jpg","img/neutralC/CFD-AM-233-236-N.jpg","1","1","1","0","1","1","1.19598990000668","0.812356900016312","0.768910099985078","1","1","1","1","1","1","1","1","1"
"250054","img/neutralC/CFD-AM-233-236-N.jpg","img/neutralC/CFD-BF-217-189-N.jpg","img/neutralC/CFD-IM-678-482-N.jpg","1","1","1","1","0","0","0.768910099985078","1.19598990000668","1.15572490001796","1","1","1","1","1","1","1","1","1"
"250054","img/neutralC/CFD-IM-678-482-N.jpg","img/neutralC/CFD-AM-233-236-N.jpg","img/neutralC/CFD-BM-215-155-N.jpg","1","1","1","0","1","0","1.15572490001796","0.768910099985078","0.775022700021509","1","1","1","1","1","1","1","1","1"
"250054","img/neutralC/CFD-BM-215-155-N.jpg","img/neutralC/CFD-IM-678-482-N.jpg","img/neutralC/CFD-IM-669-111-N.jpg","1","1","1","0","0","1","0.775022700021509","1.15572490001796","0.751148399984231","1","1","1","1","1","1","1","1","1"
"250054","img/neutralC/CFD-IM-669-111-N.jpg","img/neutralC/CFD-BM-215-155-N.jpg","img/neutralC/CFD-BF-040-003-N.jpg","1","1","1","1","0","1","0.751148399984231","0.775022700021509","0.757070299994666","1","1","1","1","1","1","1","1","1"
"250054","img/neutralC/CFD-BF-040-003-N.jpg","img/neutralC/CFD-IM-669-111-N.jpg","img/neutralC/CFD-WM-018-002-N.jpg","1","1","1","1","1","0","0.757070299994666","0.751148399984231","0.694862200005446","1","1","1","1","1","1","1","1","1"
"250054","img/neutralC/CFD-WM-018-002-N.jpg","img/neutralC/CFD-BF-040-003-N.jpg","img/neutralC/CFD-AF-244-168-N.jpg","1","1","1","0","1","0","0.694862200005446","0.757070299994666","0.728597900015302","1","1","1","1","1","1","1","1","1"
"250054","img/neutralC/CFD-AF-244-168-N.jpg","img/neutralC/CFD-WM-018-002-N.jpg","img/neutralC/CFD-IF-636-011-N.jpg","1","1","1","0","0","1","0.728597900015302","0.694862200005446","0.598117799992906","1","1","1","1","1","1","1","1","1"
"250054","img/neutralC/CFD-IF-636-011-N.jpg","img/neutralC/CFD-AF-244-168-N.jpg","img/neutralC/CFD-AM-225-102-N.jpg","1","1","1","1","0","0","0.598117799992906","0.728597900015302","1.06387310000719","1","1","1","1","1","1","1","1","1"
"250054","img/neutralC/CFD-AM-225-102-N.jpg","img/neutralC/CFD-IF-636-011-N.jpg","img/neutralC/CFD-BF-020-002-N.jpg","1","1","1","0","1","1","1.06387310000719","0.598117799992906","0.704336100025102","1","1","1","1","1","1","1","1","1"
"250054","img/neutralC/CFD-BF-020-002-N.jpg","img/neutralC/CFD-AM-225-102-N.jpg","img/neutralC/CFD-LF-239-148-N.jpg","1","1","1","1","0","0","0.704336100025102","1.06387310000719","0.607152399985353","1","1","1","1","1","1","1","1","1"
"250054","img/neutralC/CFD-LF-239-148-N.jpg","img/neutralC/CFD-BF-020-002-N.jpg","img/neutralC/CFD-WF-210-086-N.jpg","1","1","1","0","1","0","0.607152399985353","0.704336100025102","0.62989879999077","1","1","1","1","1","1","1","1","1"
"250054","img/neutralC/CFD-WF-210-086-N.jpg","img/neutralC/CFD-LF-239-148-N.jpg","img/neutralC/CFD-MF-302-027-N.jpg","1","1","1","0","0","0","0.62989879999077","0.607152399985353","0.676155499997549","1","1","1","1","1","1","1","1","1"
"250054","img/neutralC/CFD-MF-302-027-N.jpg","img/neutralC/CFD-WF-210-086-N.jpg","img/neutralC/CFD-WM-253-119-N.jpg","1","1","1","0","0","1","0.676155499997549","0.62989879999077","0.645536700001685","1","1","1","1","1","1","1","1","1"
"250054","img/neutralC/CFD-WM-253-119-N.jpg","img/neutralC/CFD-MF-302-027-N.jpg","img/neutralC/CFD-WF-235-121-N.jpg","1","1","1","1","0","0","0.645536700001685","0.676155499997549","0.755549900000915","1","1","1","1","1","1","1","1","1"
"250054","img/neutralC/CFD-WF-235-121-N.jpg","img/neutralC/CFD-WM-253-119-N.jpg","img/neutralC/CFD-BM-004-002-N.jpg","1","1","1","0","1","0","0.755549900000915","0.645536700001685","0.627405500010354","1","1","1","1","1","1","1","1","1"
"250054","img/neutralC/CFD-BM-004-002-N.jpg","img/neutralC/CFD-WF-235-121-N.jpg","img/neutralC/CFD-IM-635-010-N.jpg","1","1","1","0","0","1","0.627405500010354","0.755549900000915","0.669333800004097","1","1","1","1","1","1","1","1","1"
"250054","img/neutralC/CFD-IM-635-010-N.jpg","img/neutralC/CFD-BM-004-002-N.jpg","img/neutralC/CFD-LM-204-001-N.jpg","1","1","1","1","0","0","0.669333800004097","0.627405500010354","0.657389200001489","1","1","1","1","1","1","1","1","1"
"250054","img/neutralC/CFD-LM-204-001-N.jpg","img/neutralC/CFD-IM-635-010-N.jpg","img/neutralC/CFD-IM-632-097-N.jpg","1","1","1","0","1","0","0.657389200001489","0.669333800004097","0.732403999980306","1","1","1","1","1","1","1","1","1"
"250054","img/neutralC/CFD-IM-632-097-N.jpg","img/neutralC/CFD-LM-204-001-N.jpg","img/neutralC/CFD-AF-250-200-N.jpg","1","1","1","0","0","1","0.732403999980306","0.657389200001489","0.746313300012844","1","1","1","1","1","1","1","1","1"
"250054","img/neutralC/CFD-AF-250-200-N.jpg","img/neutralC/CFD-IM-632-097-N.jpg","img/neutralC/CFD-BF-235-168-N.jpg","1","1","1","1","0","1","0.746313300012844","0.732403999980306","0.653688299993519","1","1","1","1","1","1","1","1","1"
"250054","img/neutralC/CFD-BF-235-168-N.jpg","img/neutralC/CFD-AF-250-200-N.jpg","img/neutralC/CFD-IF-732-260-N.jpg","1","1","1","1","1","0","0.653688299993519","0.746313300012844","0.617813299992122","1","1","1","1","1","1","1","1","1"
"250054","img/neutralC/CFD-IF-732-260-N.jpg","img/neutralC/CFD-BF-235-168-N.jpg","img/neutralC/CFD-AF-213-126-N.jpg","1","1","1","0","1","1","0.617813299992122","0.653688299993519","0.745822900003986","1","1","1","1","1","1","1","1","1"
"250054","img/neutralC/CFD-AF-213-126-N.jpg","img/neutralC/CFD-IF-732-260-N.jpg","img/neutralC/CFD-LM-241-125-N.jpg","1","1","1","1","0","1","0.745822900003986","0.617813299992122","0.635840000002645","1","1","1","1","1","1","1","1","1"
"250054","img/neutralC/CFD-LM-241-125-N.jpg","img/neutralC/CFD-AF-213-126-N.jpg","img/neutralC/CFD-AF-205-155-N.jpg","1","1","1","1","1","0","0.635840000002645","0.745822900003986","0.671660599997267","1","1","1","1","1","1","1","1","1"
"250054","img/neutralC/CFD-AF-205-155-N.jpg","img/neutralC/CFD-LM-241-125-N.jpg","img/neutralC/CFD-MF-307-002-N.jpg","1","1","1","0","1","1","0.671660599997267","0.635840000002645","0.696044300013455","1","1","1","1","1","1","1","1","1"
"250054","img/neutralC/CFD-MF-307-002-N.jpg","img/neutralC/CFD-AF-205-155-N.jpg",NA,"1","1",NA,"1","0",NA,"0.696044300013455","0.671660599997267",NA,"1","1",NA,"1","1",NA,"1","1",NA
"250054","img/neutralC/CFD-MM-321-021-N.jpg",NA,"img/neutralC/CFD-WF-226-095-N.jpg","1",NA,"1","0",NA,"1","0.745735299977241",NA,"0.776027000014437","1",NA,"1","1",NA,"1","1",NA,"1"
"250054","img/neutralC/CFD-WF-226-095-N.jpg","img/neutralC/CFD-MM-321-021-N.jpg","img/neutralC/CFD-WF-018-017-N.jpg","1","1","1","1","0","1","0.776027000014437","0.745735299977241","0.556681000016397","1","1","1","1","1","1","1","1","1"
"250054","img/neutralC/CFD-WF-018-017-N.jpg","img/neutralC/CFD-WF-226-095-N.jpg","img/neutralC/CFD-WF-245-084-N.jpg","1","1","1","1","1","1","0.556681000016397","0.776027000014437","0.538559600012377","1","1","1","1","1","1","1","1","1"
"250054","img/neutralC/CFD-WF-245-084-N.jpg","img/neutralC/CFD-WF-018-017-N.jpg","img/neutralC/CFD-AM-244-222-N.jpg","1","1","1","1","1","0","0.538559600012377","0.556681000016397","0.616255400003865","1","1","1","1","1","1","1","1","1"
"250054","img/neutralC/CFD-AM-244-222-N.jpg","img/neutralC/CFD-WF-245-084-N.jpg","img/neutralC/CFD-MF-342-022-N.jpg","1","1","1","0","1","1","0.616255400003865","0.538559600012377","0.724422400002368","1","1","1","1","1","1","1","1","1"
"250054","img/neutralC/CFD-MF-342-022-N.jpg","img/neutralC/CFD-AM-244-222-N.jpg","img/neutralC/CFD-BF-018-039-N.jpg","1","1","1","1","0","1","0.724422400002368","0.616255400003865","0.608235799998511","1","1","1","1","1","1","1","1","1"
"250054","img/neutralC/CFD-BF-018-039-N.jpg","img/neutralC/CFD-MF-342-022-N.jpg","img/neutralC/CFD-WM-221-091-N.jpg","1","1","1","1","1","0","0.608235799998511","0.724422400002368","0.6181585000013","1","1","1","1","1","1","1","1","1"
"250054","img/neutralC/CFD-WM-221-091-N.jpg","img/neutralC/CFD-BF-018-039-N.jpg","img/neutralC/CFD-AF-232-078-N.jpg","1","1","1","0","1","1","0.6181585000013","0.608235799998511","0.644521299982443","1","1","1","1","1","1","1","1","1"
"250054","img/neutralC/CFD-AF-232-078-N.jpg","img/neutralC/CFD-WM-221-091-N.jpg","img/neutralC/CFD-WF-023-003-N.jpg","1","1","1","1","0","1","0.644521299982443","0.6181585000013","0.475185199989937","1","1","1","1","1","1","1","1","1"
"250054","img/neutralC/CFD-WF-023-003-N.jpg","img/neutralC/CFD-AF-232-078-N.jpg","img/neutralC/CFD-BM-204-003-N.jpg","1","1","1","1","1","0","0.475185199989937","0.644521299982443","0.675173399999039","1","1","1","1","1","1","1","1","1"
"250054","img/neutralC/CFD-BM-204-003-N.jpg","img/neutralC/CFD-WF-023-003-N.jpg","img/neutralC/CFD-MF-318-022-N.jpg","1","1","1","0","1","1","0.675173399999039","0.475185199989937","0.787552399997367","1","1","1","1","1","1","1","1","1"
"250054","img/neutralC/CFD-MF-318-022-N.jpg","img/neutralC/CFD-BM-204-003-N.jpg","img/neutralC/CFD-BF-254-201-N.jpg","1","1","1","1","0","0","0.787552399997367","0.675173399999039","0.561779499985278","1","1","1","1","1","1","1","1","1"
"250054","img/neutralC/CFD-BF-254-201-N.jpg","img/neutralC/CFD-MF-318-022-N.jpg","img/neutralC/CFD-WM-237-052-N.jpg","1","1","1","0","1","1","0.561779499985278","0.787552399997367","0.643317499983823","1","1","1","1","1","1","1","1","1"
"250054","img/neutralC/CFD-WM-237-052-N.jpg","img/neutralC/CFD-BF-254-201-N.jpg","img/neutralC/CFD-IM-719-221-N.jpg","1","1","1","1","0","0","0.643317499983823","0.561779499985278","0.55350370000815","1","1","1","1","1","1","1","1","1"
"250054","img/neutralC/CFD-IM-719-221-N.jpg","img/neutralC/CFD-WM-237-052-N.jpg","img/neutralC/CFD-WF-238-023-N.jpg","1","1","1","0","1","0","0.55350370000815","0.643317499983823","0.547963100019842","1","1","1","1","1","1","1","1","1"
"250054","img/neutralC/CFD-WF-238-023-N.jpg","img/neutralC/CFD-IM-719-221-N.jpg","img/neutralC/CFD-BM-023-029-N.jpg","1","1","1","0","0","1","0.547963100019842","0.55350370000815","0.681499500002246","1","1","1","1","1","1","1","1","1"
"250054","img/neutralC/CFD-BM-023-029-N.jpg","img/neutralC/CFD-WF-238-023-N.jpg","img/neutralC/CFD-MF-321-003-N.jpg","1","1","1","1","0","0","0.681499500002246","0.547963100019842","0.536771100014448","1","1","1","1","1","1","1","1","1"
"250054","img/neutralC/CFD-MF-321-003-N.jpg","img/neutralC/CFD-BM-023-029-N.jpg","img/neutralC/CFD-BM-200-046-N.jpg","1","1","1","0","1","0","0.536771100014448","0.681499500002246","0.562282500002766","1","1","1","1","1","1","1","1","1"
"250054","img/neutralC/CFD-BM-200-046-N.jpg","img/neutralC/CFD-MF-321-003-N.jpg","img/neutralC/CFD-WM-009-002-N.jpg","1","1","1","0","0","0","0.562282500002766","0.536771100014448","0.524150199984433","1","1","1","1","1","1","1","1","1"
"250054","img/neutralC/CFD-WM-009-002-N.jpg","img/neutralC/CFD-BM-200-046-N.jpg","img/neutralC/CFD-BF-218-207-N.jpg","1","1","1","0","0","1","0.524150199984433","0.562282500002766","0.571658400003798","1","1","1","1","1","1","1","1","1"
"250054","img/neutralC/CFD-BF-218-207-N.jpg","img/neutralC/CFD-WM-009-002-N.jpg","img/neutralC/CFD-WM-201-063-N.jpg","1","1","1","1","0","1","0.571658400003798","0.524150199984433","0.48674399999436","1","1","1","1","1","1","1","1","1"
"250054","img/neutralC/CFD-WM-201-063-N.jpg","img/neutralC/CFD-BF-218-207-N.jpg","img/neutralC/CFD-AF-221-147-N.jpg","1","1","1","1","1","0","0.48674399999436","0.571658400003798","0.477949799998896","1","1","1","1","1","1","1","1","1"
"250054","img/neutralC/CFD-AF-221-147-N.jpg","img/neutralC/CFD-WM-201-063-N.jpg","img/neutralC/CFD-WM-255-219-N.jpg","1","1","1","0","1","0","0.477949799998896","0.48674399999436","0.551800200017169","1","1","1","1","1","1","1","1","1"
"250054","img/neutralC/CFD-WM-255-219-N.jpg","img/neutralC/CFD-AF-221-147-N.jpg","img/neutralC/CFD-IM-627-178-N.jpg","1","1","1","0","0","1","0.551800200017169","0.477949799998896","0.455738499993458","1","1","1","1","1","1","1","1","1"
"250054","img/neutralC/CFD-IM-627-178-N.jpg","img/neutralC/CFD-WM-255-219-N.jpg","img/neutralC/CFD-IF-629-234-N.jpg","1","1","1","1","0","0","0.455738499993458","0.551800200017169","0.548493899987079","1","1","1","1","1","1","1","1","1"
"250054","img/neutralC/CFD-IF-629-234-N.jpg","img/neutralC/CFD-IM-627-178-N.jpg","img/neutralC/CFD-WF-027-003-N.jpg","1","1","1","0","1","1","0.548493899987079","0.455738499993458","0.518957899999805","1","1","1","1","1","1","1","1","1"
"250054","img/neutralC/CFD-WF-027-003-N.jpg","img/neutralC/CFD-IF-629-234-N.jpg","img/neutralC/CFD-LF-211-003-N.jpg","1","1","0","1","0","0","0.518957899999805","0.548493899987079","0.506382199993823","1","1","1","1","1","1","1","1","1"
"250054","img/neutralC/CFD-LF-211-003-N.jpg","img/neutralC/CFD-WF-027-003-N.jpg","img/neutralC/CFD-LM-253-075-N.jpg","0","1","1","0","1","0","0.506382199993823","0.518957899999805","0.604356800002279","1","1","1","1","1","1","1","1","1"
"250054","img/neutralC/CFD-LM-253-075-N.jpg","img/neutralC/CFD-LF-211-003-N.jpg","img/neutralC/CFD-LF-215-157-N.jpg","1","0","1","0","0","0","0.604356800002279","0.506382199993823","0.606426700018346","1","1","1","1","1","1","1","1","1"
"250054","img/neutralC/CFD-LF-215-157-N.jpg","img/neutralC/CFD-LM-253-075-N.jpg","img/neutralC/CFD-IM-700-009-N.jpg","1","1","1","0","0","1","0.606426700018346","0.604356800002279","0.529254199995194","1","1","1","1","1","1","1","1","1"
"250054","img/neutralC/CFD-IM-700-009-N.jpg","img/neutralC/CFD-LF-215-157-N.jpg","img/neutralC/CFD-WM-013-001-N.jpg","1","1","1","1","0","1","0.529254199995194","0.606426700018346","0.629117499978747","1","1","1","1","1","1","1","1","2"
"250054","img/neutralC/CFD-WM-013-001-N.jpg","img/neutralC/CFD-IM-700-009-N.jpg",NA,"1","1",NA,"1","1",NA,"0.629117499978747","0.529254199995194",NA,"1","1",NA,"1","1",NA,"2","1",NA
"250054","img/neutralC/CFD-BF-208-266-N.jpg",NA,"img/neutralC/CFD-IF-672-305-N.jpg","0",NA,"1","0",NA,"0","1.13723810002557",NA,"0.734379100002116","1",NA,"1","1",NA,"1","1",NA,"1"
"250054","img/neutralC/CFD-IF-672-305-N.jpg","img/neutralC/CFD-BF-208-266-N.jpg","img/neutralC/CFD-WM-002-009-N.jpg","1","0","1","0","0","0","0.734379100002116","1.13723810002557","0.634310299996287","1","1","1","1","1","1","1","1","1"
"250054","img/neutralC/CFD-WM-002-009-N.jpg","img/neutralC/CFD-IF-672-305-N.jpg","img/neutralC/CFD-BF-023-010-N.jpg","1","1","1","0","0","1","0.634310299996287","0.734379100002116","0.412190900009591","1","1","1","1","1","1","1","1","1"
"250054","img/neutralC/CFD-BF-023-010-N.jpg","img/neutralC/CFD-WM-002-009-N.jpg","img/neutralC/CFD-BM-247-240-N.jpg","1","1","1","1","0","0","0.412190900009591","0.634310299996287","0.461618799978169","1","1","1","1","1","1","1","1","1"
"250054","img/neutralC/CFD-BM-247-240-N.jpg","img/neutralC/CFD-BF-023-010-N.jpg","img/neutralC/CFD-WM-040-022-N.jpg","1","1","1","0","1","0","0.461618799978169","0.412190900009591","0.542412200011313","1","1","1","1","1","1","1","1","1"
"250054","img/neutralC/CFD-WM-040-022-N.jpg","img/neutralC/CFD-BM-247-240-N.jpg","img/neutralC/CFD-WM-257-161-N.jpg","1","1","1","0","0","1","0.542412200011313","0.461618799978169","0.460545200010529","1","1","1","1","1","1","1","1","1"
"250054","img/neutralC/CFD-WM-257-161-N.jpg","img/neutralC/CFD-WM-040-022-N.jpg","img/neutralC/CFD-IM-728-041-N.jpg","1","1","0","1","0","0","0.460545200010529","0.542412200011313","0.463840599986725","1","1","1","1","1","1","1","1","1"
"250054","img/neutralC/CFD-IM-728-041-N.jpg","img/neutralC/CFD-WM-257-161-N.jpg","img/neutralC/CFD-AM-215-120-N.jpg","0","1","1","0","1","1","0.463840599986725","0.460545200010529","0.571882000018377","1","1","1","1","1","1","1","1","1"
"250054","img/neutralC/CFD-AM-215-120-N.jpg","img/neutralC/CFD-IM-728-041-N.jpg","img/neutralC/CFD-IM-674-281-N.jpg","1","0","1","1","0","1","0.571882000018377","0.463840599986725","0.682956600008765","1","1","1","1","1","1","1","1","1"
"250054","img/neutralC/CFD-IM-674-281-N.jpg","img/neutralC/CFD-AM-215-120-N.jpg","img/neutralC/CFD-IF-718-001-N.jpg","1","1","1","1","1","1","0.682956600008765","0.571882000018377","0.516285099991364","1","1","1","1","1","1","1","1","1"
"250054","img/neutralC/CFD-IF-718-001-N.jpg","img/neutralC/CFD-IM-674-281-N.jpg","img/neutralC/CFD-LF-216-121-N.jpg","1","1","1","1","1","1","0.516285099991364","0.682956600008765","0.495679399988148","1","1","1","1","1","1","1","1","1"
"250054","img/neutralC/CFD-LF-216-121-N.jpg","img/neutralC/CFD-IF-718-001-N.jpg","img/neutralC/CFD-BF-204-189-N.jpg","1","1","1","1","1","1","0.495679399988148","0.516285099991364","0.54200379998656","1","1","1","1","1","1","1","1","1"
"250054","img/neutralC/CFD-BF-204-189-N.jpg","img/neutralC/CFD-LF-216-121-N.jpg","img/neutralC/CFD-AM-217-085-N.jpg","1","1","1","1","1","0","0.54200379998656","0.495679399988148","0.691123600001447","1","1","1","1","1","1","1","1","1"
"250054","img/neutralC/CFD-AM-217-085-N.jpg","img/neutralC/CFD-BF-204-189-N.jpg","img/neutralC/CFD-WF-022-017-N.jpg","1","1","1","0","1","0","0.691123600001447","0.54200379998656","0.617773900012253","1","1","1","1","1","1","1","1","1"
"250054","img/neutralC/CFD-WF-022-017-N.jpg","img/neutralC/CFD-AM-217-085-N.jpg","img/neutralC/CFD-BF-028-001-N.jpg","1","1","1","0","0","1","0.617773900012253","0.691123600001447","0.553571600001305","1","1","1","1","1","1","1","1","1"
"250054","img/neutralC/CFD-BF-028-001-N.jpg","img/neutralC/CFD-WF-022-017-N.jpg","img/neutralC/CFD-WM-225-127-N.jpg","1","1","1","1","0","0","0.553571600001305","0.617773900012253","0.59300200000871","1","1","1","1","1","1","1","1","1"
"250054","img/neutralC/CFD-WM-225-127-N.jpg","img/neutralC/CFD-BF-028-001-N.jpg","img/neutralC/CFD-BM-029-024-N.jpg","1","1","1","0","1","1","0.59300200000871","0.553571600001305","0.526803800021298","1","1","1","1","1","1","1","1","1"
"250054","img/neutralC/CFD-BM-029-024-N.jpg","img/neutralC/CFD-WM-225-127-N.jpg","img/neutralC/CFD-BM-015-015-N.jpg","1","1","1","1","0","0","0.526803800021298","0.59300200000871","0.656753499992192","1","1","1","1","1","1","1","1","1"
"250054","img/neutralC/CFD-BM-015-015-N.jpg","img/neutralC/CFD-BM-029-024-N.jpg","img/neutralC/CFD-AM-235-241-N.jpg","1","1","1","0","1","0","0.656753499992192","0.526803800021298","0.587131100008264","1","1","1","1","1","1","1","1","1"
"250054","img/neutralC/CFD-AM-235-241-N.jpg","img/neutralC/CFD-BM-015-015-N.jpg","img/neutralC/CFD-LF-236-221-N.jpg","1","1","1","0","0","1","0.587131100008264","0.656753499992192","0.508009400014998","1","1","1","1","1","1","1","1","1"
"250054","img/neutralC/CFD-LF-236-221-N.jpg","img/neutralC/CFD-AM-235-241-N.jpg","img/neutralC/CFD-LM-252-076-N.jpg","1","1","1","1","0","1","0.508009400014998","0.587131100008264","0.48746130001382","1","1","1","1","1","1","1","1","1"
"250054","img/neutralC/CFD-LM-252-076-N.jpg","img/neutralC/CFD-LF-236-221-N.jpg","img/neutralC/CFD-BM-211-174-N.jpg","1","1","1","1","1","0","0.48746130001382","0.508009400014998","0.595814100001007","1","1","1","1","1","1","1","1","1"
"250054","img/neutralC/CFD-BM-211-174-N.jpg","img/neutralC/CFD-LM-252-076-N.jpg","img/neutralC/CFD-BF-201-080-N.jpg","1","1","1","0","1","1","0.595814100001007","0.48746130001382","0.473017899988918","1","1","1","1","1","1","1","1","1"
"250054","img/neutralC/CFD-BF-201-080-N.jpg","img/neutralC/CFD-BM-211-174-N.jpg","img/neutralC/CFD-BF-255-140-N.jpg","1","1","1","1","0","1","0.473017899988918","0.595814100001007","0.802787799999351","1","1","1","1","1","1","1","1","1"
"250054","img/neutralC/CFD-BF-255-140-N.jpg","img/neutralC/CFD-BF-201-080-N.jpg","img/neutralC/CFD-BM-027-001-N.jpg","1","1","1","1","1","0","0.802787799999351","0.473017899988918","0.638244100002339","1","1","1","1","1","1","1","1","1"
"250054","img/neutralC/CFD-BM-027-001-N.jpg","img/neutralC/CFD-BF-255-140-N.jpg","img/neutralC/CFD-BF-003-003-N.jpg","1","1","1","0","1","0","0.638244100002339","0.802787799999351","0.536541599984048","1","1","1","1","1","1","1","1","1"
"250054","img/neutralC/CFD-BF-003-003-N.jpg","img/neutralC/CFD-BM-027-001-N.jpg","img/neutralC/CFD-IM-639-263-N.jpg","1","1","1","0","0","1","0.536541599984048","0.638244100002339","0.597723599988967","1","1","1","1","1","1","1","1","1"
"250054","img/neutralC/CFD-IM-639-263-N.jpg","img/neutralC/CFD-BF-003-003-N.jpg","img/neutralC/CFD-MM-319-052-N.jpg","1","1","1","1","0","1","0.597723599988967","0.536541599984048","0.50755699997535","1","1","1","1","1","1","1","1","1"
"250054","img/neutralC/CFD-MM-319-052-N.jpg","img/neutralC/CFD-IM-639-263-N.jpg","img/neutralC/CFD-WF-026-002-N.jpg","1","1","1","1","1","1","0.50755699997535","0.597723599988967","0.47655069999746","1","1","1","1","1","1","1","1","1"
"250054","img/neutralC/CFD-WF-026-002-N.jpg","img/neutralC/CFD-MM-319-052-N.jpg","img/neutralC/CFD-WM-038-003-N.jpg","1","1","1","1","1","0","0.47655069999746","0.50755699997535","0.603518699994311","1","1","1","1","1","1","1","1","1"
"250054","img/neutralC/CFD-WM-038-003-N.jpg","img/neutralC/CFD-WF-026-002-N.jpg","img/neutralC/CFD-WF-002-004-N.jpg","1","1","1","0","1","0","0.603518699994311","0.47655069999746","0.508036599989282","1","1","1","1","1","1","1","1","1"
"250054","img/neutralC/CFD-WF-002-004-N.jpg","img/neutralC/CFD-WM-038-003-N.jpg",NA,"1","1",NA,"0","0",NA,"0.508036599989282","0.603518699994311",NA,"1","1",NA,"1","1",NA,"1","1",NA
"250054","img/neutralC/CFD-MF-312-002-N.jpg",NA,"img/neutralC/CFD-LF-208-127-N.jpg","1",NA,"1","1",NA,"0","1.83543489998556",NA,"0.755257999990135","1",NA,"1","1",NA,"1","1",NA,"1"
"250054","img/neutralC/CFD-LF-208-127-N.jpg","img/neutralC/CFD-MF-312-002-N.jpg","img/neutralC/CFD-IM-701-312-N.jpg","1","1","1","0","1","0","0.755257999990135","1.83543489998556","0.62429659999907","1","1","1","1","1","1","1","1","1"
"250054","img/neutralC/CFD-IM-701-312-N.jpg","img/neutralC/CFD-LF-208-127-N.jpg","img/neutralC/CFD-AM-221-184-N.jpg","1","1","1","0","0","1","0.62429659999907","0.755257999990135","0.61816430001636","1","1","1","1","1","1","1","1","1"
"250054","img/neutralC/CFD-AM-221-184-N.jpg","img/neutralC/CFD-IM-701-312-N.jpg","img/neutralC/CFD-BM-013-002-N.jpg","1","1","1","1","0","1","0.61816430001636","0.62429659999907","0.528728800010867","1","1","1","1","1","1","1","1","1"
"250054","img/neutralC/CFD-BM-013-002-N.jpg","img/neutralC/CFD-AM-221-184-N.jpg","img/neutralC/CFD-BM-213-134-N.jpg","1","1","1","1","1","1","0.528728800010867","0.61816430001636","0.580278800014639","1","1","1","1","1","1","1","1","1"
"250054","img/neutralC/CFD-BM-213-134-N.jpg","img/neutralC/CFD-BM-013-002-N.jpg","img/neutralC/CFD-IF-673-389-N.jpg","1","1","1","1","1","0","0.580278800014639","0.528728800010867","0.59952930000145","1","1","1","1","1","1","1","1","1"
"250054","img/neutralC/CFD-IF-673-389-N.jpg","img/neutralC/CFD-BM-213-134-N.jpg","img/neutralC/CFD-WM-228-065-N.jpg","1","1","1","0","1","0","0.59952930000145","0.580278800014639","0.551327099994523","1","1","1","1","1","1","1","1","1"
"250054","img/neutralC/CFD-WM-228-065-N.jpg","img/neutralC/CFD-IF-673-389-N.jpg","img/neutralC/CFD-IF-744-114-N.jpg","1","1","1","0","0","0","0.551327099994523","0.59952930000145","0.548666399990907","1","1","1","1","1","1","1","1","1"
"250054","img/neutralC/CFD-IF-744-114-N.jpg","img/neutralC/CFD-WM-228-065-N.jpg","img/neutralC/CFD-WF-223-133-N.jpg","1","1","1","0","0","0","0.548666399990907","0.551327099994523","0.927234800008591","1","1","1","1","1","1","1","1","1"
"250054","img/neutralC/CFD-WF-223-133-N.jpg","img/neutralC/CFD-IF-744-114-N.jpg","img/neutralC/CFD-BF-222-240-N.jpg","1","1","1","0","0","0","0.927234800008591","0.548666399990907","0.50158390001161","1","1","1","1","1","1","1","1","1"
"250054","img/neutralC/CFD-BF-222-240-N.jpg","img/neutralC/CFD-WF-223-133-N.jpg","img/neutralC/CFD-IM-738-191-N.jpg","1","1","1","0","0","0","0.50158390001161","0.927234800008591","0.624509599991143","1","1","1","1","1","1","1","1","1"
"250054","img/neutralC/CFD-IM-738-191-N.jpg","img/neutralC/CFD-BF-222-240-N.jpg","img/neutralC/CFD-MF-336-016-N.jpg","1","1","1","0","0","1","0.624509599991143","0.50158390001161","0.49572849998367","1","1","1","1","1","1","1","1","1"
"250054","img/neutralC/CFD-MF-336-016-N.jpg","img/neutralC/CFD-IM-738-191-N.jpg","img/neutralC/CFD-AF-210-050-N.jpg","1","1","1","1","0","1","0.49572849998367","0.624509599991143","0.530601800011937","1","1","1","1","1","1","1","1","1"
"250054","img/neutralC/CFD-AF-210-050-N.jpg","img/neutralC/CFD-MF-336-016-N.jpg","img/neutralC/CFD-AF-227-207-N.jpg","1","1","1","1","1","1","0.530601800011937","0.49572849998367","0.482276199996704","1","1","1","1","1","1","1","1","1"
"250054","img/neutralC/CFD-AF-227-207-N.jpg","img/neutralC/CFD-AF-210-050-N.jpg","img/neutralC/CFD-WF-006-002-N.jpg","1","1","1","1","1","0","0.482276199996704","0.530601800011937","0.600517699989723","1","1","1","1","1","1","1","1","1"
"250054","img/neutralC/CFD-WF-006-002-N.jpg","img/neutralC/CFD-AF-227-207-N.jpg","img/neutralC/CFD-IF-625-225-N.jpg","1","1","1","0","1","0","0.600517699989723","0.482276199996704","0.579265000007581","1","1","1","1","1","1","1","1","1"
"250054","img/neutralC/CFD-IF-625-225-N.jpg","img/neutralC/CFD-WF-006-002-N.jpg","img/neutralC/CFD-IM-659-359-N.jpg","1","1","1","0","0","0","0.579265000007581","0.600517699989723","0.552122900000541","1","1","1","1","1","1","1","1","1"
"250054","img/neutralC/CFD-IM-659-359-N.jpg","img/neutralC/CFD-IF-625-225-N.jpg","img/neutralC/CFD-BF-045-003-N.jpg","1","1","1","0","0","0","0.552122900000541","0.579265000007581","0.632573399983812","1","1","1","1","1","1","1","1","1"
"250054","img/neutralC/CFD-BF-045-003-N.jpg","img/neutralC/CFD-IM-659-359-N.jpg","img/neutralC/CFD-BM-010-003-N.jpg","1","1","1","0","0","0","0.632573399983812","0.552122900000541","0.577286399988225","1","1","1","1","1","1","1","1","1"
"250054","img/neutralC/CFD-BM-010-003-N.jpg","img/neutralC/CFD-BF-045-003-N.jpg","img/neutralC/CFD-WF-033-002-N.jpg","1","1","1","0","0","1","0.577286399988225","0.632573399983812","0.50099929998396","1","1","1","1","1","1","1","1","1"
"250054","img/neutralC/CFD-WF-033-002-N.jpg","img/neutralC/CFD-BM-010-003-N.jpg","img/neutralC/CFD-WM-254-152-N.jpg","1","1","1","1","0","1","0.50099929998396","0.577286399988225","0.689827399997739","1","1","1","1","1","1","1","1","1"
"250054","img/neutralC/CFD-WM-254-152-N.jpg","img/neutralC/CFD-WF-033-002-N.jpg","img/neutralC/CFD-LF-225-164-N.jpg","1","1","1","1","1","1","0.689827399997739","0.50099929998396","0.501214699994307","1","1","1","1","1","1","1","1","1"
"250054","img/neutralC/CFD-LF-225-164-N.jpg","img/neutralC/CFD-WM-254-152-N.jpg","img/neutralC/CFD-BM-003-003-N.jpg","1","1","1","1","1","0","0.501214699994307","0.689827399997739","0.44335330001195","1","1","1","1","1","1","1","1","1"
"250054","img/neutralC/CFD-BM-003-003-N.jpg","img/neutralC/CFD-LF-225-164-N.jpg","img/neutralC/CFD-LM-238-129-N.jpg","1","1","1","0","1","1","0.44335330001195","0.501214699994307","0.417327200004365","1","1","1","1","1","1","1","1","1"
"250054","img/neutralC/CFD-LM-238-129-N.jpg","img/neutralC/CFD-BM-003-003-N.jpg","img/neutralC/CFD-AF-239-171-N.jpg","1","1","1","1","0","1","0.417327200004365","0.44335330001195","0.444352699996671","1","1","1","1","1","1","1","1","1"
"250054","img/neutralC/CFD-AF-239-171-N.jpg","img/neutralC/CFD-LM-238-129-N.jpg","img/neutralC/CFD-WM-202-107-N.jpg","1","1","1","1","1","1","0.444352699996671","0.417327200004365","0.480000999988988","1","1","1","1","1","1","1","1","1"
"250054","img/neutralC/CFD-WM-202-107-N.jpg","img/neutralC/CFD-AF-239-171-N.jpg","img/neutralC/CFD-LF-210-220-N.jpg","1","1","1","1","1","1","0.480000999988988","0.444352699996671","0.412641000002623","1","1","1","1","1","1","1","1","1"
"250054","img/neutralC/CFD-LF-210-220-N.jpg","img/neutralC/CFD-WM-202-107-N.jpg","img/neutralC/CFD-LM-247-095-N.jpg","1","1","1","1","1","0","0.412641000002623","0.480000999988988","0.642417399998521","1","1","1","1","1","1","1","1","1"
"250054","img/neutralC/CFD-LM-247-095-N.jpg","img/neutralC/CFD-LF-210-220-N.jpg","img/neutralC/CFD-BM-028-002-N.jpg","1","1","1","0","1","1","0.642417399998521","0.412641000002623","0.480704500019783","1","1","1","1","1","1","1","1","1"
"250054","img/neutralC/CFD-BM-028-002-N.jpg","img/neutralC/CFD-LM-247-095-N.jpg","img/neutralC/CFD-LF-241-188-N.jpg","1","1","1","1","0","0","0.480704500019783","0.642417399998521","0.516823499987368","1","1","1","1","1","1","1","1","1"
"250054","img/neutralC/CFD-LF-241-188-N.jpg","img/neutralC/CFD-BM-028-002-N.jpg","img/neutralC/CFD-BF-004-014-N.jpg","1","1","1","0","1","1","0.516823499987368","0.480704500019783","0.481823599984636","1","1","1","1","1","1","1","1","1"
"250054","img/neutralC/CFD-BF-004-014-N.jpg","img/neutralC/CFD-LF-241-188-N.jpg",NA,"1","1",NA,"1","0",NA,"0.481823599984636","0.516823499987368",NA,"1","1",NA,"1","1",NA,"1","1",NA
"250054","img/neutralC/CFD-LF-255-088-N.jpg",NA,"img/neutralC/CFD-WF-007-001-N.jpg","0",NA,"1","0",NA,"1","1.22837619998609",NA,"0.525555700005498","1",NA,"1","1",NA,"1","1",NA,"1"
"250054","img/neutralC/CFD-WF-007-001-N.jpg","img/neutralC/CFD-LF-255-088-N.jpg","img/neutralC/CFD-MF-343-001-N.jpg","1","0","1","1","0","1","0.525555700005498","1.22837619998609","0.430074600008084","1","1","1","1","1","1","1","1","1"
"250054","img/neutralC/CFD-MF-343-001-N.jpg","img/neutralC/CFD-WF-007-001-N.jpg","img/neutralC/CFD-IM-706-002-N.jpg","1","1","1","1","1","0","0.430074600008084","0.525555700005498","0.562418500019703","1","1","1","1","1","1","1","1","1"
"250054","img/neutralC/CFD-IM-706-002-N.jpg","img/neutralC/CFD-MF-343-001-N.jpg","img/neutralC/CFD-BF-237-172-N.jpg","1","1","1","0","1","1","0.562418500019703","0.430074600008084","0.462389799999073","1","1","1","1","1","1","1","1","1"
"250054","img/neutralC/CFD-BF-237-172-N.jpg","img/neutralC/CFD-IM-706-002-N.jpg","img/neutralC/CFD-LM-225-130-N.jpg","1","1","1","1","0","0","0.462389799999073","0.562418500019703","0.568792000005487","1","1","1","1","1","1","1","1","1"
"250054","img/neutralC/CFD-LM-225-130-N.jpg","img/neutralC/CFD-BF-237-172-N.jpg","img/neutralC/CFD-AM-220-134-N.jpg","1","1","1","0","1","0","0.568792000005487","0.462389799999073","0.535594699991634","1","1","1","1","1","1","1","1","1"
"250054","img/neutralC/CFD-AM-220-134-N.jpg","img/neutralC/CFD-LM-225-130-N.jpg","img/neutralC/CFD-BM-250-170-N.jpg","1","1","1","0","0","1","0.535594699991634","0.568792000005487","0.433631899999455","1","1","1","1","1","1","1","1","1"
"250054","img/neutralC/CFD-BM-250-170-N.jpg","img/neutralC/CFD-AM-220-134-N.jpg","img/neutralC/CFD-IM-667-369-N.jpg","1","1","1","1","0","0","0.433631899999455","0.535594699991634","0.57997510000132","1","1","1","1","1","1","1","1","1"
"250054","img/neutralC/CFD-IM-667-369-N.jpg","img/neutralC/CFD-BM-250-170-N.jpg","img/neutralC/CFD-MF-316-001-N.jpg","1","1","1","0","1","0","0.57997510000132","0.433631899999455","0.561758399999235","1","1","1","1","1","1","1","1","1"
"250054","img/neutralC/CFD-MF-316-001-N.jpg","img/neutralC/CFD-IM-667-369-N.jpg","img/neutralC/CFD-IF-660-464-N.jpg","1","1","1","0","0","0","0.561758399999235","0.57997510000132","0.567563699994935","1","1","1","1","1","1","1","1","1"
"250054","img/neutralC/CFD-IF-660-464-N.jpg","img/neutralC/CFD-MF-316-001-N.jpg","img/neutralC/CFD-BF-014-002-N.jpg","1","1","1","0","0","1","0.567563699994935","0.561758399999235","0.465088800003287","1","1","1","1","1","1","1","1","1"
"250054","img/neutralC/CFD-BF-014-002-N.jpg","img/neutralC/CFD-IF-660-464-N.jpg","img/neutralC/CFD-LM-200-045-N.jpg","1","1","1","1","0","1","0.465088800003287","0.567563699994935","0.471153600024991","1","1","1","1","1","1","1","1","1"
"250054","img/neutralC/CFD-LM-200-045-N.jpg","img/neutralC/CFD-BF-014-002-N.jpg","img/neutralC/CFD-WF-030-002-N.jpg","1","1","1","1","1","0","0.471153600024991","0.465088800003287","0.512383299996145","1","1","1","1","1","1","1","1","1"
"250054","img/neutralC/CFD-WF-030-002-N.jpg","img/neutralC/CFD-LM-200-045-N.jpg","img/neutralC/CFD-WM-218-074-N.jpg","1","1","1","0","1","1","0.512383299996145","0.471153600024991","0.471630100015318","1","1","1","1","1","1","1","1","1"
"250054","img/neutralC/CFD-WM-218-074-N.jpg","img/neutralC/CFD-WF-030-002-N.jpg","img/neutralC/CFD-BM-001-014-N.jpg","1","1","1","1","0","0","0.471630100015318","0.512383299996145","0.527080800005933","1","1","1","1","1","1","1","1","1"
"250054","img/neutralC/CFD-BM-001-014-N.jpg","img/neutralC/CFD-WM-218-074-N.jpg","img/neutralC/CFD-BM-217-082-N.jpg","1","1","1","0","1","0","0.527080800005933","0.471630100015318","0.649611500004539","1","1","1","1","1","1","1","1","1"
"250054","img/neutralC/CFD-BM-217-082-N.jpg","img/neutralC/CFD-BM-001-014-N.jpg","img/neutralC/CFD-MF-303-013-N.jpg","1","1","1","0","0","0","0.649611500004539","0.527080800005933","0.651494199992158","1","1","1","1","1","1","1","1","1"
"250054","img/neutralC/CFD-MF-303-013-N.jpg","img/neutralC/CFD-BM-217-082-N.jpg","img/neutralC/CFD-IM-702-101-N.jpg","1","1","1","0","0","1","0.651494199992158","0.649611500004539","0.502488900005119","1","1","1","1","1","1","1","1","1"
"250054","img/neutralC/CFD-IM-702-101-N.jpg","img/neutralC/CFD-MF-303-013-N.jpg","img/neutralC/CFD-MM-324-069-N.jpg","1","1","1","1","0","1","0.502488900005119","0.651494199992158","0.618367099988973","1","1","1","1","1","1","1","1","1"
"250054","img/neutralC/CFD-MM-324-069-N.jpg","img/neutralC/CFD-IM-702-101-N.jpg","img/neutralC/CFD-AF-233-190-N.jpg","1","1","0","1","1","0","0.618367099988973","0.502488900005119","0.77753870000015","1","1","1","1","1","1","1","1","1"
"250054","img/neutralC/CFD-AF-233-190-N.jpg","img/neutralC/CFD-MM-324-069-N.jpg","img/neutralC/CFD-MF-305-014-N.jpg","0","1","1","0","1","1","0.77753870000015","0.618367099988973","0.493241400021361","1","1","1","1","1","1","1","1","1"
"250054","img/neutralC/CFD-MF-305-014-N.jpg","img/neutralC/CFD-AF-233-190-N.jpg","img/neutralC/CFD-MF-357-002-N.jpg","1","0","0","1","0","0","0.493241400021361","0.77753870000015","0.468773999979021","1","1","1","1","1","1","1","1","1"
"250054","img/neutralC/CFD-MF-357-002-N.jpg","img/neutralC/CFD-MF-305-014-N.jpg","img/neutralC/CFD-WM-015-002-N.jpg","0","1","1","0","1","0","0.468773999979021","0.493241400021361","0.559279400011292","1","1","1","1","1","1","1","1","1"
"250054","img/neutralC/CFD-WM-015-002-N.jpg","img/neutralC/CFD-MF-357-002-N.jpg","img/neutralC/CFD-WM-209-038-N.jpg","1","0","1","0","0","0","0.559279400011292","0.468773999979021","0.513287600013427","1","1","1","1","1","1","1","1","1"
"250054","img/neutralC/CFD-WM-209-038-N.jpg","img/neutralC/CFD-WM-015-002-N.jpg","img/neutralC/CFD-IM-680-369-N.jpg","1","1","1","0","0","1","0.513287600013427","0.559279400011292","0.599307800002862","1","1","1","1","1","1","1","1","1"
"250054","img/neutralC/CFD-IM-680-369-N.jpg","img/neutralC/CFD-WM-209-038-N.jpg","img/neutralC/CFD-AF-253-130-N.jpg","1","1","1","1","0","1","0.599307800002862","0.513287600013427","0.520063500007382","1","1","1","1","1","1","1","1","1"
"250054","img/neutralC/CFD-AF-253-130-N.jpg","img/neutralC/CFD-IM-680-369-N.jpg","img/neutralC/CFD-WF-222-092-N.jpg","1","1","1","1","1","1","0.520063500007382","0.599307800002862","0.636795699974755","1","1","1","1","1","1","1","1","1"
"250054","img/neutralC/CFD-WF-222-092-N.jpg","img/neutralC/CFD-AF-253-130-N.jpg","img/neutralC/CFD-WF-244-163-N.jpg","1","1","1","1","1","1","0.636795699974755","0.520063500007382","0.53673229998094","1","1","1","1","1","1","1","1","1"
"250054","img/neutralC/CFD-WF-244-163-N.jpg","img/neutralC/CFD-WF-222-092-N.jpg","img/neutralC/CFD-IM-664-651-N.jpg","1","1","1","1","1","1","0.53673229998094","0.636795699974755","0.527816999994684","1","1","1","1","1","1","1","1","1"
"250054","img/neutralC/CFD-IM-664-651-N.jpg","img/neutralC/CFD-WF-244-163-N.jpg","img/neutralC/CFD-LF-206-078-N.jpg","1","1","1","1","1","1","0.527816999994684","0.53673229998094","0.545704599993769","1","1","1","1","1","1","1","1","1"
"250054","img/neutralC/CFD-LF-206-078-N.jpg","img/neutralC/CFD-IM-664-651-N.jpg","img/neutralC/CFD-IF-626-375-N.jpg","1","1","1","1","1","0","0.545704599993769","0.527816999994684","0.530304900021292","1","1","1","1","1","1","1","1","1"
"250054","img/neutralC/CFD-IF-626-375-N.jpg","img/neutralC/CFD-LF-206-078-N.jpg",NA,"1","1",NA,"0","1",NA,"0.530304900021292","0.545704599993769",NA,"1","1",NA,"1","1",NA,"1","1",NA
"250054","img/neutralC/CFD-IF-650-315-N.jpg",NA,"img/neutralC/CFD-WF-036-023-N.jpg","1",NA,"1","0",NA,"0","1.25860939998529",NA,"0.659765799995512","1",NA,"1","1",NA,"1","1",NA,"1"
"250054","img/neutralC/CFD-WF-036-023-N.jpg","img/neutralC/CFD-IF-650-315-N.jpg","img/neutralC/CFD-BF-226-119-N.jpg","1","1","1","0","0","1","0.659765799995512","1.25860939998529","0.386265499982983","1","1","1","1","1","1","1","1","1"
"250054","img/neutralC/CFD-BF-226-119-N.jpg","img/neutralC/CFD-WF-036-023-N.jpg","img/neutralC/CFD-BF-038-037-N.jpg","1","1","1","1","0","1","0.386265499982983","0.659765799995512","0.484257700009039","1","1","1","1","1","1","1","1","1"
"250054","img/neutralC/CFD-BF-038-037-N.jpg","img/neutralC/CFD-BF-226-119-N.jpg","img/neutralC/CFD-LF-218-072-N.jpg","1","1","1","1","1","0","0.484257700009039","0.386265499982983","0.503534699993907","1","1","1","1","1","1","1","1","1"
"250054","img/neutralC/CFD-LF-218-072-N.jpg","img/neutralC/CFD-BF-038-037-N.jpg","img/neutralC/CFD-WF-001-003-N.jpg","1","1","1","0","1","1","0.503534699993907","0.484257700009039","0.443903699982911","1","1","1","1","1","1","1","1","1"
"250054","img/neutralC/CFD-WF-001-003-N.jpg","img/neutralC/CFD-LF-218-072-N.jpg","img/neutralC/CFD-LF-220-120-N.jpg","1","1","1","1","0","1","0.443903699982911","0.503534699993907","0.573288500017952","1","1","1","1","1","1","1","1","1"
"250054","img/neutralC/CFD-LF-220-120-N.jpg","img/neutralC/CFD-WF-001-003-N.jpg","img/neutralC/CFD-AM-242-176-N.jpg","1","1","1","1","1","1","0.573288500017952","0.443903699982911","0.421522799995728","1","1","1","1","1","1","1","1","1"
"250054","img/neutralC/CFD-AM-242-176-N.jpg","img/neutralC/CFD-LF-220-120-N.jpg","img/neutralC/CFD-LM-228-188-N.jpg","1","1","1","1","1","1","0.421522799995728","0.573288500017952","0.475302799983183","1","1","1","1","1","1","1","1","1"
"250054","img/neutralC/CFD-LM-228-188-N.jpg","img/neutralC/CFD-AM-242-176-N.jpg","img/neutralC/CFD-MF-352-054-N.jpg","1","1","1","1","1","0","0.475302799983183","0.421522799995728","0.551133800006937","1","1","1","1","1","1","1","1","1"
"250054","img/neutralC/CFD-MF-352-054-N.jpg","img/neutralC/CFD-LM-228-188-N.jpg","img/neutralC/CFD-BM-253-004-N.jpg","1","1","1","0","1","1","0.551133800006937","0.475302799983183","0.49472639997839","1","1","1","1","1","1","1","1","1"
"250054","img/neutralC/CFD-BM-253-004-N.jpg","img/neutralC/CFD-MF-352-054-N.jpg","img/neutralC/CFD-BF-229-179-N.jpg","1","1","1","1","0","0","0.49472639997839","0.551133800006937","0.648127599997679","1","1","1","1","1","1","1","1","1"
"250054","img/neutralC/CFD-BF-229-179-N.jpg","img/neutralC/CFD-BM-253-004-N.jpg","img/neutralC/CFD-MF-333-012-N.jpg","1","1","1","0","1","0","0.648127599997679","0.49472639997839","0.651501399988774","1","1","1","1","1","1","1","1","1"
"250054","img/neutralC/CFD-MF-333-012-N.jpg","img/neutralC/CFD-BF-229-179-N.jpg","img/neutralC/CFD-BF-232-187-N.jpg","1","1","1","0","0","1","0.651501399988774","0.648127599997679","0.482922799972584","1","1","1","1","1","1","1","1","1"
"250054","img/neutralC/CFD-BF-232-187-N.jpg","img/neutralC/CFD-MF-333-012-N.jpg","img/neutralC/CFD-WM-004-010-N.jpg","1","1","1","1","0","0","0.482922799972584","0.651501399988774","0.58075719999033","1","1","1","1","1","1","1","1","1"
"250054","img/neutralC/CFD-WM-004-010-N.jpg","img/neutralC/CFD-BF-232-187-N.jpg","img/neutralC/CFD-WM-033-025-N.jpg","1","1","1","0","1","1","0.58075719999033","0.482922799972584","0.557777200010605","1","1","1","1","1","1","1","1","1"
"250054","img/neutralC/CFD-WM-033-025-N.jpg","img/neutralC/CFD-WM-004-010-N.jpg","img/neutralC/CFD-IF-623-129-N.jpg","1","1","1","1","0","1","0.557777200010605","0.58075719999033","0.496163000003435","1","1","1","1","1","1","1","1","1"
"250054","img/neutralC/CFD-IF-623-129-N.jpg","img/neutralC/CFD-WM-033-025-N.jpg","img/neutralC/CFD-LM-237-264-N.jpg","1","1","1","1","1","0","0.496163000003435","0.557777200010605","0.64420079998672","1","1","1","1","1","1","1","1","1"
"250054","img/neutralC/CFD-LM-237-264-N.jpg","img/neutralC/CFD-IF-623-129-N.jpg","img/neutralC/CFD-MF-359-019-N.jpg","1","1","1","0","1","0","0.64420079998672","0.496163000003435","0.469117800006643","1","1","1","1","1","1","1","1","1"
"250054","img/neutralC/CFD-MF-359-019-N.jpg","img/neutralC/CFD-LM-237-264-N.jpg","img/neutralC/CFD-WM-020-001-N.jpg","1","1","1","0","0","1","0.469117800006643","0.64420079998672","0.480092599987984","1","1","1","1","1","1","1","1","1"
"250054","img/neutralC/CFD-WM-020-001-N.jpg","img/neutralC/CFD-MF-359-019-N.jpg","img/neutralC/CFD-WF-214-122-N.jpg","1","1","1","1","0","1","0.480092599987984","0.469117800006643","0.418334899994079","1","1","1","1","1","1","1","1","1"
"250054","img/neutralC/CFD-WF-214-122-N.jpg","img/neutralC/CFD-WM-020-001-N.jpg","img/neutralC/CFD-IM-645-001-N.jpg","1","1","1","1","1","0","0.418334899994079","0.480092599987984","0.547028600005433","1","1","1","1","1","1","1","1","1"
"250054","img/neutralC/CFD-IM-645-001-N.jpg","img/neutralC/CFD-WF-214-122-N.jpg","img/neutralC/CFD-IM-703-182-N.jpg","1","1","1","0","1","1","0.547028600005433","0.418334899994079","0.381692800001474","1","1","1","1","1","1","1","1","1"
"250054","img/neutralC/CFD-IM-703-182-N.jpg","img/neutralC/CFD-IM-645-001-N.jpg","img/neutralC/CFD-IM-671-601-N.jpg","1","1","1","1","0","0","0.381692800001474","0.547028600005433","0.551217700005509","1","1","1","1","1","1","1","1","1"
"250054","img/neutralC/CFD-IM-671-601-N.jpg","img/neutralC/CFD-IM-703-182-N.jpg","img/neutralC/CFD-IM-743-006-N.jpg","1","1","1","0","1","1","0.551217700005509","0.381692800001474","0.487627499969676","1","1","1","1","1","1","1","1","1"
"250054","img/neutralC/CFD-IM-743-006-N.jpg","img/neutralC/CFD-IM-671-601-N.jpg","img/neutralC/CFD-AM-211-052-N.jpg","1","1","1","1","0","1","0.487627499969676","0.551217700005509","0.392219000001205","1","1","1","1","1","1","1","1","1"
"250054","img/neutralC/CFD-AM-211-052-N.jpg","img/neutralC/CFD-IM-743-006-N.jpg","img/neutralC/CFD-WF-200-099-N.jpg","1","1","0","1","1","0","0.392219000001205","0.487627499969676","0.428584600012982","1","1","1","1","1","1","1","1","1"
"250054","img/neutralC/CFD-WF-200-099-N.jpg","img/neutralC/CFD-AM-211-052-N.jpg","img/neutralC/CFD-BM-225-154-N.jpg","0","1","1","0","1","1","0.428584600012982","0.392219000001205","0.411004599998705","1","1","1","1","1","1","1","1","1"
"250054","img/neutralC/CFD-BM-225-154-N.jpg","img/neutralC/CFD-WF-200-099-N.jpg","img/neutralC/CFD-WM-235-147-N.jpg","1","0","1","1","0","0","0.411004599998705","0.428584600012982","0.575977400003467","1","1","1","1","1","1","1","1","1"
"250054","img/neutralC/CFD-WM-235-147-N.jpg","img/neutralC/CFD-BM-225-154-N.jpg","img/neutralC/CFD-WM-219-008-N.jpg","1","1","1","0","1","0","0.575977400003467","0.411004599998705","0.550407000002451","1","1","1","1","1","1","1","1","1"
"250054","img/neutralC/CFD-WM-219-008-N.jpg","img/neutralC/CFD-WM-235-147-N.jpg","img/neutralC/CFD-IM-616-214-N.jpg","1","1","1","0","0","0","0.550407000002451","0.575977400003467","0.646482499985723","1","1","1","1","1","1","1","1","1"
"250054","img/neutralC/CFD-IM-616-214-N.jpg","img/neutralC/CFD-WM-219-008-N.jpg","img/neutralC/CFD-AM-251-124-N.jpg","1","1","1","0","0","0","0.646482499985723","0.550407000002451","0.507207599992398","1","1","1","1","1","1","1","1","1"
"250054","img/neutralC/CFD-AM-251-124-N.jpg","img/neutralC/CFD-IM-616-214-N.jpg",NA,"1","1",NA,"0","0",NA,"0.507207599992398","0.646482499985723",NA,"1","1",NA,"1","1",NA,"1","1",NA
"250054","img/neutralC/CFD-WM-023-001-N.jpg",NA,"img/neutralC/CFD-WF-009-001-N.jpg","0",NA,"1","0",NA,"1","0.873347999993712",NA,"0.551227299991297","1",NA,"1","1",NA,"1","1",NA,"1"
"250054","img/neutralC/CFD-WF-009-001-N.jpg","img/neutralC/CFD-WM-023-001-N.jpg","img/neutralC/CFD-IM-689-263-N.jpg","1","0","1","1","0","1","0.551227299991297","0.873347999993712","0.534123699995689","1","1","1","1","1","1","1","1","1"
"250054","img/neutralC/CFD-IM-689-263-N.jpg","img/neutralC/CFD-WF-009-001-N.jpg","img/neutralC/CFD-AM-243-212-N.jpg","1","1","1","1","1","1","0.534123699995689","0.551227299991297","0.446343199990224","1","1","1","1","1","1","1","1","1"
"250054","img/neutralC/CFD-AM-243-212-N.jpg","img/neutralC/CFD-IM-689-263-N.jpg","img/neutralC/CFD-IM-606-008-N.jpg","1","1","0","1","1","0","0.446343199990224","0.534123699995689","0.472198799980106","1","1","1","1","1","1","1","1","1"
"250054","img/neutralC/CFD-IM-606-008-N.jpg","img/neutralC/CFD-AM-243-212-N.jpg","img/neutralC/CFD-LF-238-154-N.jpg","0","1","1","0","1","1","0.472198799980106","0.446343199990224","0.490072499989765","1","1","1","1","1","1","1","1","1"
"250054","img/neutralC/CFD-LF-238-154-N.jpg","img/neutralC/CFD-IM-606-008-N.jpg","img/neutralC/CFD-AM-205-153-N.jpg","1","0","1","1","0","1","0.490072499989765","0.472198799980106","0.520908699982101","1","1","1","1","1","1","1","1","1"
"250054","img/neutralC/CFD-AM-205-153-N.jpg","img/neutralC/CFD-LF-238-154-N.jpg","img/neutralC/CFD-LM-240-013-N.jpg","1","1","1","1","1","1","0.520908699982101","0.490072499989765","0.450617800001055","1","1","1","1","1","1","1","1","1"
"250054","img/neutralC/CFD-LM-240-013-N.jpg","img/neutralC/CFD-AM-205-153-N.jpg","img/neutralC/CFD-LF-222-147-N.jpg","1","1","1","1","1","0","0.450617800001055","0.520908699982101","0.566043099970557","1","1","1","1","1","1","1","1","1"
"250054","img/neutralC/CFD-LF-222-147-N.jpg","img/neutralC/CFD-LM-240-013-N.jpg","img/neutralC/CFD-BM-227-191-N.jpg","1","1","1","0","1","1","0.566043099970557","0.450617800001055","0.531562000018312","1","1","1","1","1","1","1","1","1"
"250054","img/neutralC/CFD-BM-227-191-N.jpg","img/neutralC/CFD-LF-222-147-N.jpg","img/neutralC/CFD-WF-241-210-N.jpg","1","1","1","1","0","0","0.531562000018312","0.566043099970557","0.624637200002326","1","1","1","1","1","1","1","1","1"
"250054","img/neutralC/CFD-WF-241-210-N.jpg","img/neutralC/CFD-BM-227-191-N.jpg","img/neutralC/CFD-BM-009-002-N.jpg","1","1","1","0","1","1","0.624637200002326","0.531562000018312","0.503922100004274","1","1","1","1","1","1","1","1","1"
"250054","img/neutralC/CFD-BM-009-002-N.jpg","img/neutralC/CFD-WF-241-210-N.jpg","img/neutralC/CFD-WM-028-003-N.jpg","1","1","1","1","0","1","0.503922100004274","0.624637200002326","0.485020699998131","1","1","1","1","1","1","1","1","1"
"250054","img/neutralC/CFD-WM-028-003-N.jpg","img/neutralC/CFD-BM-009-002-N.jpg","img/neutralC/CFD-WM-025-002-N.jpg","1","1","1","1","1","0","0.485020699998131","0.503922100004274","0.546478999982355","1","1","1","1","1","1","1","1","1"
"250054","img/neutralC/CFD-WM-025-002-N.jpg","img/neutralC/CFD-WM-028-003-N.jpg","img/neutralC/CFD-AM-219-101-N.jpg","1","1","1","0","1","0","0.546478999982355","0.485020699998131","0.529811099986546","1","1","1","1","1","1","1","1","1"
"250054","img/neutralC/CFD-AM-219-101-N.jpg","img/neutralC/CFD-WM-025-002-N.jpg","img/neutralC/CFD-WF-207-014-N.jpg","1","1","1","0","0","1","0.529811099986546","0.546478999982355","0.419449899985921","1","1","1","1","1","1","1","1","1"
"250054","img/neutralC/CFD-WF-207-014-N.jpg","img/neutralC/CFD-AM-219-101-N.jpg","img/neutralC/CFD-IM-615-167-N.jpg","1","1","1","1","0","0","0.419449899985921","0.529811099986546","0.407286000001477","1","1","1","1","1","1","1","1","1"
"250054","img/neutralC/CFD-IM-615-167-N.jpg","img/neutralC/CFD-WF-207-014-N.jpg","img/neutralC/CFD-BM-021-021-N.jpg","1","1","1","0","1","1","0.407286000001477","0.419449899985921","0.384233899996616","1","1","1","1","1","1","1","1","1"
"250054","img/neutralC/CFD-BM-021-021-N.jpg","img/neutralC/CFD-IM-615-167-N.jpg","img/neutralC/CFD-WF-221-005-N.jpg","1","1","1","1","0","0","0.384233899996616","0.407286000001477","0.564852800016524","1","1","1","1","1","1","1","1","1"
"250054","img/neutralC/CFD-WF-221-005-N.jpg","img/neutralC/CFD-BM-021-021-N.jpg","img/neutralC/CFD-MF-328-020-N.jpg","1","1","1","0","1","0","0.564852800016524","0.384233899996616","0.623946799983969","1","1","1","1","1","1","1","1","1"
"250054","img/neutralC/CFD-MF-328-020-N.jpg","img/neutralC/CFD-WF-221-005-N.jpg","img/neutralC/CFD-MM-306-010-N.jpg","1","1","1","0","0","0","0.623946799983969","0.564852800016524","0.553760999988299","1","1","1","1","1","1","1","1","1"
"250054","img/neutralC/CFD-MM-306-010-N.jpg","img/neutralC/CFD-MF-328-020-N.jpg","img/neutralC/CFD-BM-020-001-N.jpg","1","1","1","0","0","0","0.553760999988299","0.623946799983969","0.510198300005868","1","1","1","1","1","1","1","1","1"
"250054","img/neutralC/CFD-BM-020-001-N.jpg","img/neutralC/CFD-MM-306-010-N.jpg","img/neutralC/CFD-IM-697-015-N.jpg","1","1","1","0","0","1","0.510198300005868","0.553760999988299","0.496570599992992","1","1","1","1","1","1","1","1","1"
"250054","img/neutralC/CFD-IM-697-015-N.jpg","img/neutralC/CFD-BM-020-001-N.jpg","img/neutralC/CFD-BM-030-003-N.jpg","1","1","1","1","0","0","0.496570599992992","0.510198300005868","0.569113600009587","1","1","1","1","1","1","1","1","1"
"250054","img/neutralC/CFD-BM-030-003-N.jpg","img/neutralC/CFD-IM-697-015-N.jpg","img/neutralC/CFD-WF-243-148-N.jpg","1","1","1","0","1","0","0.569113600009587","0.496570599992992","0.482553799985908","1","1","1","1","1","1","1","1","1"
"250054","img/neutralC/CFD-WF-243-148-N.jpg","img/neutralC/CFD-BM-030-003-N.jpg","img/neutralC/CFD-IF-676-017-N.jpg","1","1","1","0","0","1","0.482553799985908","0.569113600009587","0.449901500018314","1","1","1","1","1","1","1","1","1"
"250054","img/neutralC/CFD-IF-676-017-N.jpg","img/neutralC/CFD-WF-243-148-N.jpg","img/neutralC/CFD-BM-043-071-N.jpg","1","1","1","1","0","0","0.449901500018314","0.482553799985908","0.54251669999212","1","1","1","1","1","1","1","1","1"
"250054","img/neutralC/CFD-BM-043-071-N.jpg","img/neutralC/CFD-IF-676-017-N.jpg","img/neutralC/CFD-AF-237-223-N.jpg","1","1","1","0","1","0","0.54251669999212","0.449901500018314","0.569914799998514","1","1","1","1","1","1","1","1","1"
"250054","img/neutralC/CFD-AF-237-223-N.jpg","img/neutralC/CFD-BM-043-071-N.jpg","img/neutralC/CFD-LF-212-066-N.jpg","1","1","1","0","0","1","0.569914799998514","0.54251669999212","0.422883299994282","1","1","1","1","1","1","1","1","1"
"250054","img/neutralC/CFD-LF-212-066-N.jpg","img/neutralC/CFD-AF-237-223-N.jpg","img/neutralC/CFD-AM-249-163-N.jpg","1","1","1","1","0","1","0.422883299994282","0.569914799998514","0.427006700017955","1","1","1","1","1","1","1","1","1"
"250054","img/neutralC/CFD-AM-249-163-N.jpg","img/neutralC/CFD-LF-212-066-N.jpg","img/neutralC/CFD-BF-244-231-N.jpg","1","1","1","1","1","1","0.427006700017955","0.422883299994282","0.420137400011299","1","1","1","1","1","1","1","1","1"
"250054","img/neutralC/CFD-BF-244-231-N.jpg","img/neutralC/CFD-AM-249-163-N.jpg","img/neutralC/CFD-BF-012-001-N.jpg","1","1","1","1","1","0","0.420137400011299","0.427006700017955","0.663380399986636","1","1","1","1","1","1","1","1","1"
"250054","img/neutralC/CFD-BF-012-001-N.jpg","img/neutralC/CFD-BF-244-231-N.jpg",NA,"1","1",NA,"0","1",NA,"0.663380399986636","0.420137400011299",NA,"1","1",NA,"1","1",NA,"1","1",NA
"250054","img/neutralC/CFD-WM-041-021-N.jpg",NA,"img/neutralC/CFD-LM-215-247-N.jpg","0",NA,"1","0",NA,"0","0.709647100011352",NA,"0.598132600018289","1",NA,"1","1",NA,"1","1",NA,"1"
"250054","img/neutralC/CFD-LM-215-247-N.jpg","img/neutralC/CFD-WM-041-021-N.jpg","img/neutralC/CFD-LF-203-066-N.jpg","1","0","1","0","0","0","0.598132600018289","0.709647100011352","0.583056500006933","1","1","1","1","1","1","1","1","1"
"250054","img/neutralC/CFD-LF-203-066-N.jpg","img/neutralC/CFD-LM-215-247-N.jpg","img/neutralC/CFD-BM-041-035-N.jpg","1","1","1","0","0","0","0.583056500006933","0.598132600018289","0.59244900001795","1","1","1","1","1","1","1","1","1"
"250054","img/neutralC/CFD-BM-041-035-N.jpg","img/neutralC/CFD-LF-203-066-N.jpg","img/neutralC/CFD-AM-201-076-N.jpg","1","1","1","0","0","1","0.59244900001795","0.583056500006933","0.529698999976972","1","1","1","1","1","1","1","1","1"
"250054","img/neutralC/CFD-AM-201-076-N.jpg","img/neutralC/CFD-BM-041-035-N.jpg","img/neutralC/CFD-IF-710-016-N.jpg","1","1","1","1","0","0","0.529698999976972","0.59244900001795","0.643413400015561","1","1","1","1","1","1","1","1","1"
"250054","img/neutralC/CFD-IF-710-016-N.jpg","img/neutralC/CFD-AM-201-076-N.jpg","img/neutralC/CFD-BF-213-188-N.jpg","1","1","1","0","1","1","0.643413400015561","0.529698999976972","0.4942290999752","1","1","1","1","1","1","1","1","1"
"250054","img/neutralC/CFD-BF-213-188-N.jpg","img/neutralC/CFD-IF-710-016-N.jpg","img/neutralC/CFD-MM-316-156-N.jpg","1","1","1","1","0","1","0.4942290999752","0.643413400015561","0.456937899987679","1","1","1","1","1","1","1","1","1"
"250054","img/neutralC/CFD-MM-316-156-N.jpg","img/neutralC/CFD-BF-213-188-N.jpg","img/neutralC/CFD-BF-253-202-N.jpg","1","1","1","1","1","0","0.456937899987679","0.4942290999752","0.466177199996309","1","1","1","1","1","1","1","1","1"
"250054","img/neutralC/CFD-BF-253-202-N.jpg","img/neutralC/CFD-MM-316-156-N.jpg","img/neutralC/CFD-IF-634-382-N.jpg","1","1","1","0","1","1","0.466177199996309","0.456937899987679","0.477271900017513","1","1","1","1","1","1","1","1","1"
"250054","img/neutralC/CFD-IF-634-382-N.jpg","img/neutralC/CFD-BF-253-202-N.jpg","img/neutralC/CFD-BF-205-141-N.jpg","1","1","1","1","0","0","0.477271900017513","0.466177199996309","0.512018199980957","1","1","1","1","1","1","1","1","1"
"250054","img/neutralC/CFD-BF-205-141-N.jpg","img/neutralC/CFD-IF-634-382-N.jpg","img/neutralC/CFD-BM-033-003-N.jpg","1","1","0","0","1","0","0.512018199980957","0.477271900017513","0.881968000001507","1","1","1","1","1","1","1","1","1"
"250054","img/neutralC/CFD-BM-033-003-N.jpg","img/neutralC/CFD-BF-205-141-N.jpg","img/neutralC/CFD-WF-213-031-N.jpg","0","1","1","0","0","1","0.881968000001507","0.512018199980957","0.574820199981332","1","1","1","1","1","1","1","1","1"
"250054","img/neutralC/CFD-WF-213-031-N.jpg","img/neutralC/CFD-BM-033-003-N.jpg","img/neutralC/CFD-LF-214-090-N.jpg","1","0","1","1","0","0","0.574820199981332","0.881968000001507","0.687811000010697","1","1","1","1","1","1","1","1","1"
"250054","img/neutralC/CFD-LF-214-090-N.jpg","img/neutralC/CFD-WF-213-031-N.jpg","img/neutralC/CFD-LF-205-100-N.jpg","1","1","1","0","1","1","0.687811000010697","0.574820199981332","0.510455999989063","1","1","1","1","1","1","1","1","1"
"250054","img/neutralC/CFD-LF-205-100-N.jpg","img/neutralC/CFD-LF-214-090-N.jpg","img/neutralC/CFD-AF-231-357-N.jpg","1","1","1","1","0","1","0.510455999989063","0.687811000010697","0.415762299991911","1","1","1","1","1","1","1","1","1"
"250054","img/neutralC/CFD-AF-231-357-N.jpg","img/neutralC/CFD-LF-205-100-N.jpg","img/neutralC/CFD-LM-218-183-N.jpg","1","1","1","1","1","1","0.415762299991911","0.510455999989063","0.421549399994547","1","1","1","1","1","1","1","1","1"
"250054","img/neutralC/CFD-LM-218-183-N.jpg","img/neutralC/CFD-AF-231-357-N.jpg","img/neutralC/CFD-MF-337-026-N.jpg","1","1","1","1","1","1","0.421549399994547","0.415762299991911","0.416173799982062","1","1","1","1","1","1","1","1","1"
"250054","img/neutralC/CFD-MF-337-026-N.jpg","img/neutralC/CFD-LM-218-183-N.jpg","img/neutralC/CFD-BF-029-031-N.jpg","1","1","1","1","1","1","0.416173799982062","0.421549399994547","0.356743999989703","1","1","1","1","1","1","1","1","1"
"250054","img/neutralC/CFD-BF-029-031-N.jpg","img/neutralC/CFD-MF-337-026-N.jpg","img/neutralC/CFD-WM-011-002-N.jpg","1","1","1","1","1","0","0.356743999989703","0.416173799982062","0.71842459999607","1","1","1","1","1","1","1","1","1"
"250054","img/neutralC/CFD-WM-011-002-N.jpg","img/neutralC/CFD-BF-029-031-N.jpg","img/neutralC/CFD-BM-239-136-N.jpg","1","1","1","0","1","1","0.71842459999607","0.356743999989703","0.610644900007173","1","1","1","1","1","1","1","1","1"
"250054","img/neutralC/CFD-BM-239-136-N.jpg","img/neutralC/CFD-WM-011-002-N.jpg","img/neutralC/CFD-WF-224-099-N.jpg","1","1","1","1","0","0","0.610644900007173","0.71842459999607","0.672106300015002","1","1","1","1","1","1","1","1","1"
"250054","img/neutralC/CFD-WF-224-099-N.jpg","img/neutralC/CFD-BM-239-136-N.jpg","img/neutralC/CFD-BF-039-031-N.jpg","1","1","1","0","1","1","0.672106300015002","0.610644900007173","0.430040200008079","1","1","1","1","1","1","1","1","1"
"250054","img/neutralC/CFD-BF-039-031-N.jpg","img/neutralC/CFD-WF-224-099-N.jpg","img/neutralC/CFD-BM-019-002-N.jpg","1","1","1","1","0","0","0.430040200008079","0.672106300015002","0.554777300014393","1","1","1","1","1","1","1","1","1"
"250054","img/neutralC/CFD-BM-019-002-N.jpg","img/neutralC/CFD-BF-039-031-N.jpg","img/neutralC/CFD-WF-250-167-N.jpg","1","1","1","0","1","1","0.554777300014393","0.430040200008079","0.472938299993984","1","1","1","1","1","1","1","1","1"
"250054","img/neutralC/CFD-WF-250-167-N.jpg","img/neutralC/CFD-BM-019-002-N.jpg","img/neutralC/CFD-IM-651-308-N.jpg","1","1","1","1","0","0","0.472938299993984","0.554777300014393","0.591966300009517","1","1","1","1","1","1","1","1","1"
"250054","img/neutralC/CFD-IM-651-308-N.jpg","img/neutralC/CFD-WF-250-167-N.jpg","img/neutralC/CFD-LF-224-176-N.jpg","1","1","1","0","1","0","0.591966300009517","0.472938299993984","0.58246340000187","1","1","1","1","1","1","1","1","1"
"250054","img/neutralC/CFD-LF-224-176-N.jpg","img/neutralC/CFD-IM-651-308-N.jpg","img/neutralC/CFD-AM-212-050-N.jpg","1","1","1","0","0","1","0.58246340000187","0.591966300009517","0.427839100011624","1","1","1","1","1","1","1","1","1"
"250054","img/neutralC/CFD-AM-212-050-N.jpg","img/neutralC/CFD-LF-224-176-N.jpg","img/neutralC/CFD-IM-684-008-N.jpg","1","1","1","1","0","1","0.427839100011624","0.58246340000187","0.489333400008036","1","1","1","1","1","1","1","1","1"
"250054","img/neutralC/CFD-IM-684-008-N.jpg","img/neutralC/CFD-AM-212-050-N.jpg","img/neutralC/CFD-WM-021-001-N.jpg","1","1","1","1","1","1","0.489333400008036","0.427839100011624","0.464783400006127","1","1","1","1","1","1","1","1","1"
"250054","img/neutralC/CFD-WM-021-001-N.jpg","img/neutralC/CFD-IM-684-008-N.jpg","img/neutralC/CFD-LF-230-203-N.jpg","1","1","1","1","1","0","0.464783400006127","0.489333400008036","0.66593760001706","1","1","1","1","1","1","1","1","1"
"250054","img/neutralC/CFD-LF-230-203-N.jpg","img/neutralC/CFD-WM-021-001-N.jpg","img/neutralC/CFD-IF-693-172-N.jpg","1","1","1","0","1","0","0.66593760001706","0.464783400006127","0.503706099989358","1","1","1","1","1","1","1","1","1"
"250054","img/neutralC/CFD-IF-693-172-N.jpg","img/neutralC/CFD-LF-230-203-N.jpg",NA,"1","1",NA,"0","0",NA,"0.503706099989358","0.66593760001706",NA,"1","1",NA,"1","1",NA,"1","1",NA
"250054","img/neutralC/CFD-WF-209-052-N.jpg",NA,"img/neutralC/CFD-WM-258-125-N.jpg","1",NA,"0","1",NA,"0","0.58566549999523",NA,"0.452048300008755","1",NA,"1","1",NA,"1","1",NA,"1"
"250054","img/neutralC/CFD-WM-258-125-N.jpg","img/neutralC/CFD-WF-209-052-N.jpg","img/neutralC/CFD-IM-617-174-N.jpg","0","1","1","0","1","0","0.452048300008755","0.58566549999523","0.591509399993811","1","1","1","1","1","1","1","1","1"
"250054","img/neutralC/CFD-IM-617-174-N.jpg","img/neutralC/CFD-WM-258-125-N.jpg","img/neutralC/CFD-LF-245-166-N.jpg","1","0","1","0","0","1","0.591509399993811","0.452048300008755","0.552429800009122","1","1","1","1","1","1","1","1","1"
"250054","img/neutralC/CFD-LF-245-166-N.jpg","img/neutralC/CFD-IM-617-174-N.jpg","img/neutralC/CFD-LF-242-121-N.jpg","1","1","1","1","0","0","0.552429800009122","0.591509399993811","0.659659800003283","1","1","1","1","1","1","1","1","1"
"250054","img/neutralC/CFD-LF-242-121-N.jpg","img/neutralC/CFD-LF-245-166-N.jpg","img/neutralC/CFD-BM-018-001-N.jpg","1","1","1","0","1","1","0.659659800003283","0.552429800009122","0.451702899998054","1","1","1","1","1","1","1","1","1"
"250054","img/neutralC/CFD-BM-018-001-N.jpg","img/neutralC/CFD-LF-242-121-N.jpg","img/neutralC/CFD-IF-665-015-N.jpg","1","1","1","1","0","0","0.451702899998054","0.659659800003283","0.539277900010347","1","1","1","1","1","1","1","1","1"
"250054","img/neutralC/CFD-IF-665-015-N.jpg","img/neutralC/CFD-BM-018-001-N.jpg","img/neutralC/CFD-AF-206-079-N.jpg","1","1","1","0","1","1","0.539277900010347","0.451702899998054","0.628191199997673","1","1","1","1","1","1","1","1","1"
"250054","img/neutralC/CFD-AF-206-079-N.jpg","img/neutralC/CFD-IF-665-015-N.jpg","img/neutralC/CFD-BM-026-002-N.jpg","1","1","1","1","0","0","0.628191199997673","0.539277900010347","0.527246799989371","1","1","1","1","1","1","1","1","1"
"250054","img/neutralC/CFD-BM-026-002-N.jpg","img/neutralC/CFD-AF-206-079-N.jpg","img/neutralC/CFD-IM-657-308-N.jpg","1","1","1","0","1","0","0.527246799989371","0.628191199997673","0.48723900000914","1","1","1","1","1","1","1","1","1"
"250054","img/neutralC/CFD-IM-657-308-N.jpg","img/neutralC/CFD-BM-026-002-N.jpg","img/neutralC/CFD-WM-017-002-N.jpg","1","1","1","0","0","0","0.48723900000914","0.527246799989371","0.509139900008449","1","1","1","1","1","1","1","1","1"
"250054","img/neutralC/CFD-WM-017-002-N.jpg","img/neutralC/CFD-IM-657-308-N.jpg","img/neutralC/CFD-LM-219-295-N.jpg","1","1","1","0","0","1","0.509139900008449","0.48723900000914","0.538648400019156","1","1","1","1","1","1","1","1","1"
"250054","img/neutralC/CFD-LM-219-295-N.jpg","img/neutralC/CFD-WM-017-002-N.jpg","img/neutralC/CFD-LM-226-175-N.jpg","1","1","1","1","0","0","0.538648400019156","0.509139900008449","0.528055999981007","1","1","1","1","1","1","1","1","1"
"250054","img/neutralC/CFD-LM-226-175-N.jpg","img/neutralC/CFD-LM-219-295-N.jpg","img/neutralC/CFD-IM-653-008-N.jpg","1","1","1","0","1","0","0.528055999981007","0.538648400019156","0.640993500011973","1","1","1","1","1","1","1","1","1"
"250054","img/neutralC/CFD-IM-653-008-N.jpg","img/neutralC/CFD-LM-226-175-N.jpg","img/neutralC/CFD-IM-727-195-N.jpg","1","1","1","0","0","1","0.640993500011973","0.528055999981007","0.707335799990688","1","1","1","1","1","1","1","1","1"
"250054","img/neutralC/CFD-IM-727-195-N.jpg","img/neutralC/CFD-IM-653-008-N.jpg","img/neutralC/CFD-BF-010-001-N.jpg","1","1","1","1","0","1","0.707335799990688","0.640993500011973","1.05516410002019","1","1","1","1","1","1","1","1","1"
"250054","img/neutralC/CFD-BF-010-001-N.jpg","img/neutralC/CFD-IM-727-195-N.jpg","img/neutralC/CFD-IM-638-250-1-N.jpg","1","1","1","1","1","1","1.05516410002019","0.707335799990688","0.460740800015628","1","1","1","1","1","1","1","1","1"
"250054","img/neutralC/CFD-IM-638-250-1-N.jpg","img/neutralC/CFD-BF-010-001-N.jpg","img/neutralC/CFD-LF-247-051-N.jpg","1","1","1","1","1","1","0.460740800015628","1.05516410002019","0.490757999999914","1","1","1","1","1","1","1","1","1"
"250054","img/neutralC/CFD-LF-247-051-N.jpg","img/neutralC/CFD-IM-638-250-1-N.jpg","img/neutralC/CFD-BM-005-003-N.jpg","1","1","1","1","1","1","0.490757999999914","0.460740800015628","0.461811599991051","1","1","1","1","1","1","1","1","1"
"250054","img/neutralC/CFD-BM-005-003-N.jpg","img/neutralC/CFD-LF-247-051-N.jpg","img/neutralC/CFD-MF-313-002-N.jpg","1","1","1","1","1","0","0.461811599991051","0.490757999999914","0.518271700013429","1","1","1","1","1","1","1","1","1"
"250054","img/neutralC/CFD-MF-313-002-N.jpg","img/neutralC/CFD-BM-005-003-N.jpg","img/neutralC/CFD-LF-250-169-N.jpg","1","1","1","0","1","1","0.518271700013429","0.461811599991051","0.464684400008991","1","1","1","1","1","1","1","1","1"
"250054","img/neutralC/CFD-LF-250-169-N.jpg","img/neutralC/CFD-MF-313-002-N.jpg","img/neutralC/CFD-IF-620-218-N.jpg","1","1","1","1","0","0","0.464684400008991","0.518271700013429","0.563012500002515","1","1","1","1","1","1","1","1","1"
"250054","img/neutralC/CFD-IF-620-218-N.jpg","img/neutralC/CFD-LF-250-169-N.jpg","img/neutralC/CFD-BM-212-117-N.jpg","1","1","1","0","1","0","0.563012500002515","0.464684400008991","0.574677399999928","1","1","1","1","1","1","1","1","1"
"250054","img/neutralC/CFD-BM-212-117-N.jpg","img/neutralC/CFD-IF-620-218-N.jpg","img/neutralC/CFD-BF-238-190-N.jpg","1","1","1","0","0","1","0.574677399999928","0.563012500002515","0.487690499983728","1","1","1","1","1","1","1","1","1"
"250054","img/neutralC/CFD-BF-238-190-N.jpg","img/neutralC/CFD-BM-212-117-N.jpg","img/neutralC/CFD-BM-231-155-N.jpg","1","1","1","1","0","1","0.487690499983728","0.574677399999928","0.434187599981669","1","1","1","1","1","1","1","1","1"
"250054","img/neutralC/CFD-BM-231-155-N.jpg","img/neutralC/CFD-BF-238-190-N.jpg","img/neutralC/CFD-WM-242-011-N.jpg","1","1","0","1","1","0","0.434187599981669","0.487690499983728","0.44540440000128","1","1","1","1","1","1","1","1","1"
"250054","img/neutralC/CFD-WM-242-011-N.jpg","img/neutralC/CFD-BM-231-155-N.jpg","img/neutralC/CFD-BF-033-028-N.jpg","0","1","1","0","1","0","0.44540440000128","0.434187599981669","0.554911299986998","1","1","1","1","1","1","1","1","1"
"250054","img/neutralC/CFD-BF-033-028-N.jpg","img/neutralC/CFD-WM-242-011-N.jpg","img/neutralC/CFD-AF-241-141-N.jpg","1","0","1","0","0","1","0.554911299986998","0.44540440000128","0.511491300014313","1","1","1","1","1","1","1","1","1"
"250054","img/neutralC/CFD-AF-241-141-N.jpg","img/neutralC/CFD-BF-033-028-N.jpg","img/neutralC/CFD-IM-686-097-N.jpg","1","1","1","1","0","0","0.511491300014313","0.554911299986998","1.37132990002283","1","1","1","1","1","1","1","1","1"
"250054","img/neutralC/CFD-IM-686-097-N.jpg","img/neutralC/CFD-AF-241-141-N.jpg","img/neutralC/CFD-LM-233-171-N.jpg","1","1","1","0","1","0","1.37132990002283","0.511491300014313","0.552784300001804","1","1","1","1","1","1","1","1","1"
"250054","img/neutralC/CFD-LM-233-171-N.jpg","img/neutralC/CFD-IM-686-097-N.jpg","img/neutralC/CFD-AF-202-122-N.jpg","1","1","1","0","0","1","0.552784300001804","1.37132990002283","0.664545399980852","1","1","1","1","1","1","1","1","1"
"250054","img/neutralC/CFD-AF-202-122-N.jpg","img/neutralC/CFD-LM-233-171-N.jpg","img/neutralC/CFD-WM-227-099-N.jpg","1","1","1","1","0","1","0.664545399980852","0.552784300001804","0.478661200002534","1","1","1","1","1","1","1","1","1"
"250054","img/neutralC/CFD-WM-227-099-N.jpg","img/neutralC/CFD-AF-202-122-N.jpg",NA,"1","1",NA,"1","1",NA,"0.478661200002534","0.664545399980852",NA,"1","1",NA,"1","1",NA,"1","1",NA
"250054","img/neutralC/CFD-AF-215-70-N.jpg",NA,"img/neutralC/CFD-MF-300-002-N.jpg","1",NA,"1","0",NA,"0","0.532128999999259",NA,"0.504103999992367","1",NA,"1","1",NA,"1","1",NA,"1"
"250054","img/neutralC/CFD-MF-300-002-N.jpg","img/neutralC/CFD-AF-215-70-N.jpg","img/neutralC/CFD-MF-329-001-N.jpg","1","1","1","0","0","0","0.504103999992367","0.532128999999259","0.497028000012506","1","1","1","1","1","1","1","1","1"
"250054","img/neutralC/CFD-MF-329-001-N.jpg","img/neutralC/CFD-MF-300-002-N.jpg","img/neutralC/CFD-IF-619-197-N.jpg","1","1","1","0","0","0","0.497028000012506","0.504103999992367","0.636659900017548","1","1","1","1","1","1","1","1","1"
"250054","img/neutralC/CFD-IF-619-197-N.jpg","img/neutralC/CFD-MF-329-001-N.jpg","img/neutralC/CFD-LF-226-174-N.jpg","1","1","1","0","0","0","0.636659900017548","0.497028000012506","0.515296400000807","1","1","1","1","1","1","1","1","1"
"250054","img/neutralC/CFD-LF-226-174-N.jpg","img/neutralC/CFD-IF-619-197-N.jpg","img/neutralC/CFD-LM-217-162-N.jpg","1","1","1","0","0","0","0.515296400000807","0.636659900017548","0.513012400013395","1","1","1","1","1","1","1","1","1"
"250054","img/neutralC/CFD-LM-217-162-N.jpg","img/neutralC/CFD-LF-226-174-N.jpg","img/neutralC/CFD-AM-236-090-N.jpg","1","1","1","0","0","1","0.513012400013395","0.515296400000807","0.450183300010394","1","1","1","1","1","1","1","1","1"
"250054","img/neutralC/CFD-AM-236-090-N.jpg","img/neutralC/CFD-LM-217-162-N.jpg","img/neutralC/CFD-WF-217-085-N.jpg","1","1","1","1","0","1","0.450183300010394","0.513012400013395","0.51616830000421","1","1","1","1","1","1","1","1","1"
"250054","img/neutralC/CFD-WF-217-085-N.jpg","img/neutralC/CFD-AM-236-090-N.jpg","img/neutralC/CFD-IM-637-007-N.jpg","1","1","1","1","1","0","0.51616830000421","0.450183300010394","0.555336999997962","1","1","1","1","1","1","1","1","1"
"250054","img/neutralC/CFD-IM-637-007-N.jpg","img/neutralC/CFD-WF-217-085-N.jpg","img/neutralC/CFD-IF-608-390-N.jpg","1","1","1","0","1","1","0.555336999997962","0.51616830000421","0.499385000002803","1","1","1","1","1","1","1","1","1"
"250054","img/neutralC/CFD-IF-608-390-N.jpg","img/neutralC/CFD-IM-637-007-N.jpg","img/neutralC/CFD-WM-024-015-N.jpg","1","1","1","1","0","1","0.499385000002803","0.555336999997962","0.42867429999751","1","1","1","1","1","1","1","1","1"
"250054","img/neutralC/CFD-WM-024-015-N.jpg","img/neutralC/CFD-IF-608-390-N.jpg","img/neutralC/CFD-IM-709-103-N.jpg","1","1","1","1","1","0","0.42867429999751","0.499385000002803","0.451351700001396","1","1","1","1","1","1","1","1","1"
"250054","img/neutralC/CFD-IM-709-103-N.jpg","img/neutralC/CFD-WM-024-015-N.jpg","img/neutralC/CFD-WF-212-050-N.jpg","1","1","1","0","1","0","0.451351700001396","0.42867429999751","0.56331900000805","1","1","1","1","1","1","1","1","1"
"250054","img/neutralC/CFD-WF-212-050-N.jpg","img/neutralC/CFD-IM-709-103-N.jpg","img/neutralC/CFD-IM-604-014-N.jpg","1","1","0","0","0","0","0.56331900000805","0.451351700001396","0.377717900002608","1","1","1","1","1","1","1","1","1"
"250054","img/neutralC/CFD-IM-604-014-N.jpg","img/neutralC/CFD-WF-212-050-N.jpg","img/neutralC/CFD-BF-051-035-N.jpg","0","1","1","0","0","0","0.377717900002608","0.56331900000805","0.654816199996276","1","1","1","1","1","1","1","1","1"
"250054","img/neutralC/CFD-BF-051-035-N.jpg","img/neutralC/CFD-IM-604-014-N.jpg","img/neutralC/CFD-MF-340-026-N.jpg","1","0","1","0","0","1","0.654816199996276","0.377717900002608","0.451862000016263","1","1","1","1","1","1","1","1","1"
"250054","img/neutralC/CFD-MF-340-026-N.jpg","img/neutralC/CFD-BF-051-035-N.jpg","img/neutralC/CFD-WM-213-076-N.jpg","1","1","1","1","0","1","0.451862000016263","0.654816199996276","0.532468099991092","1","1","1","1","1","1","1","1","1"
"250054","img/neutralC/CFD-WM-213-076-N.jpg","img/neutralC/CFD-MF-340-026-N.jpg","img/neutralC/CFD-BM-243-218-N.jpg","1","1","1","1","1","1","0.532468099991092","0.451862000016263","0.484953400009545","1","1","1","1","1","1","1","1","1"
"250054","img/neutralC/CFD-BM-243-218-N.jpg","img/neutralC/CFD-WM-213-076-N.jpg","img/neutralC/CFD-WF-008-002-N.jpg","1","1","1","1","1","1","0.484953400009545","0.532468099991092","0.473113399988506","1","1","1","1","1","1","1","1","1"
"250054","img/neutralC/CFD-WF-008-002-N.jpg","img/neutralC/CFD-BM-243-218-N.jpg","img/neutralC/CFD-LF-201-035-N.jpg","1","1","1","1","1","1","0.473113399988506","0.484953400009545","0.493605299998308","1","1","1","1","1","1","1","1","1"
"250054","img/neutralC/CFD-LF-201-035-N.jpg","img/neutralC/CFD-WF-008-002-N.jpg","img/neutralC/CFD-AF-254-167-N.jpg","1","1","1","1","1","1","0.493605299998308","0.473113399988506","0.432838200009428","1","1","1","1","1","1","1","1","1"
"250054","img/neutralC/CFD-AF-254-167-N.jpg","img/neutralC/CFD-LF-201-035-N.jpg","img/neutralC/CFD-BM-039-029-N.jpg","1","1","1","1","1","1","0.432838200009428","0.493605299998308","0.486521199985873","1","1","1","1","1","1","1","1","1"
"250054","img/neutralC/CFD-BM-039-029-N.jpg","img/neutralC/CFD-AF-254-167-N.jpg","img/neutralC/CFD-BF-043-003-N.jpg","1","1","1","1","1","0","0.486521199985873","0.432838200009428","0.450867899984587","1","1","1","1","1","1","1","1","1"
"250054","img/neutralC/CFD-BF-043-003-N.jpg","img/neutralC/CFD-BM-039-029-N.jpg","img/neutralC/CFD-BF-224-002-N.jpg","1","1","1","0","1","1","0.450867899984587","0.486521199985873","0.436122200015234","1","1","1","1","1","1","1","1","1"
"250054","img/neutralC/CFD-BF-224-002-N.jpg","img/neutralC/CFD-BF-043-003-N.jpg","img/neutralC/CFD-WF-248-129-N.jpg","1","1","1","1","0","0","0.436122200015234","0.450867899984587","0.443468500016024","1","1","1","1","1","1","1","1","1"
"250054","img/neutralC/CFD-WF-248-129-N.jpg","img/neutralC/CFD-BF-224-002-N.jpg","img/neutralC/CFD-WM-232-070-N.jpg","1","1","1","0","1","0","0.443468500016024","0.436122200015234","0.509358400013298","1","1","1","1","1","1","1","1","1"
"250054","img/neutralC/CFD-WM-232-070-N.jpg","img/neutralC/CFD-WF-248-129-N.jpg","img/neutralC/CFD-MM-304-002-N.jpg","1","1","1","0","0","1","0.509358400013298","0.443468500016024","0.441220700013219","1","1","1","1","1","1","1","1","1"
"250054","img/neutralC/CFD-MM-304-002-N.jpg","img/neutralC/CFD-WM-232-070-N.jpg","img/neutralC/CFD-IM-685-004-N.jpg","1","1","1","1","0","1","0.441220700013219","0.509358400013298","0.412273599999026","1","1","1","1","1","1","1","1","1"
"250054","img/neutralC/CFD-IM-685-004-N.jpg","img/neutralC/CFD-MM-304-002-N.jpg","img/neutralC/CFD-WF-012-002-N.jpg","1","1","1","1","1","1","0.412273599999026","0.441220700013219","0.41434260000824","1","1","1","1","1","1","1","1","1"
"250054","img/neutralC/CFD-WF-012-002-N.jpg","img/neutralC/CFD-IM-685-004-N.jpg","img/neutralC/CFD-IM-675-015-N.jpg","1","1","1","1","1","1","0.41434260000824","0.412273599999026","0.412626500008628","1","1","1","1","1","1","1","1","1"
"250054","img/neutralC/CFD-IM-675-015-N.jpg","img/neutralC/CFD-WF-012-002-N.jpg","img/neutralC/CFD-AF-229-160-N.jpg","1","1","1","1","1","0","0.412626500008628","0.41434260000824","0.645960399997421","1","1","1","1","1","1","1","1","1"
"250054","img/neutralC/CFD-AF-229-160-N.jpg","img/neutralC/CFD-IM-675-015-N.jpg","img/neutralC/CFD-MF-327-002-N.jpg","1","1","1","0","1","0","0.645960399997421","0.412626500008628","0.627268099982757","1","1","1","1","1","1","1","1","1"
"250054","img/neutralC/CFD-MF-327-002-N.jpg","img/neutralC/CFD-AF-229-160-N.jpg",NA,"1","1",NA,"0","0",NA,"0.627268099982757","0.645960399997421",NA,"1","1",NA,"1","1",NA,"1","1",NA
"250054","img/neutralC/CFD-IF-729-393-N.jpg",NA,"img/neutralC/CFD-WF-234-086-N.jpg","1",NA,"1","0",NA,"1","0.719745099981083",NA,"0.44851329998346","1",NA,"1","1",NA,"1","1",NA,"1"
"250054","img/neutralC/CFD-WF-234-086-N.jpg","img/neutralC/CFD-IF-729-393-N.jpg","img/neutralC/CFD-BF-044-034-N.jpg","1","1","1","1","0","0","0.44851329998346","0.719745099981083","0.598149799974635","1","1","1","1","1","1","1","1","1"
"250054","img/neutralC/CFD-BF-044-034-N.jpg","img/neutralC/CFD-WF-234-086-N.jpg","img/neutralC/CFD-BF-214-308-N.jpg","1","1","1","0","1","1","0.598149799974635","0.44851329998346","0.528497699997388","1","1","1","1","1","1","1","1","1"
"250054","img/neutralC/CFD-BF-214-308-N.jpg","img/neutralC/CFD-BF-044-034-N.jpg","img/neutralC/CFD-IF-742-103-N.jpg","1","1","1","1","0","1","0.528497699997388","0.598149799974635","0.809246899996651","1","1","1","1","1","1","1","1","1"
"250054","img/neutralC/CFD-IF-742-103-N.jpg","img/neutralC/CFD-BF-214-308-N.jpg","img/neutralC/CFD-WM-034-030-N.jpg","1","1","1","1","1","1","0.809246899996651","0.528497699997388","0.445946199994069","1","1","1","1","1","1","1","1","1"
"250054","img/neutralC/CFD-WM-034-030-N.jpg","img/neutralC/CFD-IF-742-103-N.jpg","img/neutralC/CFD-WF-029-002-N.jpg","1","1","1","1","1","0","0.445946199994069","0.809246899996651","0.593112899980042","1","1","1","1","1","1","1","1","1"
"250054","img/neutralC/CFD-WF-029-002-N.jpg","img/neutralC/CFD-WM-034-030-N.jpg","img/neutralC/CFD-WF-208-068-N.jpg","1","1","1","0","1","1","0.593112899980042","0.445946199994069","0.453691200003959","1","1","1","1","1","1","1","1","1"
"250054","img/neutralC/CFD-WF-208-068-N.jpg","img/neutralC/CFD-WF-029-002-N.jpg","img/neutralC/CFD-IF-677-452-1-N.jpg","1","1","1","1","0","1","0.453691200003959","0.593112899980042","0.434224099997664","1","1","1","1","1","1","1","1","1"
"250054","img/neutralC/CFD-IF-677-452-1-N.jpg","img/neutralC/CFD-WF-208-068-N.jpg","img/neutralC/CFD-MF-301-024-N.jpg","1","1","1","1","1","0","0.434224099997664","0.453691200003959","0.485469699982787","1","1","1","1","1","1","1","1","1"
"250054","img/neutralC/CFD-MF-301-024-N.jpg","img/neutralC/CFD-IF-677-452-1-N.jpg","img/neutralC/CFD-LF-204-133-N.jpg","1","1","1","0","1","1","0.485469699982787","0.434224099997664","0.47734899999341","1","1","1","1","1","1","1","1","1"
"250054","img/neutralC/CFD-LF-204-133-N.jpg","img/neutralC/CFD-MF-301-024-N.jpg","img/neutralC/CFD-BF-207-004-N.jpg","1","1","1","1","0","1","0.47734899999341","0.485469699982787","0.44740069998079","1","1","1","1","1","1","1","1","1"
"250054","img/neutralC/CFD-BF-207-004-N.jpg","img/neutralC/CFD-LF-204-133-N.jpg","img/neutralC/CFD-BF-236-177-N.jpg","1","1","0","1","1","0","0.44740069998079","0.47734899999341","0.520599600014975","1","1","1","1","1","1","1","1","1"
"250054","img/neutralC/CFD-BF-236-177-N.jpg","img/neutralC/CFD-BF-207-004-N.jpg","img/neutralC/CFD-IM-726-248-N.jpg","0","1","1","0","1","0","0.520599600014975","0.44740069998079","0.859006499988027","1","1","1","1","1","1","1","1","1"
"250054","img/neutralC/CFD-IM-726-248-N.jpg","img/neutralC/CFD-BF-236-177-N.jpg","img/neutralC/CFD-IM-707-105-N.jpg","1","0","1","0","0","1","0.859006499988027","0.520599600014975","0.447686500003329","1","1","1","1","1","1","1","1","1"
"250054","img/neutralC/CFD-IM-707-105-N.jpg","img/neutralC/CFD-IM-726-248-N.jpg","img/neutralC/CFD-BF-002-001-N.jpg","1","1","1","1","0","0","0.447686500003329","0.859006499988027","0.504095700016478","1","1","1","1","1","1","1","1","1"
"250054","img/neutralC/CFD-BF-002-001-N.jpg","img/neutralC/CFD-IM-707-105-N.jpg","img/neutralC/CFD-LM-213-061-N.jpg","1","1","1","0","1","0","0.504095700016478","0.447686500003329","0.517241100023966","1","1","1","1","1","1","1","1","1"
"250054","img/neutralC/CFD-LM-213-061-N.jpg","img/neutralC/CFD-BF-002-001-N.jpg","img/neutralC/CFD-BM-036-003-N.jpg","1","1","1","0","0","1","0.517241100023966","0.504095700016478","0.460842500004219","1","1","1","1","1","1","1","1","1"
"250054","img/neutralC/CFD-BM-036-003-N.jpg","img/neutralC/CFD-LM-213-061-N.jpg","img/neutralC/CFD-WM-248-036-N.jpg","1","1","1","1","0","1","0.460842500004219","0.517241100023966","0.432634099997813","1","1","1","1","1","1","1","1","1"
"250054","img/neutralC/CFD-WM-248-036-N.jpg","img/neutralC/CFD-BM-036-003-N.jpg","img/neutralC/CFD-WM-014-002-N.jpg","1","1","1","1","1","0","0.432634099997813","0.460842500004219","0.561289699980989","1","1","1","1","1","1","1","1","1"
"250054","img/neutralC/CFD-WM-014-002-N.jpg","img/neutralC/CFD-WM-248-036-N.jpg","img/neutralC/CFD-WF-233-112-N.jpg","1","1","1","0","1","1","0.561289699980989","0.432634099997813","0.432649199996376","1","1","1","1","1","1","1","1","1"
"250054","img/neutralC/CFD-WF-233-112-N.jpg","img/neutralC/CFD-WM-014-002-N.jpg","img/neutralC/CFD-BM-241-235-N.jpg","1","1","1","1","0","0","0.432649199996376","0.561289699980989","0.988802200008649","1","1","1","1","1","1","1","1","1"
"250054","img/neutralC/CFD-BM-241-235-N.jpg","img/neutralC/CFD-WF-233-112-N.jpg","img/neutralC/CFD-BF-011-002-N.jpg","1","1","1","0","1","1","0.988802200008649","0.432649199996376","0.547417800000403","1","1","1","1","1","1","1","1","1"
"250054","img/neutralC/CFD-BF-011-002-N.jpg","img/neutralC/CFD-BM-241-235-N.jpg","img/neutralC/CFD-IM-696-001-N.jpg","1","1","1","1","0","0","0.547417800000403","0.988802200008649","0.692765499989036","1","1","1","1","1","1","1","1","1"
"250054","img/neutralC/CFD-IM-696-001-N.jpg","img/neutralC/CFD-BF-011-002-N.jpg","img/neutralC/CFD-BF-006-017-N.jpg","1","1","1","0","1","0","0.692765499989036","0.547417800000403","0.576024600013625","1","1","1","1","1","1","1","1","1"
"250054","img/neutralC/CFD-BF-006-017-N.jpg","img/neutralC/CFD-IM-696-001-N.jpg","img/neutralC/CFD-BF-036-027-N.jpg","1","1","1","0","0","0","0.576024600013625","0.692765499989036","0.534477600012906","1","1","1","1","1","1","1","1","1"
"250054","img/neutralC/CFD-BF-036-027-N.jpg","img/neutralC/CFD-BF-006-017-N.jpg","img/neutralC/CFD-IM-721-341-N.jpg","1","1","1","0","0","1","0.534477600012906","0.576024600013625","0.64011209999444","1","1","1","1","1","1","1","1","1"
"250054","img/neutralC/CFD-IM-721-341-N.jpg","img/neutralC/CFD-BF-036-027-N.jpg","img/neutralC/CFD-BM-238-242-N.jpg","1","1","1","1","0","0","0.64011209999444","0.534477600012906","0.517582800006494","1","1","1","1","1","1","1","1","1"
"250054","img/neutralC/CFD-BM-238-242-N.jpg","img/neutralC/CFD-IM-721-341-N.jpg","img/neutralC/CFD-BM-207-024-N.jpg","1","1","1","0","1","1","0.517582800006494","0.64011209999444","0.491021900001215","1","1","1","1","1","1","1","1","1"
"250054","img/neutralC/CFD-BM-207-024-N.jpg","img/neutralC/CFD-BM-238-242-N.jpg","img/neutralC/CFD-BF-027-002-N.jpg","1","1","1","1","0","1","0.491021900001215","0.517582800006494","0.462311700015562","1","1","1","1","1","1","1","1","1"
"250054","img/neutralC/CFD-BF-027-002-N.jpg","img/neutralC/CFD-BM-207-024-N.jpg","img/neutralC/CFD-BF-247-179-N.jpg","1","1","1","1","1","0","0.462311700015562","0.491021900001215","0.502099599980284","1","1","1","1","1","1","1","1","1"
"250054","img/neutralC/CFD-BF-247-179-N.jpg","img/neutralC/CFD-BF-027-002-N.jpg","img/neutralC/CFD-AM-230-150-N.jpg","1","1","1","0","1","0","0.502099599980284","0.462311700015562","0.526070599997183","1","1","1","1","1","1","1","1","1"
"250054","img/neutralC/CFD-AM-230-150-N.jpg","img/neutralC/CFD-BF-247-179-N.jpg",NA,"1","1",NA,"0","0",NA,"0.526070599997183","0.502099599980284",NA,"1","1",NA,"1","1",NA,"1","1",NA
"250054","img/neutralC/CFD-LM-201-057-N.jpg",NA,"img/neutralC/CFD-BM-248-128-N.jpg","1",NA,"1","1",NA,"0","0.578359499981161",NA,"0.601691099989694","1",NA,"1","1",NA,"1","1",NA,"1"
"250054","img/neutralC/CFD-BM-248-128-N.jpg","img/neutralC/CFD-LM-201-057-N.jpg","img/neutralC/CFD-LM-216-082-N.jpg","1","1","1","0","1","0","0.601691099989694","0.578359499981161","0.476525100006256","1","1","1","1","1","1","1","1","1"
"250054","img/neutralC/CFD-LM-216-082-N.jpg","img/neutralC/CFD-BM-248-128-N.jpg","img/neutralC/CFD-AM-247-165-N.jpg","1","1","1","0","0","1","0.476525100006256","0.601691099989694","0.42624469997827","1","1","1","1","1","1","1","1","1"
"250054","img/neutralC/CFD-AM-247-165-N.jpg","img/neutralC/CFD-LM-216-082-N.jpg","img/neutralC/CFD-LM-244-068-N.jpg","1","1","1","1","0","1","0.42624469997827","0.476525100006256","0.408005999983288","1","1","1","1","1","1","1","1","1"
"250054","img/neutralC/CFD-LM-244-068-N.jpg","img/neutralC/CFD-AM-247-165-N.jpg","img/neutralC/CFD-BF-202-109-N.jpg","1","1","1","1","1","1","0.408005999983288","0.42624469997827","0.435107600002084","1","1","1","1","1","1","1","1","1"
"250054","img/neutralC/CFD-BF-202-109-N.jpg","img/neutralC/CFD-LM-244-068-N.jpg","img/neutralC/CFD-WM-249-239-N.jpg","1","1","1","1","1","1","0.435107600002084","0.408005999983288","0.515792999998666","1","1","1","1","1","1","1","1","1"
"250054","img/neutralC/CFD-WM-249-239-N.jpg","img/neutralC/CFD-BF-202-109-N.jpg","img/neutralC/CFD-BF-025-002-N.jpg","1","1","1","1","1","0","0.515792999998666","0.435107600002084","0.919496800022898","1","1","1","1","1","1","1","1","1"
"250054","img/neutralC/CFD-BF-025-002-N.jpg","img/neutralC/CFD-WM-249-239-N.jpg","img/neutralC/CFD-MF-335-002-N.jpg","1","1","1","0","1","0","0.919496800022898","0.515792999998666","0.797570799972164","1","1","1","1","1","1","1","1","1"
"250054","img/neutralC/CFD-MF-335-002-N.jpg","img/neutralC/CFD-BF-025-002-N.jpg","img/neutralC/CFD-BF-212-315-N.jpg","1","1","1","0","0","1","0.797570799972164","0.919496800022898","0.510705199994845","1","1","1","1","1","1","1","1","1"
"250054","img/neutralC/CFD-BF-212-315-N.jpg","img/neutralC/CFD-MF-335-002-N.jpg","img/neutralC/CFD-IM-646-023-N.jpg","1","1","1","1","0","1","0.510705199994845","0.797570799972164","0.435712900012732","1","1","1","1","1","1","1","1","1"
"250054","img/neutralC/CFD-IM-646-023-N.jpg","img/neutralC/CFD-BF-212-315-N.jpg","img/neutralC/CFD-BM-205-001-N.jpg","1","1","1","1","1","0","0.435712900012732","0.510705199994845","0.489521700015757","1","1","1","1","1","1","1","1","1"
"250054","img/neutralC/CFD-BM-205-001-N.jpg","img/neutralC/CFD-IM-646-023-N.jpg","img/neutralC/CFD-WF-017-003-N.jpg","1","1","1","0","1","1","0.489521700015757","0.435712900012732","0.418680800008588","1","1","1","1","1","1","1","1","1"
"250054","img/neutralC/CFD-WF-017-003-N.jpg","img/neutralC/CFD-BM-205-001-N.jpg","img/neutralC/CFD-WM-215-041-N.jpg","1","1","1","1","0","0","0.418680800008588","0.489521700015757","0.402264600008493","1","1","1","1","1","1","1","1","1"
"250054","img/neutralC/CFD-WM-215-041-N.jpg","img/neutralC/CFD-WF-017-003-N.jpg","img/neutralC/CFD-WF-240-083-N.jpg","1","1","1","0","1","0","0.402264600008493","0.418680800008588","0.501439600018784","1","1","1","1","1","1","1","1","1"
"250054","img/neutralC/CFD-WF-240-083-N.jpg","img/neutralC/CFD-WM-215-041-N.jpg","img/neutralC/CFD-WM-026-001-N.jpg","1","1","0","0","0","1","0.501439600018784","0.402264600008493","0.50673269998515","1","1","1","1","1","1","1","1","1"
"250054","img/neutralC/CFD-WM-026-001-N.jpg","img/neutralC/CFD-WF-240-083-N.jpg","img/neutralC/CFD-WM-212-097-N.jpg","0","1","1","1","0","0","0.50673269998515","0.501439600018784","0.530111800006125","1","1","1","1","1","1","1","1","1"
"250054","img/neutralC/CFD-WM-212-097-N.jpg","img/neutralC/CFD-WM-026-001-N.jpg","img/neutralC/CFD-MF-309-002-N.jpg","1","0","1","0","1","0","0.530111800006125","0.50673269998515","0.480726400011918","1","1","1","1","1","1","1","1","1"
"250054","img/neutralC/CFD-MF-309-002-N.jpg","img/neutralC/CFD-WM-212-097-N.jpg","img/neutralC/CFD-WM-006-002-N.jpg","1","1","1","0","0","0","0.480726400011918","0.530111800006125","0.658519799995702","1","1","1","1","1","1","1","1","1"
"250054","img/neutralC/CFD-WM-006-002-N.jpg","img/neutralC/CFD-MF-309-002-N.jpg","img/neutralC/CFD-LM-214-165-N.jpg","1","1","1","0","0","1","0.658519799995702","0.480726400011918","0.477571700001135","1","1","1","1","1","1","1","1","1"
"250054","img/neutralC/CFD-LM-214-165-N.jpg","img/neutralC/CFD-WM-006-002-N.jpg","img/neutralC/CFD-IM-648-337-N.jpg","1","1","1","1","0","0","0.477571700001135","0.658519799995702","0.639063999988139","1","1","1","1","1","1","1","1","1"
"250054","img/neutralC/CFD-IM-648-337-N.jpg","img/neutralC/CFD-LM-214-165-N.jpg","img/neutralC/CFD-IF-642-295-N.jpg","1","1","1","0","1","1","0.639063999988139","0.477571700001135","0.419108299975051","1","1","1","1","1","1","1","1","1"
"250054","img/neutralC/CFD-IF-642-295-N.jpg","img/neutralC/CFD-IM-648-337-N.jpg","img/neutralC/CFD-LM-243-075-N.jpg","1","1","1","1","0","0","0.419108299975051","0.639063999988139","0.540327900002012","1","1","1","1","1","1","1","1","1"
"250054","img/neutralC/CFD-LM-243-075-N.jpg","img/neutralC/CFD-IF-642-295-N.jpg","img/neutralC/CFD-WM-019-003-N.jpg","1","1","1","0","1","1","0.540327900002012","0.419108299975051","0.42762600001879","1","1","1","1","1","1","1","1","1"
"250054","img/neutralC/CFD-WM-019-003-N.jpg","img/neutralC/CFD-LM-243-075-N.jpg","img/neutralC/CFD-WF-228-196-N.jpg","1","1","1","1","0","0","0.42762600001879","0.540327900002012","0.518646899989108","1","1","1","1","1","1","1","1","1"
"250054","img/neutralC/CFD-WF-228-196-N.jpg","img/neutralC/CFD-WM-019-003-N.jpg","img/neutralC/CFD-BF-228-212-N.jpg","1","1","1","0","1","0","0.518646899989108","0.42762600001879","0.547114099987084","1","1","1","1","1","1","1","1","1"
"250054","img/neutralC/CFD-BF-228-212-N.jpg","img/neutralC/CFD-WF-228-196-N.jpg","img/neutralC/CFD-WM-012-001-N.jpg","1","1","1","0","0","1","0.547114099987084","0.518646899989108","0.437449699995341","1","1","1","1","1","1","1","1","1"
"250054","img/neutralC/CFD-WM-012-001-N.jpg","img/neutralC/CFD-BF-228-212-N.jpg","img/neutralC/CFD-BF-041-001-N.jpg","1","1","1","1","0","1","0.437449699995341","0.547114099987084","0.416205000015907","1","1","1","1","1","1","1","1","1"
"250054","img/neutralC/CFD-BF-041-001-N.jpg","img/neutralC/CFD-WM-012-001-N.jpg","img/neutralC/CFD-BM-251-013-N.jpg","1","1","1","1","1","1","0.416205000015907","0.437449699995341","0.452538300014567","1","1","1","1","1","1","1","1","1"
"250054","img/neutralC/CFD-BM-251-013-N.jpg","img/neutralC/CFD-BF-041-001-N.jpg","img/neutralC/CFD-MM-317-061-N.jpg","1","1","1","1","1","1","0.452538300014567","0.416205000015907","0.436424700019415","1","1","1","1","1","1","1","1","1"
"250054","img/neutralC/CFD-MM-317-061-N.jpg","img/neutralC/CFD-BM-251-013-N.jpg","img/neutralC/CFD-WF-005-010-N.jpg","1","1","1","1","1","0","0.436424700019415","0.452538300014567","0.442762599996058","1","1","1","1","1","1","1","1","1"
"250054","img/neutralC/CFD-WF-005-010-N.jpg","img/neutralC/CFD-MM-317-061-N.jpg","img/neutralC/CFD-AF-240-206-N.jpg","1","1","1","0","1","0","0.442762599996058","0.436424700019415","0.475295400014147","1","1","1","1","1","1","1","1","1"
"250054","img/neutralC/CFD-AF-240-206-N.jpg","img/neutralC/CFD-WF-005-010-N.jpg",NA,"1","1",NA,"0","0",NA,"0.475295400014147","0.442762599996058",NA,"1","1",NA,"1","1",NA,"1","1",NA
