"participant_id","current_trial_face","pre_trial_face","post_trial_face","current_trial_accuracy","pre_trial_accuracy","post_trial_accuracy","current_trial_congruency","pre_trial_congruency","post_trial_congruency","current_trial_rt","pre_trial_rt","post_trial_rt","current_trial_responded","pre_trial_responded","post_trial_responded","current_trial_legitResponse","pre_trial_legitResponse","post_trial_legitResponse","current_trial_resp_nums","pre_trial_resp_nums","post_trial_resp_nums"
"250065","img/neutralC/CFD-BF-038-037-N.jpg",NA,"img/neutralC/CFD-IF-623-129-N.jpg","1",NA,"1","1",NA,"1","0.698900099960156",NA,"0.516577500035055","1",NA,"1","1",NA,"1","1",NA,"1"
"250065","img/neutralC/CFD-IF-623-129-N.jpg","img/neutralC/CFD-BF-038-037-N.jpg","img/neutralC/CFD-AM-211-052-N.jpg","1","1","1","1","1","1","0.516577500035055","0.698900099960156","0.442836100002751","1","1","1","1","1","1","1","1","1"
"250065","img/neutralC/CFD-AM-211-052-N.jpg","img/neutralC/CFD-IF-623-129-N.jpg","img/neutralC/CFD-IM-671-601-N.jpg","1","1","1","1","1","0","0.442836100002751","0.516577500035055","0.449939299956895","1","1","1","1","1","1","1","1","1"
"250065","img/neutralC/CFD-IM-671-601-N.jpg","img/neutralC/CFD-AM-211-052-N.jpg","img/neutralC/CFD-MF-333-012-N.jpg","1","1","1","0","1","0","0.449939299956895","0.442836100002751","0.516242799931206","1","1","1","1","1","1","1","1","1"
"250065","img/neutralC/CFD-MF-333-012-N.jpg","img/neutralC/CFD-IM-671-601-N.jpg","img/neutralC/CFD-BM-225-154-N.jpg","1","1","1","0","0","1","0.516242799931206","0.449939299956895","0.565060200053267","1","1","1","1","1","1","1","1","1"
"250065","img/neutralC/CFD-BM-225-154-N.jpg","img/neutralC/CFD-MF-333-012-N.jpg","img/neutralC/CFD-BF-229-179-N.jpg","1","1","1","1","0","0","0.565060200053267","0.516242799931206","0.49214019998908","1","1","1","1","1","1","1","1","1"
"250065","img/neutralC/CFD-BF-229-179-N.jpg","img/neutralC/CFD-BM-225-154-N.jpg","img/neutralC/CFD-WM-004-010-N.jpg","1","1","1","0","1","0","0.49214019998908","0.565060200053267","0.435944300028495","1","1","1","1","1","1","1","1","1"
"250065","img/neutralC/CFD-WM-004-010-N.jpg","img/neutralC/CFD-BF-229-179-N.jpg","img/neutralC/CFD-IM-645-001-N.jpg","1","1","1","0","0","0","0.435944300028495","0.49214019998908","0.476431800052524","1","1","1","1","1","1","1","1","1"
"250065","img/neutralC/CFD-IM-645-001-N.jpg","img/neutralC/CFD-WM-004-010-N.jpg","img/neutralC/CFD-WF-200-099-N.jpg","1","1","1","0","0","0","0.476431800052524","0.435944300028495","0.408852100023068","1","1","1","1","1","1","1","1","1"
"250065","img/neutralC/CFD-WF-200-099-N.jpg","img/neutralC/CFD-IM-645-001-N.jpg","img/neutralC/CFD-IM-703-182-N.jpg","1","1","1","0","0","1","0.408852100023068","0.476431800052524","0.435743700014427","1","1","1","1","1","1","1","1","1"
"250065","img/neutralC/CFD-IM-703-182-N.jpg","img/neutralC/CFD-WF-200-099-N.jpg","img/neutralC/CFD-BF-232-187-N.jpg","1","1","1","1","0","1","0.435743700014427","0.408852100023068","0.392081199912354","1","1","1","1","1","1","1","1","1"
"250065","img/neutralC/CFD-BF-232-187-N.jpg","img/neutralC/CFD-IM-703-182-N.jpg","img/neutralC/CFD-WM-219-008-N.jpg","1","1","1","1","1","0","0.392081199912354","0.435743700014427","0.406660200096667","1","1","1","1","1","1","1","1","1"
"250065","img/neutralC/CFD-WM-219-008-N.jpg","img/neutralC/CFD-BF-232-187-N.jpg","img/neutralC/CFD-BF-226-119-N.jpg","1","1","1","0","1","1","0.406660200096667","0.392081199912354","0.408831299981102","1","1","1","1","1","1","1","1","1"
"250065","img/neutralC/CFD-BF-226-119-N.jpg","img/neutralC/CFD-WM-219-008-N.jpg","img/neutralC/CFD-MF-352-054-N.jpg","1","1","1","1","0","0","0.408831299981102","0.406660200096667","0.393665999989025","1","1","1","1","1","1","1","1","1"
"250065","img/neutralC/CFD-MF-352-054-N.jpg","img/neutralC/CFD-BF-226-119-N.jpg","img/neutralC/CFD-MF-359-019-N.jpg","1","1","1","0","1","0","0.393665999989025","0.408831299981102","0.418274800060317","1","1","1","1","1","1","1","1","1"
"250065","img/neutralC/CFD-MF-359-019-N.jpg","img/neutralC/CFD-MF-352-054-N.jpg","img/neutralC/CFD-AM-242-176-N.jpg","1","1","1","0","0","1","0.418274800060317","0.393665999989025","0.39472940005362","1","1","1","1","1","1","1","1","1"
"250065","img/neutralC/CFD-AM-242-176-N.jpg","img/neutralC/CFD-MF-359-019-N.jpg","img/neutralC/CFD-WF-214-122-N.jpg","1","1","1","1","0","1","0.39472940005362","0.418274800060317","0.376680199988186","1","1","1","1","1","1","1","1","1"
"250065","img/neutralC/CFD-WF-214-122-N.jpg","img/neutralC/CFD-AM-242-176-N.jpg","img/neutralC/CFD-WM-033-025-N.jpg","1","1","1","1","1","1","0.376680199988186","0.39472940005362","0.335167700075544","1","1","1","1","1","1","1","1","1"
"250065","img/neutralC/CFD-WM-033-025-N.jpg","img/neutralC/CFD-WF-214-122-N.jpg","img/neutralC/CFD-WF-001-003-N.jpg","1","1","1","1","1","1","0.335167700075544","0.376680199988186","0.39481510000769","1","1","1","1","1","1","1","1","1"
"250065","img/neutralC/CFD-WF-001-003-N.jpg","img/neutralC/CFD-WM-033-025-N.jpg","img/neutralC/CFD-LM-237-264-N.jpg","1","1","1","1","1","0","0.39481510000769","0.335167700075544","0.403468700009398","1","1","1","1","1","1","1","1","1"
"250065","img/neutralC/CFD-LM-237-264-N.jpg","img/neutralC/CFD-WF-001-003-N.jpg","img/neutralC/CFD-WM-020-001-N.jpg","1","1","1","0","1","1","0.403468700009398","0.39481510000769","0.365221799933352","1","1","1","1","1","1","1","1","1"
"250065","img/neutralC/CFD-WM-020-001-N.jpg","img/neutralC/CFD-LM-237-264-N.jpg","img/neutralC/CFD-LF-220-120-N.jpg","1","1","1","1","0","1","0.365221799933352","0.403468700009398","0.378604399971664","1","1","1","1","1","1","1","1","1"
"250065","img/neutralC/CFD-LF-220-120-N.jpg","img/neutralC/CFD-WM-020-001-N.jpg","img/neutralC/CFD-WF-036-023-N.jpg","1","1","1","1","1","0","0.378604399971664","0.365221799933352","0.32846809993498","1","1","1","1","1","1","1","1","1"
"250065","img/neutralC/CFD-WF-036-023-N.jpg","img/neutralC/CFD-LF-220-120-N.jpg","img/neutralC/CFD-WM-235-147-N.jpg","1","1","0","0","1","0","0.32846809993498","0.378604399971664","0.326324999914505","1","1","1","1","1","1","1","1","2"
"250065","img/neutralC/CFD-WM-235-147-N.jpg","img/neutralC/CFD-WF-036-023-N.jpg","img/neutralC/CFD-BM-253-004-N.jpg","0","1","1","0","0","1","0.326324999914505","0.32846809993498","0.404304699972272","1","1","1","1","1","1","2","1","1"
"250065","img/neutralC/CFD-BM-253-004-N.jpg","img/neutralC/CFD-WM-235-147-N.jpg","img/neutralC/CFD-AM-251-124-N.jpg","1","0","1","1","0","0","0.404304699972272","0.326324999914505","0.47272239997983","1","1","1","1","1","1","1","2","1"
"250065","img/neutralC/CFD-AM-251-124-N.jpg","img/neutralC/CFD-BM-253-004-N.jpg","img/neutralC/CFD-IM-616-214-N.jpg","1","1","1","0","1","0","0.47272239997983","0.404304699972272","0.437417099950835","1","1","1","1","1","1","1","1","1"
"250065","img/neutralC/CFD-IM-616-214-N.jpg","img/neutralC/CFD-AM-251-124-N.jpg","img/neutralC/CFD-IM-743-006-N.jpg","1","1","1","0","0","1","0.437417099950835","0.47272239997983","0.372830900014378","1","1","1","1","1","1","1","1","1"
"250065","img/neutralC/CFD-IM-743-006-N.jpg","img/neutralC/CFD-IM-616-214-N.jpg","img/neutralC/CFD-LM-228-188-N.jpg","1","1","1","1","0","1","0.372830900014378","0.437417099950835","0.364853400038555","1","1","1","1","1","1","1","1","1"
"250065","img/neutralC/CFD-LM-228-188-N.jpg","img/neutralC/CFD-IM-743-006-N.jpg","img/neutralC/CFD-LF-218-072-N.jpg","1","1","1","1","1","0","0.364853400038555","0.372830900014378","0.433798399986699","1","1","1","1","1","1","1","1","1"
"250065","img/neutralC/CFD-LF-218-072-N.jpg","img/neutralC/CFD-LM-228-188-N.jpg","img/neutralC/CFD-IF-650-315-N.jpg","1","1","1","0","1","0","0.433798399986699","0.364853400038555","0.411631499999203","1","1","1","1","1","1","1","1","1"
"250065","img/neutralC/CFD-IF-650-315-N.jpg","img/neutralC/CFD-LF-218-072-N.jpg",NA,"1","1",NA,"0","0",NA,"0.411631499999203","0.433798399986699",NA,"1","1",NA,"1","1",NA,"1","1",NA
"250065","img/neutralC/CFD-AF-202-122-N.jpg",NA,"img/neutralC/CFD-LF-242-121-N.jpg","1",NA,"1","1",NA,"0","0.381481599994004",NA,"0.413090299931355","1",NA,"1","1",NA,"1","1",NA,"1"
"250065","img/neutralC/CFD-LF-242-121-N.jpg","img/neutralC/CFD-AF-202-122-N.jpg","img/neutralC/CFD-LF-247-051-N.jpg","1","1","1","0","1","1","0.413090299931355","0.381481599994004","0.380831000045873","1","1","1","1","1","1","1","1","1"
"250065","img/neutralC/CFD-LF-247-051-N.jpg","img/neutralC/CFD-LF-242-121-N.jpg","img/neutralC/CFD-WM-227-099-N.jpg","1","1","1","1","0","1","0.380831000045873","0.413090299931355","0.323661000002176","1","1","1","1","1","1","1","1","1"
"250065","img/neutralC/CFD-WM-227-099-N.jpg","img/neutralC/CFD-LF-247-051-N.jpg","img/neutralC/CFD-BM-005-003-N.jpg","1","1","1","1","1","1","0.323661000002176","0.380831000045873","0.374672499950975","1","1","1","1","1","1","1","1","1"
"250065","img/neutralC/CFD-BM-005-003-N.jpg","img/neutralC/CFD-WM-227-099-N.jpg","img/neutralC/CFD-IM-686-097-N.jpg","1","1","0","1","1","0","0.374672499950975","0.323661000002176","0.310526299988851","1","1","1","1","1","1","1","1","1"
"250065","img/neutralC/CFD-IM-686-097-N.jpg","img/neutralC/CFD-BM-005-003-N.jpg","img/neutralC/CFD-IM-657-308-N.jpg","0","1","1","0","1","0","0.310526299988851","0.374672499950975","0.457285600015894","1","1","1","1","1","1","1","1","1"
"250065","img/neutralC/CFD-IM-657-308-N.jpg","img/neutralC/CFD-IM-686-097-N.jpg","img/neutralC/CFD-IM-638-250-1-N.jpg","1","0","1","0","0","1","0.457285600015894","0.310526299988851","0.367747299955226","1","1","1","1","1","1","1","1","1"
"250065","img/neutralC/CFD-IM-638-250-1-N.jpg","img/neutralC/CFD-IM-657-308-N.jpg","img/neutralC/CFD-BF-010-001-N.jpg","1","1","1","1","0","1","0.367747299955226","0.457285600015894","0.371661299956031","1","1","1","1","1","1","1","1","1"
"250065","img/neutralC/CFD-BF-010-001-N.jpg","img/neutralC/CFD-IM-638-250-1-N.jpg","img/neutralC/CFD-LF-245-166-N.jpg","1","1","1","1","1","1","0.371661299956031","0.367747299955226","0.335659599979408","1","1","1","1","1","1","1","1","1"
"250065","img/neutralC/CFD-LF-245-166-N.jpg","img/neutralC/CFD-BF-010-001-N.jpg","img/neutralC/CFD-WF-209-052-N.jpg","1","1","1","1","1","1","0.335659599979408","0.371661299956031","0.340712700039148","1","1","1","1","1","1","1","1","1"
"250065","img/neutralC/CFD-WF-209-052-N.jpg","img/neutralC/CFD-LF-245-166-N.jpg","img/neutralC/CFD-IF-620-218-N.jpg","1","1","1","1","1","0","0.340712700039148","0.335659599979408","0.469655799912289","1","1","1","1","1","1","1","1","2"
"250065","img/neutralC/CFD-IF-620-218-N.jpg","img/neutralC/CFD-WF-209-052-N.jpg","img/neutralC/CFD-BM-026-002-N.jpg","1","1","0","0","1","0","0.469655799912289","0.340712700039148","0.409463300020434","1","1","1","1","1","1","2","1","2"
"250065","img/neutralC/CFD-BM-026-002-N.jpg","img/neutralC/CFD-IF-620-218-N.jpg","img/neutralC/CFD-MF-313-002-N.jpg","0","1","1","0","0","0","0.409463300020434","0.469655799912289","0.460084100021049","1","1","1","1","1","1","2","2","1"
"250065","img/neutralC/CFD-MF-313-002-N.jpg","img/neutralC/CFD-BM-026-002-N.jpg","img/neutralC/CFD-IM-727-195-N.jpg","1","0","1","0","0","1","0.460084100021049","0.409463300020434","0.416333799948916","1","1","1","1","1","1","1","2","1"
"250065","img/neutralC/CFD-IM-727-195-N.jpg","img/neutralC/CFD-MF-313-002-N.jpg","img/neutralC/CFD-IM-653-008-N.jpg","1","1","1","1","0","0","0.416333799948916","0.460084100021049","0.497926300042309","1","1","1","1","1","1","1","1","1"
"250065","img/neutralC/CFD-IM-653-008-N.jpg","img/neutralC/CFD-IM-727-195-N.jpg","img/neutralC/CFD-AF-241-141-N.jpg","1","1","1","0","1","1","0.497926300042309","0.416333799948916","0.36588950001169","1","1","1","1","1","1","1","1","1"
"250065","img/neutralC/CFD-AF-241-141-N.jpg","img/neutralC/CFD-IM-653-008-N.jpg","img/neutralC/CFD-IF-665-015-N.jpg","1","1","1","1","0","0","0.36588950001169","0.497926300042309","0.454235499957576","1","1","1","1","1","1","1","1","1"
"250065","img/neutralC/CFD-IF-665-015-N.jpg","img/neutralC/CFD-AF-241-141-N.jpg","img/neutralC/CFD-BF-238-190-N.jpg","1","1","1","0","1","1","0.454235499957576","0.36588950001169","0.334616599953733","1","1","1","1","1","1","1","1","1"
"250065","img/neutralC/CFD-BF-238-190-N.jpg","img/neutralC/CFD-IF-665-015-N.jpg","img/neutralC/CFD-BF-033-028-N.jpg","1","1","1","1","0","0","0.334616599953733","0.454235499957576","0.444074800005183","1","1","1","1","1","1","1","1","1"
"250065","img/neutralC/CFD-BF-033-028-N.jpg","img/neutralC/CFD-BF-238-190-N.jpg","img/neutralC/CFD-BM-231-155-N.jpg","1","1","1","0","1","1","0.444074800005183","0.334616599953733","0.323825999977998","1","1","1","1","1","1","1","1","1"
"250065","img/neutralC/CFD-BM-231-155-N.jpg","img/neutralC/CFD-BF-033-028-N.jpg","img/neutralC/CFD-WM-017-002-N.jpg","1","1","1","1","0","0","0.323825999977998","0.444074800005183","0.39003250002861","1","1","1","1","1","1","1","1","1"
"250065","img/neutralC/CFD-WM-017-002-N.jpg","img/neutralC/CFD-BM-231-155-N.jpg","img/neutralC/CFD-WM-258-125-N.jpg","1","1","1","0","1","0","0.39003250002861","0.323825999977998","0.404097100021318","1","1","1","1","1","1","1","1","1"
"250065","img/neutralC/CFD-WM-258-125-N.jpg","img/neutralC/CFD-WM-017-002-N.jpg","img/neutralC/CFD-BM-018-001-N.jpg","1","1","1","0","0","1","0.404097100021318","0.39003250002861","0.369106699945405","1","1","1","1","1","1","1","1","1"
"250065","img/neutralC/CFD-BM-018-001-N.jpg","img/neutralC/CFD-WM-258-125-N.jpg","img/neutralC/CFD-IM-617-174-N.jpg","1","1","1","1","0","0","0.369106699945405","0.404097100021318","0.42307969997637","1","1","1","1","1","1","1","1","1"
"250065","img/neutralC/CFD-IM-617-174-N.jpg","img/neutralC/CFD-BM-018-001-N.jpg","img/neutralC/CFD-LF-250-169-N.jpg","1","1","1","0","1","1","0.42307969997637","0.369106699945405","0.355229399981909","1","1","1","1","1","1","1","1","1"
"250065","img/neutralC/CFD-LF-250-169-N.jpg","img/neutralC/CFD-IM-617-174-N.jpg","img/neutralC/CFD-LM-233-171-N.jpg","1","1","0","1","0","0","0.355229399981909","0.42307969997637","0.392416700022295","1","1","1","1","1","1","1","1","1"
"250065","img/neutralC/CFD-LM-233-171-N.jpg","img/neutralC/CFD-LF-250-169-N.jpg","img/neutralC/CFD-WM-242-011-N.jpg","0","1","0","0","1","0","0.392416700022295","0.355229399981909","0.470905900001526","1","1","1","1","1","1","1","1","1"
"250065","img/neutralC/CFD-WM-242-011-N.jpg","img/neutralC/CFD-LM-233-171-N.jpg","img/neutralC/CFD-LM-219-295-N.jpg","0","0","1","0","0","1","0.470905900001526","0.392416700022295","0.395916700013913","1","1","1","1","1","1","1","1","1"
"250065","img/neutralC/CFD-LM-219-295-N.jpg","img/neutralC/CFD-WM-242-011-N.jpg","img/neutralC/CFD-BM-212-117-N.jpg","1","0","0","1","0","0","0.395916700013913","0.470905900001526","0.504428400075994","1","1","1","1","1","1","1","1","1"
"250065","img/neutralC/CFD-BM-212-117-N.jpg","img/neutralC/CFD-LM-219-295-N.jpg","img/neutralC/CFD-LM-226-175-N.jpg","0","1","1","0","1","0","0.504428400075994","0.395916700013913","0.416268900036812","1","1","1","1","1","1","1","1","1"
"250065","img/neutralC/CFD-LM-226-175-N.jpg","img/neutralC/CFD-BM-212-117-N.jpg","img/neutralC/CFD-AF-206-079-N.jpg","1","0","1","0","0","1","0.416268900036812","0.504428400075994","0.407683499972336","1","1","1","1","1","1","1","1","1"
"250065","img/neutralC/CFD-AF-206-079-N.jpg","img/neutralC/CFD-LM-226-175-N.jpg",NA,"1","1",NA,"1","0",NA,"0.407683499972336","0.416268900036812",NA,"1","1",NA,"1","1",NA,"1","1",NA
"250065","img/neutralC/CFD-WF-223-133-N.jpg",NA,"img/neutralC/CFD-LF-210-220-N.jpg","1",NA,"1","0",NA,"1","0.557300699991174",NA,"0.429434299934655","1",NA,"1","1",NA,"1","1",NA,"1"
"250065","img/neutralC/CFD-LF-210-220-N.jpg","img/neutralC/CFD-WF-223-133-N.jpg","img/neutralC/CFD-LM-238-129-N.jpg","1","1","1","1","0","1","0.429434299934655","0.557300699991174","0.374416900100186","1","1","1","1","1","1","1","1","1"
"250065","img/neutralC/CFD-LM-238-129-N.jpg","img/neutralC/CFD-LF-210-220-N.jpg","img/neutralC/CFD-IF-625-225-N.jpg","1","1","1","1","1","0","0.374416900100186","0.429434299934655","0.467931699939072","1","1","1","1","1","1","1","1","1"
"250065","img/neutralC/CFD-IF-625-225-N.jpg","img/neutralC/CFD-LM-238-129-N.jpg","img/neutralC/CFD-WF-006-002-N.jpg","1","1","1","0","1","0","0.467931699939072","0.374416900100186","0.383827900048345","1","1","1","1","1","1","1","1","1"
"250065","img/neutralC/CFD-WF-006-002-N.jpg","img/neutralC/CFD-IF-625-225-N.jpg","img/neutralC/CFD-LM-247-095-N.jpg","1","1","1","0","0","0","0.383827900048345","0.467931699939072","0.413070900016464","1","1","1","1","1","1","1","1","1"
"250065","img/neutralC/CFD-LM-247-095-N.jpg","img/neutralC/CFD-WF-006-002-N.jpg","img/neutralC/CFD-WM-254-152-N.jpg","1","1","1","0","0","1","0.413070900016464","0.383827900048345","0.353586999932304","1","1","1","1","1","1","1","1","1"
"250065","img/neutralC/CFD-WM-254-152-N.jpg","img/neutralC/CFD-LM-247-095-N.jpg","img/neutralC/CFD-IM-701-312-N.jpg","1","1","0","1","0","0","0.353586999932304","0.413070900016464","0.401332400040701","1","1","1","1","1","1","1","1","1"
"250065","img/neutralC/CFD-IM-701-312-N.jpg","img/neutralC/CFD-WM-254-152-N.jpg","img/neutralC/CFD-IF-744-114-N.jpg","0","1","1","0","1","0","0.401332400040701","0.353586999932304","0.413275999948382","1","1","1","1","1","1","1","1","1"
"250065","img/neutralC/CFD-IF-744-114-N.jpg","img/neutralC/CFD-IM-701-312-N.jpg","img/neutralC/CFD-IM-738-191-N.jpg","1","0","1","0","0","0","0.413275999948382","0.401332400040701","0.431113400030881","1","1","1","1","1","1","1","1","1"
"250065","img/neutralC/CFD-IM-738-191-N.jpg","img/neutralC/CFD-IF-744-114-N.jpg","img/neutralC/CFD-WM-228-065-N.jpg","1","1","1","0","0","0","0.431113400030881","0.413275999948382","0.453390499926172","1","1","1","1","1","1","1","1","1"
"250065","img/neutralC/CFD-WM-228-065-N.jpg","img/neutralC/CFD-IM-738-191-N.jpg","img/neutralC/CFD-AF-227-207-N.jpg","1","1","1","0","0","1","0.453390499926172","0.431113400030881","0.603966999915428","1","1","1","1","1","1","1","1","1"
"250065","img/neutralC/CFD-AF-227-207-N.jpg","img/neutralC/CFD-WM-228-065-N.jpg","img/neutralC/CFD-BF-004-014-N.jpg","1","1","1","1","0","1","0.603966999915428","0.453390499926172","0.413603900000453","1","1","1","1","1","1","1","1","1"
"250065","img/neutralC/CFD-BF-004-014-N.jpg","img/neutralC/CFD-AF-227-207-N.jpg","img/neutralC/CFD-IF-673-389-N.jpg","1","1","1","1","1","0","0.413603900000453","0.603966999915428","0.502275999984704","1","1","1","1","1","1","1","1","1"
"250065","img/neutralC/CFD-IF-673-389-N.jpg","img/neutralC/CFD-BF-004-014-N.jpg","img/neutralC/CFD-LF-241-188-N.jpg","1","1","1","0","1","0","0.502275999984704","0.413603900000453","0.392574700061232","1","1","1","1","1","1","1","1","1"
"250065","img/neutralC/CFD-LF-241-188-N.jpg","img/neutralC/CFD-IF-673-389-N.jpg","img/neutralC/CFD-BM-028-002-N.jpg","1","1","1","0","0","1","0.392574700061232","0.502275999984704","0.393681599991396","1","1","1","1","1","1","1","1","1"
"250065","img/neutralC/CFD-BM-028-002-N.jpg","img/neutralC/CFD-LF-241-188-N.jpg","img/neutralC/CFD-IM-659-359-N.jpg","1","1","1","1","0","0","0.393681599991396","0.392574700061232","0.536260200082324","1","1","1","1","1","1","1","1","1"
"250065","img/neutralC/CFD-IM-659-359-N.jpg","img/neutralC/CFD-BM-028-002-N.jpg","img/neutralC/CFD-LF-208-127-N.jpg","1","1","1","0","1","0","0.536260200082324","0.393681599991396","0.498989499988966","1","1","1","1","1","1","1","1","1"
"250065","img/neutralC/CFD-LF-208-127-N.jpg","img/neutralC/CFD-IM-659-359-N.jpg","img/neutralC/CFD-AF-210-050-N.jpg","1","1","1","0","0","1","0.498989499988966","0.536260200082324","0.352068300009705","1","1","1","1","1","1","1","1","1"
"250065","img/neutralC/CFD-AF-210-050-N.jpg","img/neutralC/CFD-LF-208-127-N.jpg","img/neutralC/CFD-LF-225-164-N.jpg","1","1","1","1","0","1","0.352068300009705","0.498989499988966","0.329277800046839","1","1","1","1","1","1","1","1","1"
"250065","img/neutralC/CFD-LF-225-164-N.jpg","img/neutralC/CFD-AF-210-050-N.jpg","img/neutralC/CFD-WF-033-002-N.jpg","1","1","1","1","1","1","0.329277800046839","0.352068300009705","0.405609800014645","1","1","1","1","1","1","1","1","1"
"250065","img/neutralC/CFD-WF-033-002-N.jpg","img/neutralC/CFD-LF-225-164-N.jpg","img/neutralC/CFD-BF-045-003-N.jpg","1","1","0","1","1","0","0.405609800014645","0.329277800046839","0.373128499952145","1","1","1","1","1","1","1","1","1"
"250065","img/neutralC/CFD-BF-045-003-N.jpg","img/neutralC/CFD-WF-033-002-N.jpg","img/neutralC/CFD-BM-003-003-N.jpg","0","1","1","0","1","0","0.373128499952145","0.405609800014645","0.412728799972683","1","1","1","1","1","1","1","1","1"
"250065","img/neutralC/CFD-BM-003-003-N.jpg","img/neutralC/CFD-BF-045-003-N.jpg","img/neutralC/CFD-BF-222-240-N.jpg","1","0","1","0","0","0","0.412728799972683","0.373128499952145","0.478784800041467","1","1","1","1","1","1","1","1","1"
"250065","img/neutralC/CFD-BF-222-240-N.jpg","img/neutralC/CFD-BM-003-003-N.jpg","img/neutralC/CFD-MF-312-002-N.jpg","1","1","1","0","0","1","0.478784800041467","0.412728799972683","0.380276400013827","1","1","1","1","1","1","1","1","1"
"250065","img/neutralC/CFD-MF-312-002-N.jpg","img/neutralC/CFD-BF-222-240-N.jpg","img/neutralC/CFD-BM-010-003-N.jpg","1","1","1","1","0","0","0.380276400013827","0.478784800041467","0.378455099998973","1","1","1","1","1","1","1","1","1"
"250065","img/neutralC/CFD-BM-010-003-N.jpg","img/neutralC/CFD-MF-312-002-N.jpg","img/neutralC/CFD-MF-336-016-N.jpg","1","1","1","0","1","1","0.378455099998973","0.380276400013827","0.412771399947815","1","1","1","1","1","1","1","1","1"
"250065","img/neutralC/CFD-MF-336-016-N.jpg","img/neutralC/CFD-BM-010-003-N.jpg","img/neutralC/CFD-AM-221-184-N.jpg","1","1","1","1","0","1","0.412771399947815","0.378455099998973","0.365697699948214","1","1","1","1","1","1","1","1","1"
"250065","img/neutralC/CFD-AM-221-184-N.jpg","img/neutralC/CFD-MF-336-016-N.jpg","img/neutralC/CFD-AF-239-171-N.jpg","1","1","1","1","1","1","0.365697699948214","0.412771399947815","0.411940700025298","1","1","1","1","1","1","1","1","1"
"250065","img/neutralC/CFD-AF-239-171-N.jpg","img/neutralC/CFD-AM-221-184-N.jpg","img/neutralC/CFD-WM-202-107-N.jpg","1","1","1","1","1","1","0.411940700025298","0.365697699948214","0.367109499988146","1","1","1","1","1","1","1","1","1"
"250065","img/neutralC/CFD-WM-202-107-N.jpg","img/neutralC/CFD-AF-239-171-N.jpg","img/neutralC/CFD-BM-013-002-N.jpg","1","1","1","1","1","1","0.367109499988146","0.411940700025298","0.36409090005327","1","1","1","1","1","1","1","1","1"
"250065","img/neutralC/CFD-BM-013-002-N.jpg","img/neutralC/CFD-WM-202-107-N.jpg","img/neutralC/CFD-BM-213-134-N.jpg","1","1","1","1","1","1","0.36409090005327","0.367109499988146","0.376864300109446","1","1","1","1","1","1","1","1","1"
"250065","img/neutralC/CFD-BM-213-134-N.jpg","img/neutralC/CFD-BM-013-002-N.jpg",NA,"1","1",NA,"1","1",NA,"0.376864300109446","0.36409090005327",NA,"1","1",NA,"1","1",NA,"1","1",NA
"250065","img/neutralC/CFD-MF-328-020-N.jpg",NA,"img/neutralC/CFD-WM-025-002-N.jpg","0",NA,"1","0",NA,"0","0.894984800019301",NA,"0.679212799994275","1",NA,"1","1",NA,"1","1",NA,"1"
"250065","img/neutralC/CFD-WM-025-002-N.jpg","img/neutralC/CFD-MF-328-020-N.jpg","img/neutralC/CFD-AM-243-212-N.jpg","1","0","1","0","0","1","0.679212799994275","0.894984800019301","0.412017500028014","1","1","1","1","1","1","1","1","1"
"250065","img/neutralC/CFD-AM-243-212-N.jpg","img/neutralC/CFD-WM-025-002-N.jpg","img/neutralC/CFD-WF-009-001-N.jpg","1","1","1","1","0","1","0.412017500028014","0.679212799994275","0.352611800073646","1","1","1","1","1","1","1","1","1"
"250065","img/neutralC/CFD-WF-009-001-N.jpg","img/neutralC/CFD-AM-243-212-N.jpg","img/neutralC/CFD-BM-043-071-N.jpg","1","1","1","1","1","0","0.352611800073646","0.412017500028014","0.375326000037603","1","1","1","1","1","1","1","1","1"
"250065","img/neutralC/CFD-BM-043-071-N.jpg","img/neutralC/CFD-WF-009-001-N.jpg","img/neutralC/CFD-MM-306-010-N.jpg","1","1","1","0","1","0","0.375326000037603","0.352611800073646","0.407387499930337","1","1","1","1","1","1","1","1","1"
"250065","img/neutralC/CFD-MM-306-010-N.jpg","img/neutralC/CFD-BM-043-071-N.jpg","img/neutralC/CFD-IM-689-263-N.jpg","1","1","1","0","0","1","0.407387499930337","0.375326000037603","0.409752400009893","1","1","1","1","1","1","1","1","1"
"250065","img/neutralC/CFD-IM-689-263-N.jpg","img/neutralC/CFD-MM-306-010-N.jpg","img/neutralC/CFD-LF-212-066-N.jpg","1","1","1","1","0","1","0.409752400009893","0.407387499930337","0.374908199999481","1","1","1","1","1","1","1","1","1"
"250065","img/neutralC/CFD-LF-212-066-N.jpg","img/neutralC/CFD-IM-689-263-N.jpg","img/neutralC/CFD-BF-244-231-N.jpg","1","1","1","1","1","1","0.374908199999481","0.409752400009893","0.392224499955773","1","1","1","1","1","1","1","1","1"
"250065","img/neutralC/CFD-BF-244-231-N.jpg","img/neutralC/CFD-LF-212-066-N.jpg","img/neutralC/CFD-WF-243-148-N.jpg","1","1","0","1","1","0","0.392224499955773","0.374908199999481","0.383905900060199","1","1","1","1","1","1","1","1","1"
"250065","img/neutralC/CFD-WF-243-148-N.jpg","img/neutralC/CFD-BF-244-231-N.jpg","img/neutralC/CFD-LM-240-013-N.jpg","0","1","1","0","1","1","0.383905900060199","0.392224499955773","0.402725699939765","1","1","1","1","1","1","1","1","1"
"250065","img/neutralC/CFD-LM-240-013-N.jpg","img/neutralC/CFD-WF-243-148-N.jpg","img/neutralC/CFD-IF-676-017-N.jpg","1","0","1","1","0","1","0.402725699939765","0.383905900060199","0.428392400033772","1","1","1","1","1","1","1","1","1"
"250065","img/neutralC/CFD-IF-676-017-N.jpg","img/neutralC/CFD-LM-240-013-N.jpg","img/neutralC/CFD-WF-207-014-N.jpg","1","1","1","1","1","1","0.428392400033772","0.402725699939765","0.355321499984711","1","1","1","1","1","1","1","1","1"
"250065","img/neutralC/CFD-WF-207-014-N.jpg","img/neutralC/CFD-IF-676-017-N.jpg","img/neutralC/CFD-BF-012-001-N.jpg","1","1","1","1","1","0","0.355321499984711","0.428392400033772","0.495516699971631","1","1","1","1","1","1","1","1","1"
"250065","img/neutralC/CFD-BF-012-001-N.jpg","img/neutralC/CFD-WF-207-014-N.jpg","img/neutralC/CFD-IM-697-015-N.jpg","1","1","1","0","1","1","0.495516699971631","0.355321499984711","0.383931600023061","1","1","1","1","1","1","1","1","1"
"250065","img/neutralC/CFD-IM-697-015-N.jpg","img/neutralC/CFD-BF-012-001-N.jpg","img/neutralC/CFD-WF-241-210-N.jpg","1","1","1","1","0","0","0.383931600023061","0.495516699971631","0.475261199986562","1","1","1","1","1","1","1","1","1"
"250065","img/neutralC/CFD-WF-241-210-N.jpg","img/neutralC/CFD-IM-697-015-N.jpg","img/neutralC/CFD-IM-615-167-N.jpg","1","1","0","0","1","0","0.475261199986562","0.383931600023061","0.42209919996094","1","1","1","1","1","1","1","1","1"
"250065","img/neutralC/CFD-IM-615-167-N.jpg","img/neutralC/CFD-WF-241-210-N.jpg","img/neutralC/CFD-IM-606-008-N.jpg","0","1","1","0","0","0","0.42209919996094","0.475261199986562","0.494766700081527","1","1","1","1","1","1","1","1","1"
"250065","img/neutralC/CFD-IM-606-008-N.jpg","img/neutralC/CFD-IM-615-167-N.jpg","img/neutralC/CFD-BM-030-003-N.jpg","1","0","1","0","0","0","0.494766700081527","0.42209919996094","0.439699400099926","1","1","1","1","1","1","1","1","1"
"250065","img/neutralC/CFD-BM-030-003-N.jpg","img/neutralC/CFD-IM-606-008-N.jpg","img/neutralC/CFD-WM-023-001-N.jpg","1","1","1","0","0","0","0.439699400099926","0.494766700081527","0.474259799928404","1","1","1","1","1","1","1","1","1"
"250065","img/neutralC/CFD-WM-023-001-N.jpg","img/neutralC/CFD-BM-030-003-N.jpg","img/neutralC/CFD-WM-028-003-N.jpg","1","1","1","0","0","1","0.474259799928404","0.439699400099926","0.393848599982448","1","1","1","1","1","1","1","1","1"
"250065","img/neutralC/CFD-WM-028-003-N.jpg","img/neutralC/CFD-WM-023-001-N.jpg","img/neutralC/CFD-BM-020-001-N.jpg","1","1","1","1","0","0","0.393848599982448","0.474259799928404","0.440264000091702","1","1","1","1","1","1","1","1","1"
"250065","img/neutralC/CFD-BM-020-001-N.jpg","img/neutralC/CFD-WM-028-003-N.jpg","img/neutralC/CFD-AF-237-223-N.jpg","1","1","1","0","1","0","0.440264000091702","0.393848599982448","0.442621399997734","1","1","1","1","1","1","1","1","1"
"250065","img/neutralC/CFD-AF-237-223-N.jpg","img/neutralC/CFD-BM-020-001-N.jpg","img/neutralC/CFD-BM-227-191-N.jpg","1","1","1","0","0","1","0.442621399997734","0.440264000091702","0.387091999989934","1","1","1","1","1","1","1","1","1"
"250065","img/neutralC/CFD-BM-227-191-N.jpg","img/neutralC/CFD-AF-237-223-N.jpg","img/neutralC/CFD-AM-205-153-N.jpg","1","1","1","1","0","1","0.387091999989934","0.442621399997734","0.437422300106846","1","1","1","1","1","1","1","1","1"
"250065","img/neutralC/CFD-AM-205-153-N.jpg","img/neutralC/CFD-BM-227-191-N.jpg","img/neutralC/CFD-AM-219-101-N.jpg","1","1","0","1","1","0","0.437422300106846","0.387091999989934","0.420835700002499","1","1","1","1","1","1","1","1","1"
"250065","img/neutralC/CFD-AM-219-101-N.jpg","img/neutralC/CFD-AM-205-153-N.jpg","img/neutralC/CFD-BM-021-021-N.jpg","0","1","1","0","1","1","0.420835700002499","0.437422300106846","0.423681000014767","1","1","1","1","1","1","1","1","1"
"250065","img/neutralC/CFD-BM-021-021-N.jpg","img/neutralC/CFD-AM-219-101-N.jpg","img/neutralC/CFD-LF-238-154-N.jpg","1","0","1","1","0","1","0.423681000014767","0.420835700002499","0.391974800033495","1","1","1","1","1","1","1","1","1"
"250065","img/neutralC/CFD-LF-238-154-N.jpg","img/neutralC/CFD-BM-021-021-N.jpg","img/neutralC/CFD-LF-222-147-N.jpg","1","1","0","1","1","0","0.391974800033495","0.423681000014767","0.405909299966879","1","1","1","1","1","1","1","1","1"
"250065","img/neutralC/CFD-LF-222-147-N.jpg","img/neutralC/CFD-LF-238-154-N.jpg","img/neutralC/CFD-WF-221-005-N.jpg","0","1","1","0","1","0","0.405909299966879","0.391974800033495","0.468689800007269","1","1","1","1","1","1","1","1","1"
"250065","img/neutralC/CFD-WF-221-005-N.jpg","img/neutralC/CFD-LF-222-147-N.jpg","img/neutralC/CFD-BM-009-002-N.jpg","1","0","1","0","0","1","0.468689800007269","0.405909299966879","0.454385000048205","1","1","1","1","1","1","1","1","1"
"250065","img/neutralC/CFD-BM-009-002-N.jpg","img/neutralC/CFD-WF-221-005-N.jpg","img/neutralC/CFD-AM-249-163-N.jpg","1","1","1","1","0","1","0.454385000048205","0.468689800007269","0.504190400009975","1","1","1","1","1","1","1","1","1"
"250065","img/neutralC/CFD-AM-249-163-N.jpg","img/neutralC/CFD-BM-009-002-N.jpg",NA,"1","1",NA,"1","1",NA,"0.504190400009975","0.454385000048205",NA,"1","1",NA,"1","1",NA,"1","1",NA
"250065","img/neutralC/CFD-WF-007-001-N.jpg",NA,"img/neutralC/CFD-WF-030-002-N.jpg","1",NA,"1","1",NA,"0","0.375673900009133",NA,"0.404719099984504","1",NA,"1","1",NA,"1","1",NA,"1"
"250065","img/neutralC/CFD-WF-030-002-N.jpg","img/neutralC/CFD-WF-007-001-N.jpg","img/neutralC/CFD-LM-225-130-N.jpg","1","1","1","0","1","0","0.404719099984504","0.375673900009133","0.439096200047061","1","1","1","1","1","1","1","1","1"
"250065","img/neutralC/CFD-LM-225-130-N.jpg","img/neutralC/CFD-WF-030-002-N.jpg","img/neutralC/CFD-WM-218-074-N.jpg","1","1","1","0","0","1","0.439096200047061","0.404719099984504","0.367826999980025","1","1","1","1","1","1","1","1","1"
"250065","img/neutralC/CFD-WM-218-074-N.jpg","img/neutralC/CFD-LM-225-130-N.jpg","img/neutralC/CFD-IM-702-101-N.jpg","1","1","1","1","0","1","0.367826999980025","0.439096200047061","0.426314100041054","1","1","1","1","1","1","1","1","1"
"250065","img/neutralC/CFD-IM-702-101-N.jpg","img/neutralC/CFD-WM-218-074-N.jpg","img/neutralC/CFD-MF-316-001-N.jpg","1","1","1","1","1","0","0.426314100041054","0.367826999980025","0.444567400030792","1","1","1","1","1","1","1","1","1"
"250065","img/neutralC/CFD-MF-316-001-N.jpg","img/neutralC/CFD-IM-702-101-N.jpg","img/neutralC/CFD-MM-324-069-N.jpg","1","1","1","0","1","1","0.444567400030792","0.426314100041054","0.382465899921954","1","1","1","1","1","1","1","1","1"
"250065","img/neutralC/CFD-MM-324-069-N.jpg","img/neutralC/CFD-MF-316-001-N.jpg","img/neutralC/CFD-MF-357-002-N.jpg","1","1","1","1","0","0","0.382465899921954","0.444567400030792","0.485636600060389","1","1","1","1","1","1","1","1","1"
"250065","img/neutralC/CFD-MF-357-002-N.jpg","img/neutralC/CFD-MM-324-069-N.jpg","img/neutralC/CFD-IM-664-651-N.jpg","1","1","1","0","1","1","0.485636600060389","0.382465899921954","0.355123499990441","1","1","1","1","1","1","1","1","1"
"250065","img/neutralC/CFD-IM-664-651-N.jpg","img/neutralC/CFD-MF-357-002-N.jpg","img/neutralC/CFD-AF-233-190-N.jpg","1","1","1","1","0","0","0.355123499990441","0.485636600060389","0.586815899936482","1","1","1","1","1","1","1","1","1"
"250065","img/neutralC/CFD-AF-233-190-N.jpg","img/neutralC/CFD-IM-664-651-N.jpg","img/neutralC/CFD-BM-217-082-N.jpg","1","1","1","0","1","0","0.586815899936482","0.355123499990441","0.613869599997997","1","1","1","1","1","1","1","1","1"
"250065","img/neutralC/CFD-BM-217-082-N.jpg","img/neutralC/CFD-AF-233-190-N.jpg","img/neutralC/CFD-BM-250-170-N.jpg","1","1","1","0","0","1","0.613869599997997","0.586815899936482","0.557507200050168","1","1","1","1","1","1","1","1","1"
"250065","img/neutralC/CFD-BM-250-170-N.jpg","img/neutralC/CFD-BM-217-082-N.jpg","img/neutralC/CFD-BF-237-172-N.jpg","1","1","1","1","0","1","0.557507200050168","0.613869599997997","0.401085100020282","1","1","1","1","1","1","1","1","1"
"250065","img/neutralC/CFD-BF-237-172-N.jpg","img/neutralC/CFD-BM-250-170-N.jpg","img/neutralC/CFD-AF-253-130-N.jpg","1","1","1","1","1","1","0.401085100020282","0.557507200050168","0.429917000001296","1","1","1","1","1","1","1","1","1"
"250065","img/neutralC/CFD-AF-253-130-N.jpg","img/neutralC/CFD-BF-237-172-N.jpg","img/neutralC/CFD-WM-015-002-N.jpg","1","1","1","1","1","0","0.429917000001296","0.401085100020282","0.427471700008027","1","1","1","1","1","1","1","1","1"
"250065","img/neutralC/CFD-WM-015-002-N.jpg","img/neutralC/CFD-AF-253-130-N.jpg","img/neutralC/CFD-IF-660-464-N.jpg","1","1","1","0","1","0","0.427471700008027","0.429917000001296","0.476995300035924","1","1","1","1","1","1","1","1","1"
"250065","img/neutralC/CFD-IF-660-464-N.jpg","img/neutralC/CFD-WM-015-002-N.jpg","img/neutralC/CFD-WF-244-163-N.jpg","1","1","1","0","0","1","0.476995300035924","0.427471700008027","0.449834400089458","1","1","1","1","1","1","1","1","1"
"250065","img/neutralC/CFD-WF-244-163-N.jpg","img/neutralC/CFD-IF-660-464-N.jpg","img/neutralC/CFD-BF-014-002-N.jpg","1","1","1","1","0","1","0.449834400089458","0.476995300035924","0.387132699950598","1","1","1","1","1","1","1","1","1"
"250065","img/neutralC/CFD-BF-014-002-N.jpg","img/neutralC/CFD-WF-244-163-N.jpg","img/neutralC/CFD-WM-209-038-N.jpg","1","1","1","1","1","0","0.387132699950598","0.449834400089458","0.47074589994736","1","1","1","1","1","1","1","1","1"
"250065","img/neutralC/CFD-WM-209-038-N.jpg","img/neutralC/CFD-BF-014-002-N.jpg","img/neutralC/CFD-IM-680-369-N.jpg","1","1","1","0","1","1","0.47074589994736","0.387132699950598","0.327322899946012","1","1","1","1","1","1","1","1","1"
"250065","img/neutralC/CFD-IM-680-369-N.jpg","img/neutralC/CFD-WM-209-038-N.jpg","img/neutralC/CFD-IM-706-002-N.jpg","1","1","0","1","0","0","0.327322899946012","0.47074589994736","0.457391100004315","1","1","1","1","1","1","1","1","1"
"250065","img/neutralC/CFD-IM-706-002-N.jpg","img/neutralC/CFD-IM-680-369-N.jpg","img/neutralC/CFD-AM-220-134-N.jpg","0","1","1","0","1","0","0.457391100004315","0.327322899946012","0.454520000028424","1","1","1","1","1","1","1","1","1"
"250065","img/neutralC/CFD-AM-220-134-N.jpg","img/neutralC/CFD-IM-706-002-N.jpg","img/neutralC/CFD-LF-206-078-N.jpg","1","0","1","0","0","1","0.454520000028424","0.457391100004315","0.339798399945721","1","1","1","1","1","1","1","1","1"
"250065","img/neutralC/CFD-LF-206-078-N.jpg","img/neutralC/CFD-AM-220-134-N.jpg","img/neutralC/CFD-MF-305-014-N.jpg","1","1","1","1","0","1","0.339798399945721","0.454520000028424","0.390905000036582","1","1","1","1","1","1","1","1","1"
"250065","img/neutralC/CFD-MF-305-014-N.jpg","img/neutralC/CFD-LF-206-078-N.jpg","img/neutralC/CFD-IF-626-375-N.jpg","1","1","1","1","1","0","0.390905000036582","0.339798399945721","0.437662099953741","1","1","1","1","1","1","1","1","1"
"250065","img/neutralC/CFD-IF-626-375-N.jpg","img/neutralC/CFD-MF-305-014-N.jpg","img/neutralC/CFD-MF-303-013-N.jpg","1","1","1","0","1","0","0.437662099953741","0.390905000036582","0.49923990003299","1","1","1","1","1","1","1","1","1"
"250065","img/neutralC/CFD-MF-303-013-N.jpg","img/neutralC/CFD-IF-626-375-N.jpg","img/neutralC/CFD-MF-343-001-N.jpg","1","1","1","0","0","1","0.49923990003299","0.437662099953741","0.388965400052257","1","1","1","1","1","1","1","1","1"
"250065","img/neutralC/CFD-MF-343-001-N.jpg","img/neutralC/CFD-MF-303-013-N.jpg","img/neutralC/CFD-WF-222-092-N.jpg","1","1","1","1","0","1","0.388965400052257","0.49923990003299","0.406867999932729","1","1","1","1","1","1","1","1","1"
"250065","img/neutralC/CFD-WF-222-092-N.jpg","img/neutralC/CFD-MF-343-001-N.jpg","img/neutralC/CFD-LM-200-045-N.jpg","1","1","1","1","1","1","0.406867999932729","0.388965400052257","0.409936699899845","1","1","1","1","1","1","1","1","1"
"250065","img/neutralC/CFD-LM-200-045-N.jpg","img/neutralC/CFD-WF-222-092-N.jpg","img/neutralC/CFD-IM-667-369-N.jpg","1","1","1","1","1","0","0.409936699899845","0.406867999932729","0.439910599961877","1","1","1","1","1","1","1","1","1"
"250065","img/neutralC/CFD-IM-667-369-N.jpg","img/neutralC/CFD-LM-200-045-N.jpg","img/neutralC/CFD-BM-001-014-N.jpg","1","1","1","0","1","0","0.439910599961877","0.409936699899845","0.512661500019021","1","1","1","1","1","1","1","1","1"
"250065","img/neutralC/CFD-BM-001-014-N.jpg","img/neutralC/CFD-IM-667-369-N.jpg","img/neutralC/CFD-LF-255-088-N.jpg","1","1","1","0","0","0","0.512661500019021","0.439910599961877","0.447018899954855","1","1","1","1","1","1","1","1","1"
"250065","img/neutralC/CFD-LF-255-088-N.jpg","img/neutralC/CFD-BM-001-014-N.jpg",NA,"1","1",NA,"0","0",NA,"0.447018899954855","0.512661500019021",NA,"1","1",NA,"1","1",NA,"1","1",NA
"250065","img/neutralC/CFD-WM-249-239-N.jpg",NA,"img/neutralC/CFD-LM-201-057-N.jpg","1",NA,"1","1",NA,"1","0.434452500077896",NA,"0.425618500099517","1",NA,"1","1",NA,"1","1",NA,"1"
"250065","img/neutralC/CFD-LM-201-057-N.jpg","img/neutralC/CFD-WM-249-239-N.jpg","img/neutralC/CFD-AM-247-165-N.jpg","1","1","1","1","1","1","0.425618500099517","0.434452500077896","0.388818800100125","1","1","1","1","1","1","1","1","1"
"250065","img/neutralC/CFD-AM-247-165-N.jpg","img/neutralC/CFD-LM-201-057-N.jpg","img/neutralC/CFD-WM-026-001-N.jpg","1","1","1","1","1","1","0.388818800100125","0.425618500099517","0.374035500106402","1","1","1","1","1","1","1","1","1"
"250065","img/neutralC/CFD-WM-026-001-N.jpg","img/neutralC/CFD-AM-247-165-N.jpg","img/neutralC/CFD-IM-648-337-N.jpg","1","1","1","1","1","0","0.374035500106402","0.388818800100125","0.414812600007281","1","1","1","1","1","1","1","1","1"
"250065","img/neutralC/CFD-IM-648-337-N.jpg","img/neutralC/CFD-WM-026-001-N.jpg","img/neutralC/CFD-WM-212-097-N.jpg","1","1","1","0","1","0","0.414812600007281","0.374035500106402","0.435052699991502","1","1","1","1","1","1","1","1","1"
"250065","img/neutralC/CFD-WM-212-097-N.jpg","img/neutralC/CFD-IM-648-337-N.jpg","img/neutralC/CFD-LM-243-075-N.jpg","1","1","1","0","0","0","0.435052699991502","0.414812600007281","0.494421300012618","1","1","1","1","1","1","1","1","1"
"250065","img/neutralC/CFD-LM-243-075-N.jpg","img/neutralC/CFD-WM-212-097-N.jpg","img/neutralC/CFD-WF-228-196-N.jpg","1","1","1","0","0","0","0.494421300012618","0.435052699991502","0.414932699990459","1","1","1","1","1","1","1","1","1"
"250065","img/neutralC/CFD-WF-228-196-N.jpg","img/neutralC/CFD-LM-243-075-N.jpg","img/neutralC/CFD-WF-017-003-N.jpg","1","1","1","0","0","1","0.414932699990459","0.494421300012618","0.33686890010722","1","1","1","1","1","1","1","1","1"
"250065","img/neutralC/CFD-WF-017-003-N.jpg","img/neutralC/CFD-WF-228-196-N.jpg","img/neutralC/CFD-BF-202-109-N.jpg","1","1","1","1","0","1","0.33686890010722","0.414932699990459","0.390500700101256","1","1","1","1","1","1","1","1","1"
"250065","img/neutralC/CFD-BF-202-109-N.jpg","img/neutralC/CFD-WF-017-003-N.jpg","img/neutralC/CFD-LM-216-082-N.jpg","1","1","1","1","1","0","0.390500700101256","0.33686890010722","0.400394299998879","1","1","1","1","1","1","1","1","1"
"250065","img/neutralC/CFD-LM-216-082-N.jpg","img/neutralC/CFD-BF-202-109-N.jpg","img/neutralC/CFD-MM-317-061-N.jpg","1","1","1","0","1","1","0.400394299998879","0.390500700101256","0.418589700013399","1","1","1","1","1","1","1","1","1"
"250065","img/neutralC/CFD-MM-317-061-N.jpg","img/neutralC/CFD-LM-216-082-N.jpg","img/neutralC/CFD-BF-212-315-N.jpg","1","1","1","1","0","1","0.418589700013399","0.400394299998879","0.400692600058392","1","1","1","1","1","1","1","1","1"
"250065","img/neutralC/CFD-BF-212-315-N.jpg","img/neutralC/CFD-MM-317-061-N.jpg","img/neutralC/CFD-BF-025-002-N.jpg","1","1","0","1","1","0","0.400692600058392","0.418589700013399","0.383005700074136","1","1","1","1","1","1","1","1","1"
"250065","img/neutralC/CFD-BF-025-002-N.jpg","img/neutralC/CFD-BF-212-315-N.jpg","img/neutralC/CFD-BM-251-013-N.jpg","0","1","1","0","1","1","0.383005700074136","0.400692600058392","0.392403399921022","1","1","1","1","1","1","1","1","1"
"250065","img/neutralC/CFD-BM-251-013-N.jpg","img/neutralC/CFD-BF-025-002-N.jpg","img/neutralC/CFD-WF-005-010-N.jpg","1","0","1","1","0","0","0.392403399921022","0.383005700074136","0.449765299912542","1","1","1","1","1","1","1","1","1"
"250065","img/neutralC/CFD-WF-005-010-N.jpg","img/neutralC/CFD-BM-251-013-N.jpg","img/neutralC/CFD-LM-214-165-N.jpg","1","1","1","0","1","1","0.449765299912542","0.392403399921022","0.399695300031453","1","1","1","1","1","1","1","1","1"
"250065","img/neutralC/CFD-LM-214-165-N.jpg","img/neutralC/CFD-WF-005-010-N.jpg","img/neutralC/CFD-WM-019-003-N.jpg","1","1","1","1","0","1","0.399695300031453","0.449765299912542","0.382943099946715","1","1","1","1","1","1","1","1","1"
"250065","img/neutralC/CFD-WM-019-003-N.jpg","img/neutralC/CFD-LM-214-165-N.jpg","img/neutralC/CFD-LM-244-068-N.jpg","1","1","1","1","1","1","0.382943099946715","0.399695300031453","0.353478700038977","1","1","1","1","1","1","1","1","1"
"250065","img/neutralC/CFD-LM-244-068-N.jpg","img/neutralC/CFD-WM-019-003-N.jpg","img/neutralC/CFD-WM-012-001-N.jpg","1","1","1","1","1","1","0.353478700038977","0.382943099946715","0.366061699925922","1","1","1","1","1","1","1","1","1"
"250065","img/neutralC/CFD-WM-012-001-N.jpg","img/neutralC/CFD-LM-244-068-N.jpg","img/neutralC/CFD-WM-006-002-N.jpg","1","1","1","1","1","0","0.366061699925922","0.353478700038977","0.401060099946335","1","1","1","1","1","1","1","1","1"
"250065","img/neutralC/CFD-WM-006-002-N.jpg","img/neutralC/CFD-WM-012-001-N.jpg","img/neutralC/CFD-BF-228-212-N.jpg","1","1","1","0","1","0","0.401060099946335","0.366061699925922","0.447849999996834","1","1","1","1","1","1","1","1","1"
"250065","img/neutralC/CFD-BF-228-212-N.jpg","img/neutralC/CFD-WM-006-002-N.jpg","img/neutralC/CFD-BM-205-001-N.jpg","1","1","0","0","0","0","0.447849999996834","0.401060099946335","0.399440999957733","1","1","1","1","1","1","1","1","1"
"250065","img/neutralC/CFD-BM-205-001-N.jpg","img/neutralC/CFD-BF-228-212-N.jpg","img/neutralC/CFD-BM-248-128-N.jpg","0","1","1","0","0","0","0.399440999957733","0.447849999996834","0.470009600045159","1","1","1","1","1","1","1","1","1"
"250065","img/neutralC/CFD-BM-248-128-N.jpg","img/neutralC/CFD-BM-205-001-N.jpg","img/neutralC/CFD-MF-309-002-N.jpg","1","0","1","0","0","0","0.470009600045159","0.399440999957733","0.395766299916431","1","1","1","1","1","1","1","1","1"
"250065","img/neutralC/CFD-MF-309-002-N.jpg","img/neutralC/CFD-BM-248-128-N.jpg","img/neutralC/CFD-BF-041-001-N.jpg","1","1","1","0","0","1","0.395766299916431","0.470009600045159","0.401161700021476","1","1","1","1","1","1","1","1","1"
"250065","img/neutralC/CFD-BF-041-001-N.jpg","img/neutralC/CFD-MF-309-002-N.jpg","img/neutralC/CFD-MF-335-002-N.jpg","1","1","1","1","0","0","0.401161700021476","0.395766299916431","0.514667199924588","1","1","1","1","1","1","1","1","1"
"250065","img/neutralC/CFD-MF-335-002-N.jpg","img/neutralC/CFD-BF-041-001-N.jpg","img/neutralC/CFD-AF-240-206-N.jpg","1","1","1","0","1","0","0.514667199924588","0.401161700021476","0.426357400021516","1","1","1","1","1","1","1","1","1"
"250065","img/neutralC/CFD-AF-240-206-N.jpg","img/neutralC/CFD-MF-335-002-N.jpg","img/neutralC/CFD-IM-646-023-N.jpg","1","1","1","0","0","1","0.426357400021516","0.514667199924588","0.405919900047593","1","1","1","1","1","1","1","1","1"
"250065","img/neutralC/CFD-IM-646-023-N.jpg","img/neutralC/CFD-AF-240-206-N.jpg","img/neutralC/CFD-WM-215-041-N.jpg","1","1","1","1","0","0","0.405919900047593","0.426357400021516","0.418179599917494","1","1","1","1","1","1","1","1","1"
"250065","img/neutralC/CFD-WM-215-041-N.jpg","img/neutralC/CFD-IM-646-023-N.jpg","img/neutralC/CFD-IF-642-295-N.jpg","1","1","1","0","1","1","0.418179599917494","0.405919900047593","0.392316299956292","1","1","1","1","1","1","1","1","1"
"250065","img/neutralC/CFD-IF-642-295-N.jpg","img/neutralC/CFD-WM-215-041-N.jpg","img/neutralC/CFD-WF-240-083-N.jpg","1","1","1","1","0","0","0.392316299956292","0.418179599917494","0.355189999914728","1","1","1","1","1","1","1","1","1"
"250065","img/neutralC/CFD-WF-240-083-N.jpg","img/neutralC/CFD-IF-642-295-N.jpg",NA,"1","1",NA,"0","1",NA,"0.355189999914728","0.392316299956292",NA,"1","1",NA,"1","1",NA,"1","1",NA
"250065","img/neutralC/CFD-WM-253-119-N.jpg",NA,"img/neutralC/CFD-AM-245-111-N.jpg","1",NA,"1","1",NA,"1","0.434291299898177",NA,"0.412436400074512","1",NA,"1","1",NA,"1","1",NA,"1"
"250065","img/neutralC/CFD-AM-245-111-N.jpg","img/neutralC/CFD-WM-253-119-N.jpg","img/neutralC/CFD-WF-235-121-N.jpg","1","1","1","1","1","0","0.412436400074512","0.434291299898177","0.374539899989031","1","1","1","1","1","1","1","1","1"
"250065","img/neutralC/CFD-WF-235-121-N.jpg","img/neutralC/CFD-AM-245-111-N.jpg","img/neutralC/CFD-MF-307-002-N.jpg","1","1","1","0","1","1","0.374539899989031","0.412436400074512","0.36743490002118","1","1","1","1","1","1","1","1","1"
"250065","img/neutralC/CFD-MF-307-002-N.jpg","img/neutralC/CFD-WF-235-121-N.jpg","img/neutralC/CFD-LM-241-125-N.jpg","1","1","1","1","0","1","0.36743490002118","0.374539899989031","0.343917699996382","1","1","1","1","1","1","1","1","1"
"250065","img/neutralC/CFD-LM-241-125-N.jpg","img/neutralC/CFD-MF-307-002-N.jpg","img/neutralC/CFD-AM-225-102-N.jpg","1","1","1","1","1","0","0.343917699996382","0.36743490002118","0.498970199958421","1","1","1","1","1","1","1","1","1"
"250065","img/neutralC/CFD-AM-225-102-N.jpg","img/neutralC/CFD-LM-241-125-N.jpg","img/neutralC/CFD-MF-302-027-N.jpg","1","1","1","0","1","0","0.498970199958421","0.343917699996382","0.418068700004369","1","1","1","1","1","1","1","1","1"
"250065","img/neutralC/CFD-MF-302-027-N.jpg","img/neutralC/CFD-AM-225-102-N.jpg","img/neutralC/CFD-AF-234-208-N.jpg","1","1","1","0","0","1","0.418068700004369","0.498970199958421","0.454876300063916","1","1","1","1","1","1","1","1","1"
"250065","img/neutralC/CFD-AF-234-208-N.jpg","img/neutralC/CFD-MF-302-027-N.jpg","img/neutralC/CFD-AF-250-200-N.jpg","1","1","1","1","0","1","0.454876300063916","0.418068700004369","0.341796799912117","1","1","1","1","1","1","1","1","1"
"250065","img/neutralC/CFD-AF-250-200-N.jpg","img/neutralC/CFD-AF-234-208-N.jpg","img/neutralC/CFD-IM-635-010-N.jpg","1","1","1","1","1","1","0.341796799912117","0.454876300063916","0.35997269989457","1","1","1","1","1","1","1","1","1"
"250065","img/neutralC/CFD-IM-635-010-N.jpg","img/neutralC/CFD-AF-250-200-N.jpg","img/neutralC/CFD-WM-018-002-N.jpg","1","1","1","1","1","0","0.35997269989457","0.341796799912117","0.37217669992242","1","1","1","1","1","1","1","1","1"
"250065","img/neutralC/CFD-WM-018-002-N.jpg","img/neutralC/CFD-IM-635-010-N.jpg","img/neutralC/CFD-BF-020-002-N.jpg","1","1","1","0","1","1","0.37217669992242","0.35997269989457","0.32862489996478","1","1","1","1","1","1","1","1","1"
"250065","img/neutralC/CFD-BF-020-002-N.jpg","img/neutralC/CFD-WM-018-002-N.jpg","img/neutralC/CFD-BF-235-168-N.jpg","1","1","1","1","0","1","0.32862489996478","0.37217669992242","0.329597399919294","1","1","1","1","1","1","1","1","1"
"250065","img/neutralC/CFD-BF-235-168-N.jpg","img/neutralC/CFD-BF-020-002-N.jpg","img/neutralC/CFD-IF-636-011-N.jpg","1","1","1","1","1","1","0.329597399919294","0.32862489996478","0.351618099957705","1","1","1","1","1","1","1","1","1"
"250065","img/neutralC/CFD-IF-636-011-N.jpg","img/neutralC/CFD-BF-235-168-N.jpg","img/neutralC/CFD-BM-215-155-N.jpg","1","1","0","1","1","0","0.351618099957705","0.329597399919294","0.383184400037862","1","1","1","1","1","1","1","1","1"
"250065","img/neutralC/CFD-BM-215-155-N.jpg","img/neutralC/CFD-IF-636-011-N.jpg","img/neutralC/CFD-BF-042-026-N.jpg","0","1","1","0","1","1","0.383184400037862","0.351618099957705","0.383192999986932","1","1","1","1","1","1","1","1","1"
"250065","img/neutralC/CFD-BF-042-026-N.jpg","img/neutralC/CFD-BM-215-155-N.jpg","img/neutralC/CFD-BF-040-003-N.jpg","1","0","1","1","0","1","0.383192999986932","0.383184400037862","0.380428800010122","1","1","1","1","1","1","1","1","1"
"250065","img/neutralC/CFD-BF-040-003-N.jpg","img/neutralC/CFD-BF-042-026-N.jpg","img/neutralC/CFD-AF-244-168-N.jpg","1","1","0","1","1","0","0.380428800010122","0.383192999986932","0.428170099970885","1","1","1","1","1","1","1","1","1"
"250065","img/neutralC/CFD-AF-244-168-N.jpg","img/neutralC/CFD-BF-040-003-N.jpg","img/neutralC/CFD-WF-210-086-N.jpg","0","1","1","0","1","0","0.428170099970885","0.380428800010122","0.45227230002638","1","1","1","1","1","1","1","1","1"
"250065","img/neutralC/CFD-WF-210-086-N.jpg","img/neutralC/CFD-AF-244-168-N.jpg","img/neutralC/CFD-AF-246-242-N.jpg","1","0","1","0","0","0","0.45227230002638","0.428170099970885","0.437974100001156","1","1","1","1","1","1","1","1","1"
"250065","img/neutralC/CFD-AF-246-242-N.jpg","img/neutralC/CFD-WF-210-086-N.jpg","img/neutralC/CFD-IF-732-260-N.jpg","1","1","1","0","0","0","0.437974100001156","0.45227230002638","0.514786300016567","1","1","1","1","1","1","1","1","1"
"250065","img/neutralC/CFD-IF-732-260-N.jpg","img/neutralC/CFD-AF-246-242-N.jpg","img/neutralC/CFD-LF-239-148-N.jpg","1","1","0","0","0","0","0.514786300016567","0.437974100001156","0.421441599959508","1","1","1","1","1","1","1","1","1"
"250065","img/neutralC/CFD-LF-239-148-N.jpg","img/neutralC/CFD-IF-732-260-N.jpg","img/neutralC/CFD-AM-233-236-N.jpg","0","1","1","0","0","1","0.421441599959508","0.514786300016567","0.399476499995217","1","1","1","1","1","1","1","1","1"
"250065","img/neutralC/CFD-AM-233-236-N.jpg","img/neutralC/CFD-LF-239-148-N.jpg","img/neutralC/CFD-BM-004-002-N.jpg","1","0","1","1","0","0","0.399476499995217","0.421441599959508","0.439044899889268","1","1","1","1","1","1","1","1","1"
"250065","img/neutralC/CFD-BM-004-002-N.jpg","img/neutralC/CFD-AM-233-236-N.jpg","img/neutralC/CFD-AF-205-155-N.jpg","1","1","1","0","1","0","0.439044899889268","0.399476499995217","0.630534399999306","1","1","1","1","1","1","1","1","1"
"250065","img/neutralC/CFD-AF-205-155-N.jpg","img/neutralC/CFD-BM-004-002-N.jpg","img/neutralC/CFD-BF-217-189-N.jpg","1","1","1","0","0","0","0.630534399999306","0.439044899889268","0.755139900022186","1","1","1","1","1","1","1","1","1"
"250065","img/neutralC/CFD-BF-217-189-N.jpg","img/neutralC/CFD-AF-205-155-N.jpg","img/neutralC/CFD-IM-632-097-N.jpg","1","1","1","0","0","0","0.755139900022186","0.630534399999306","0.486968599958345","1","1","1","1","1","1","1","1","1"
"250065","img/neutralC/CFD-IM-632-097-N.jpg","img/neutralC/CFD-BF-217-189-N.jpg","img/neutralC/CFD-BF-206-143-N.jpg","1","1","1","0","0","1","0.486968599958345","0.755139900022186","0.486366599914618","1","1","1","1","1","1","1","1","1"
"250065","img/neutralC/CFD-BF-206-143-N.jpg","img/neutralC/CFD-IM-632-097-N.jpg","img/neutralC/CFD-LM-204-001-N.jpg","1","1","1","1","0","0","0.486366599914618","0.486968599958345","0.554059999994934","1","1","1","1","1","1","1","1","1"
"250065","img/neutralC/CFD-LM-204-001-N.jpg","img/neutralC/CFD-BF-206-143-N.jpg","img/neutralC/CFD-IM-669-111-N.jpg","1","1","1","0","1","1","0.554059999994934","0.486366599914618","0.413927699904889","1","1","1","1","1","1","1","1","1"
"250065","img/neutralC/CFD-IM-669-111-N.jpg","img/neutralC/CFD-LM-204-001-N.jpg","img/neutralC/CFD-IM-678-482-N.jpg","1","1","1","1","0","0","0.413927699904889","0.554059999994934","0.414199399994686","1","1","1","1","1","1","1","1","1"
"250065","img/neutralC/CFD-IM-678-482-N.jpg","img/neutralC/CFD-IM-669-111-N.jpg","img/neutralC/CFD-AF-213-126-N.jpg","1","1","1","0","1","1","0.414199399994686","0.413927699904889","0.423678399994969","1","1","1","1","1","1","1","1","1"
"250065","img/neutralC/CFD-AF-213-126-N.jpg","img/neutralC/CFD-IM-678-482-N.jpg",NA,"1","1",NA,"1","0",NA,"0.423678399994969","0.414199399994686",NA,"1","1",NA,"1","1",NA,"1","1",NA
"250065","img/neutralC/CFD-AF-232-078-N.jpg",NA,"img/neutralC/CFD-WF-027-003-N.jpg","1",NA,"1","1",NA,"1","0.397448999923654",NA,"0.409077599993907","1",NA,"1","1",NA,"1","1",NA,"1"
"250065","img/neutralC/CFD-WF-027-003-N.jpg","img/neutralC/CFD-AF-232-078-N.jpg","img/neutralC/CFD-IF-629-234-N.jpg","1","1","1","1","1","0","0.409077599993907","0.397448999923654","0.391936199972406","1","1","1","1","1","1","1","1","1"
"250065","img/neutralC/CFD-IF-629-234-N.jpg","img/neutralC/CFD-WF-027-003-N.jpg","img/neutralC/CFD-IM-700-009-N.jpg","1","1","1","0","1","1","0.391936199972406","0.409077599993907","0.395478099933825","1","1","1","1","1","1","1","1","1"
"250065","img/neutralC/CFD-IM-700-009-N.jpg","img/neutralC/CFD-IF-629-234-N.jpg","img/neutralC/CFD-LF-211-003-N.jpg","1","1","1","1","0","0","0.395478099933825","0.391936199972406","0.376597100053914","1","1","1","1","1","1","1","1","1"
"250065","img/neutralC/CFD-LF-211-003-N.jpg","img/neutralC/CFD-IM-700-009-N.jpg","img/neutralC/CFD-LF-215-157-N.jpg","1","1","1","0","1","0","0.376597100053914","0.395478099933825","0.471834199968725","1","1","1","1","1","1","1","1","1"
"250065","img/neutralC/CFD-LF-215-157-N.jpg","img/neutralC/CFD-LF-211-003-N.jpg","img/neutralC/CFD-BM-200-046-N.jpg","1","1","1","0","0","0","0.471834199968725","0.376597100053914","0.430196599918418","1","1","1","1","1","1","1","1","1"
"250065","img/neutralC/CFD-BM-200-046-N.jpg","img/neutralC/CFD-LF-215-157-N.jpg","img/neutralC/CFD-BM-204-003-N.jpg","1","1","1","0","0","0","0.430196599918418","0.471834199968725","0.464865599991754","1","1","1","1","1","1","1","1","1"
"250065","img/neutralC/CFD-BM-204-003-N.jpg","img/neutralC/CFD-BM-200-046-N.jpg","img/neutralC/CFD-WF-226-095-N.jpg","1","1","1","0","0","1","0.464865599991754","0.430196599918418","0.459299600101076","1","1","1","1","1","1","1","1","1"
"250065","img/neutralC/CFD-WF-226-095-N.jpg","img/neutralC/CFD-BM-204-003-N.jpg","img/neutralC/CFD-MM-321-021-N.jpg","1","1","1","1","0","0","0.459299600101076","0.464865599991754","0.432644099928439","1","1","1","1","1","1","1","1","1"
"250065","img/neutralC/CFD-MM-321-021-N.jpg","img/neutralC/CFD-WF-226-095-N.jpg","img/neutralC/CFD-IM-627-178-N.jpg","1","1","1","0","1","1","0.432644099928439","0.459299600101076","0.422630700049922","1","1","1","1","1","1","1","1","1"
"250065","img/neutralC/CFD-IM-627-178-N.jpg","img/neutralC/CFD-MM-321-021-N.jpg","img/neutralC/CFD-WF-023-003-N.jpg","1","1","1","1","0","1","0.422630700049922","0.432644099928439","0.423255300032906","1","1","1","1","1","1","1","1","1"
"250065","img/neutralC/CFD-WF-023-003-N.jpg","img/neutralC/CFD-IM-627-178-N.jpg","img/neutralC/CFD-MF-321-003-N.jpg","1","1","1","1","1","0","0.423255300032906","0.422630700049922","0.458009299938567","1","1","1","1","1","1","1","1","1"
"250065","img/neutralC/CFD-MF-321-003-N.jpg","img/neutralC/CFD-WF-023-003-N.jpg","img/neutralC/CFD-BM-023-029-N.jpg","1","1","1","0","1","1","0.458009299938567","0.423255300032906","0.384278599987738","1","1","1","1","1","1","1","1","1"
"250065","img/neutralC/CFD-BM-023-029-N.jpg","img/neutralC/CFD-MF-321-003-N.jpg","img/neutralC/CFD-BF-254-201-N.jpg","1","1","1","1","0","0","0.384278599987738","0.458009299938567","0.474608399905264","1","1","1","1","1","1","1","1","1"
"250065","img/neutralC/CFD-BF-254-201-N.jpg","img/neutralC/CFD-BM-023-029-N.jpg","img/neutralC/CFD-WM-201-063-N.jpg","1","1","1","0","1","1","0.474608399905264","0.384278599987738","0.381899200030603","1","1","1","1","1","1","1","1","1"
"250065","img/neutralC/CFD-WM-201-063-N.jpg","img/neutralC/CFD-BF-254-201-N.jpg","img/neutralC/CFD-WF-018-017-N.jpg","1","1","1","1","0","1","0.381899200030603","0.474608399905264","0.387745599960908","1","1","1","1","1","1","1","1","1"
"250065","img/neutralC/CFD-WF-018-017-N.jpg","img/neutralC/CFD-WM-201-063-N.jpg","img/neutralC/CFD-AM-244-222-N.jpg","1","1","1","1","1","0","0.387745599960908","0.381899200030603","0.457207700004801","1","1","1","1","1","1","1","1","1"
"250065","img/neutralC/CFD-AM-244-222-N.jpg","img/neutralC/CFD-WF-018-017-N.jpg","img/neutralC/CFD-LM-253-075-N.jpg","1","1","0","0","1","0","0.457207700004801","0.387745599960908","0.433809599955566","1","1","1","1","1","1","1","1","1"
"250065","img/neutralC/CFD-LM-253-075-N.jpg","img/neutralC/CFD-AM-244-222-N.jpg","img/neutralC/CFD-WF-238-023-N.jpg","0","1","0","0","0","0","0.433809599955566","0.457207700004801","0.447170700062998","1","1","1","1","1","1","1","1","1"
"250065","img/neutralC/CFD-WF-238-023-N.jpg","img/neutralC/CFD-LM-253-075-N.jpg","img/neutralC/CFD-WM-255-219-N.jpg","0","0","1","0","0","0","0.447170700062998","0.433809599955566","0.542539000045508","1","1","1","1","1","1","1","1","1"
"250065","img/neutralC/CFD-WM-255-219-N.jpg","img/neutralC/CFD-WF-238-023-N.jpg","img/neutralC/CFD-IM-719-221-N.jpg","1","0","1","0","0","0","0.542539000045508","0.447170700062998","0.456505400012247","1","1","1","1","1","1","1","1","1"
"250065","img/neutralC/CFD-IM-719-221-N.jpg","img/neutralC/CFD-WM-255-219-N.jpg","img/neutralC/CFD-WM-009-002-N.jpg","1","1","1","0","0","0","0.456505400012247","0.542539000045508","0.484039100003429","1","1","1","1","1","1","1","1","1"
"250065","img/neutralC/CFD-WM-009-002-N.jpg","img/neutralC/CFD-IM-719-221-N.jpg","img/neutralC/CFD-WM-221-091-N.jpg","1","1","1","0","0","0","0.484039100003429","0.456505400012247","0.733758100075647","1","1","1","1","1","1","1","1","1"
"250065","img/neutralC/CFD-WM-221-091-N.jpg","img/neutralC/CFD-WM-009-002-N.jpg","img/neutralC/CFD-MF-342-022-N.jpg","1","1","1","0","0","1","0.733758100075647","0.484039100003429","0.487675699987449","1","1","1","1","1","1","1","1","1"
"250065","img/neutralC/CFD-MF-342-022-N.jpg","img/neutralC/CFD-WM-221-091-N.jpg","img/neutralC/CFD-BF-018-039-N.jpg","1","1","1","1","0","1","0.487675699987449","0.733758100075647","0.495885499985889","1","1","1","1","1","1","1","1","1"
"250065","img/neutralC/CFD-BF-018-039-N.jpg","img/neutralC/CFD-MF-342-022-N.jpg","img/neutralC/CFD-AF-221-147-N.jpg","1","1","1","1","1","0","0.495885499985889","0.487675699987449","0.529223899939097","1","1","1","1","1","1","1","1","1"
"250065","img/neutralC/CFD-AF-221-147-N.jpg","img/neutralC/CFD-BF-018-039-N.jpg","img/neutralC/CFD-WM-013-001-N.jpg","1","1","1","0","1","1","0.529223899939097","0.495885499985889","0.441006000037305","1","1","1","1","1","1","1","1","1"
"250065","img/neutralC/CFD-WM-013-001-N.jpg","img/neutralC/CFD-AF-221-147-N.jpg","img/neutralC/CFD-BF-218-207-N.jpg","1","1","1","1","0","1","0.441006000037305","0.529223899939097","0.431892000022344","1","1","1","1","1","1","1","1","1"
"250065","img/neutralC/CFD-BF-218-207-N.jpg","img/neutralC/CFD-WM-013-001-N.jpg","img/neutralC/CFD-WM-237-052-N.jpg","1","1","1","1","1","1","0.431892000022344","0.441006000037305","0.444235199945979","1","1","1","1","1","1","1","1","1"
"250065","img/neutralC/CFD-WM-237-052-N.jpg","img/neutralC/CFD-BF-218-207-N.jpg","img/neutralC/CFD-MF-318-022-N.jpg","1","1","1","1","1","1","0.444235199945979","0.431892000022344","0.418712000013329","1","1","1","1","1","1","1","1","1"
"250065","img/neutralC/CFD-MF-318-022-N.jpg","img/neutralC/CFD-WM-237-052-N.jpg","img/neutralC/CFD-WF-245-084-N.jpg","1","1","1","1","1","1","0.418712000013329","0.444235199945979","0.360041599953547","1","1","1","1","1","1","1","1","1"
"250065","img/neutralC/CFD-WF-245-084-N.jpg","img/neutralC/CFD-MF-318-022-N.jpg",NA,"1","1",NA,"1","1",NA,"0.360041599953547","0.418712000013329",NA,"1","1",NA,"1","1",NA,"1","1",NA
"250065","img/neutralC/CFD-BF-253-202-N.jpg",NA,"img/neutralC/CFD-AM-212-050-N.jpg","1",NA,"1","0",NA,"1","0.551157400012016",NA,"0.395523099927232","1",NA,"1","1",NA,"1","1",NA,"1"
"250065","img/neutralC/CFD-AM-212-050-N.jpg","img/neutralC/CFD-BF-253-202-N.jpg","img/neutralC/CFD-LM-218-183-N.jpg","1","1","1","1","0","1","0.395523099927232","0.551157400012016","0.377877600025386","1","1","1","1","1","1","1","1","1"
"250065","img/neutralC/CFD-LM-218-183-N.jpg","img/neutralC/CFD-AM-212-050-N.jpg","img/neutralC/CFD-MF-337-026-N.jpg","1","1","1","1","1","1","0.377877600025386","0.395523099927232","0.405854299897328","1","1","1","1","1","1","1","1","1"
"250065","img/neutralC/CFD-MF-337-026-N.jpg","img/neutralC/CFD-LM-218-183-N.jpg","img/neutralC/CFD-WM-021-001-N.jpg","1","1","1","1","1","1","0.405854299897328","0.377877600025386","0.342346399906091","1","1","1","1","1","1","1","1","1"
"250065","img/neutralC/CFD-WM-021-001-N.jpg","img/neutralC/CFD-MF-337-026-N.jpg","img/neutralC/CFD-LF-230-203-N.jpg","1","1","1","1","1","0","0.342346399906091","0.405854299897328","0.438292699982412","1","1","1","1","1","1","1","1","1"
"250065","img/neutralC/CFD-LF-230-203-N.jpg","img/neutralC/CFD-WM-021-001-N.jpg","img/neutralC/CFD-IM-684-008-N.jpg","1","1","1","0","1","1","0.438292699982412","0.342346399906091","0.363432699930854","1","1","1","1","1","1","1","1","1"
"250065","img/neutralC/CFD-IM-684-008-N.jpg","img/neutralC/CFD-LF-230-203-N.jpg","img/neutralC/CFD-AF-231-357-N.jpg","1","1","1","1","0","1","0.363432699930854","0.438292699982412","0.360744299949147","1","1","1","1","1","1","1","1","1"
"250065","img/neutralC/CFD-AF-231-357-N.jpg","img/neutralC/CFD-IM-684-008-N.jpg","img/neutralC/CFD-LM-215-247-N.jpg","1","1","1","1","1","0","0.360744299949147","0.363432699930854","0.437727899989113","1","1","1","1","1","1","1","1","1"
"250065","img/neutralC/CFD-LM-215-247-N.jpg","img/neutralC/CFD-AF-231-357-N.jpg","img/neutralC/CFD-BM-239-136-N.jpg","1","1","1","0","1","1","0.437727899989113","0.360744299949147","0.363382700015791","1","1","1","1","1","1","1","1","1"
"250065","img/neutralC/CFD-BM-239-136-N.jpg","img/neutralC/CFD-LM-215-247-N.jpg","img/neutralC/CFD-BF-039-031-N.jpg","1","1","1","1","0","1","0.363382700015791","0.437727899989113","0.379171699983999","1","1","1","1","1","1","1","1","1"
"250065","img/neutralC/CFD-BF-039-031-N.jpg","img/neutralC/CFD-BM-239-136-N.jpg","img/neutralC/CFD-BM-041-035-N.jpg","1","1","0","1","1","0","0.379171699983999","0.363382700015791","0.356102299992926","1","1","1","1","1","1","1","1","1"
"250065","img/neutralC/CFD-BM-041-035-N.jpg","img/neutralC/CFD-BF-039-031-N.jpg","img/neutralC/CFD-WF-224-099-N.jpg","0","1","1","0","1","0","0.356102299992926","0.379171699983999","0.465051699895412","1","1","1","1","1","1","1","1","1"
"250065","img/neutralC/CFD-WF-224-099-N.jpg","img/neutralC/CFD-BM-041-035-N.jpg","img/neutralC/CFD-BM-033-003-N.jpg","1","0","1","0","0","0","0.465051699895412","0.356102299992926","0.501583200064488","1","1","1","1","1","1","1","1","1"
"250065","img/neutralC/CFD-BM-033-003-N.jpg","img/neutralC/CFD-WF-224-099-N.jpg","img/neutralC/CFD-WM-011-002-N.jpg","1","1","1","0","0","0","0.501583200064488","0.465051699895412","0.482962400070392","1","1","1","1","1","1","1","1","1"
"250065","img/neutralC/CFD-WM-011-002-N.jpg","img/neutralC/CFD-BM-033-003-N.jpg","img/neutralC/CFD-LF-203-066-N.jpg","1","1","1","0","0","0","0.482962400070392","0.501583200064488","0.412364499992691","1","1","1","1","1","1","1","1","1"
"250065","img/neutralC/CFD-LF-203-066-N.jpg","img/neutralC/CFD-WM-011-002-N.jpg","img/neutralC/CFD-WF-213-031-N.jpg","1","1","1","0","0","1","0.412364499992691","0.482962400070392","0.375120399985462","1","1","1","1","1","1","1","1","1"
"250065","img/neutralC/CFD-WF-213-031-N.jpg","img/neutralC/CFD-LF-203-066-N.jpg","img/neutralC/CFD-WM-041-021-N.jpg","1","1","1","1","0","0","0.375120399985462","0.412364499992691","0.488748800009489","1","1","1","1","1","1","1","1","1"
"250065","img/neutralC/CFD-WM-041-021-N.jpg","img/neutralC/CFD-WF-213-031-N.jpg","img/neutralC/CFD-LF-214-090-N.jpg","1","1","1","0","1","0","0.488748800009489","0.375120399985462","0.413404199993238","1","1","1","1","1","1","1","1","1"
"250065","img/neutralC/CFD-LF-214-090-N.jpg","img/neutralC/CFD-WM-041-021-N.jpg","img/neutralC/CFD-IM-651-308-N.jpg","1","1","1","0","0","0","0.413404199993238","0.488748800009489","0.453886299976148","1","1","1","1","1","1","1","1","1"
"250065","img/neutralC/CFD-IM-651-308-N.jpg","img/neutralC/CFD-LF-214-090-N.jpg","img/neutralC/CFD-BF-029-031-N.jpg","1","1","1","0","0","1","0.453886299976148","0.413404199993238","0.372489899978973","1","1","1","1","1","1","1","1","1"
"250065","img/neutralC/CFD-BF-029-031-N.jpg","img/neutralC/CFD-IM-651-308-N.jpg","img/neutralC/CFD-BF-213-188-N.jpg","1","1","1","1","0","1","0.372489899978973","0.453886299976148","0.395129499956966","1","1","1","1","1","1","1","1","1"
"250065","img/neutralC/CFD-BF-213-188-N.jpg","img/neutralC/CFD-BF-029-031-N.jpg","img/neutralC/CFD-BF-205-141-N.jpg","1","1","1","1","1","0","0.395129499956966","0.372489899978973","0.448780499980785","1","1","1","1","1","1","1","1","1"
"250065","img/neutralC/CFD-BF-205-141-N.jpg","img/neutralC/CFD-BF-213-188-N.jpg","img/neutralC/CFD-BM-019-002-N.jpg","1","1","1","0","1","0","0.448780499980785","0.395129499956966","0.463361100060865","1","1","1","1","1","1","1","1","1"
"250065","img/neutralC/CFD-BM-019-002-N.jpg","img/neutralC/CFD-BF-205-141-N.jpg","img/neutralC/CFD-IF-634-382-N.jpg","1","1","1","0","0","1","0.463361100060865","0.448780499980785","0.406215999973938","1","1","1","1","1","1","1","1","1"
"250065","img/neutralC/CFD-IF-634-382-N.jpg","img/neutralC/CFD-BM-019-002-N.jpg","img/neutralC/CFD-AM-201-076-N.jpg","1","1","1","1","0","1","0.406215999973938","0.463361100060865","0.409286900074221","1","1","1","1","1","1","1","1","1"
"250065","img/neutralC/CFD-AM-201-076-N.jpg","img/neutralC/CFD-IF-634-382-N.jpg","img/neutralC/CFD-WF-250-167-N.jpg","1","1","1","1","1","1","0.409286900074221","0.406215999973938","0.418345300015062","1","1","1","1","1","1","1","1","1"
"250065","img/neutralC/CFD-WF-250-167-N.jpg","img/neutralC/CFD-AM-201-076-N.jpg","img/neutralC/CFD-MM-316-156-N.jpg","1","1","1","1","1","1","0.418345300015062","0.409286900074221","0.386391100008041","1","1","1","1","1","1","1","1","1"
"250065","img/neutralC/CFD-MM-316-156-N.jpg","img/neutralC/CFD-WF-250-167-N.jpg","img/neutralC/CFD-LF-224-176-N.jpg","1","1","1","1","1","0","0.386391100008041","0.418345300015062","0.526052700006403","1","1","1","1","1","1","1","1","1"
"250065","img/neutralC/CFD-LF-224-176-N.jpg","img/neutralC/CFD-MM-316-156-N.jpg","img/neutralC/CFD-LF-205-100-N.jpg","1","1","1","0","1","1","0.526052700006403","0.386391100008041","0.388033099938184","1","1","1","1","1","1","1","1","1"
"250065","img/neutralC/CFD-LF-205-100-N.jpg","img/neutralC/CFD-LF-224-176-N.jpg","img/neutralC/CFD-IF-693-172-N.jpg","1","1","1","1","0","0","0.388033099938184","0.526052700006403","0.426710599916987","1","1","1","1","1","1","1","1","1"
"250065","img/neutralC/CFD-IF-693-172-N.jpg","img/neutralC/CFD-LF-205-100-N.jpg","img/neutralC/CFD-IF-710-016-N.jpg","1","1","1","0","1","0","0.426710599916987","0.388033099938184","0.423880100017413","1","1","1","1","1","1","1","1","1"
"250065","img/neutralC/CFD-IF-710-016-N.jpg","img/neutralC/CFD-IF-693-172-N.jpg",NA,"1","1",NA,"0","0",NA,"0.423880100017413","0.426710599916987",NA,"1","1",NA,"1","1",NA,"1","1",NA
"250065","img/neutralC/CFD-LF-216-121-N.jpg",NA,"img/neutralC/CFD-AM-217-085-N.jpg","1",NA,"1","1",NA,"0","0.390238299965858",NA,"0.406827899976633","1",NA,"1","1",NA,"1","1",NA,"1"
"250065","img/neutralC/CFD-AM-217-085-N.jpg","img/neutralC/CFD-LF-216-121-N.jpg","img/neutralC/CFD-AM-235-241-N.jpg","1","1","1","0","1","0","0.406827899976633","0.390238299965858","0.414084700052626","1","1","1","1","1","1","1","1","1"
"250065","img/neutralC/CFD-AM-235-241-N.jpg","img/neutralC/CFD-AM-217-085-N.jpg","img/neutralC/CFD-BF-028-001-N.jpg","1","1","1","0","0","1","0.414084700052626","0.406827899976633","0.409714700072073","1","1","1","1","1","1","1","1","1"
"250065","img/neutralC/CFD-BF-028-001-N.jpg","img/neutralC/CFD-AM-235-241-N.jpg","img/neutralC/CFD-BF-204-189-N.jpg","1","1","1","1","0","1","0.409714700072073","0.414084700052626","0.386161900009029","1","1","1","1","1","1","1","1","1"
"250065","img/neutralC/CFD-BF-204-189-N.jpg","img/neutralC/CFD-BF-028-001-N.jpg","img/neutralC/CFD-BF-201-080-N.jpg","1","1","1","1","1","1","0.386161900009029","0.409714700072073","0.382623600075021","1","1","1","1","1","1","1","1","1"
"250065","img/neutralC/CFD-BF-201-080-N.jpg","img/neutralC/CFD-BF-204-189-N.jpg","img/neutralC/CFD-IM-728-041-N.jpg","1","1","1","1","1","0","0.382623600075021","0.386161900009029","0.47814720007591","1","1","1","1","1","1","1","1","1"
"250065","img/neutralC/CFD-IM-728-041-N.jpg","img/neutralC/CFD-BF-201-080-N.jpg","img/neutralC/CFD-BF-255-140-N.jpg","1","1","1","0","1","1","0.47814720007591","0.382623600075021","0.393084599985741","1","1","1","1","1","1","1","1","1"
"250065","img/neutralC/CFD-BF-255-140-N.jpg","img/neutralC/CFD-IM-728-041-N.jpg","img/neutralC/CFD-BF-003-003-N.jpg","1","1","0","1","0","0","0.393084599985741","0.47814720007591","0.396213800064288","1","1","1","1","1","1","1","1","1"
"250065","img/neutralC/CFD-BF-003-003-N.jpg","img/neutralC/CFD-BF-255-140-N.jpg","img/neutralC/CFD-BM-027-001-N.jpg","0","1","0","0","1","0","0.396213800064288","0.393084599985741","0.382626999984495","1","1","1","1","1","1","1","1","1"
"250065","img/neutralC/CFD-BM-027-001-N.jpg","img/neutralC/CFD-BF-003-003-N.jpg","img/neutralC/CFD-BM-029-024-N.jpg","0","0","1","0","0","1","0.382626999984495","0.396213800064288","0.401720799971372","1","1","1","1","1","1","1","1","1"
"250065","img/neutralC/CFD-BM-029-024-N.jpg","img/neutralC/CFD-BM-027-001-N.jpg","img/neutralC/CFD-BM-247-240-N.jpg","1","0","1","1","0","0","0.401720799971372","0.382626999984495","0.484261900070123","1","1","1","1","1","1","1","1","1"
"250065","img/neutralC/CFD-BM-247-240-N.jpg","img/neutralC/CFD-BM-029-024-N.jpg","img/neutralC/CFD-IF-718-001-N.jpg","1","1","1","0","1","1","0.484261900070123","0.401720799971372","0.439710300066508","1","1","1","1","1","1","1","1","1"
"250065","img/neutralC/CFD-IF-718-001-N.jpg","img/neutralC/CFD-BM-247-240-N.jpg","img/neutralC/CFD-WF-026-002-N.jpg","1","1","1","1","0","1","0.439710300066508","0.484261900070123","0.41093099990394","1","1","1","1","1","1","1","1","1"
"250065","img/neutralC/CFD-WF-026-002-N.jpg","img/neutralC/CFD-IF-718-001-N.jpg","img/neutralC/CFD-BM-015-015-N.jpg","1","1","1","1","1","0","0.41093099990394","0.439710300066508","0.409001499996521","1","1","1","1","1","1","1","1","1"
"250065","img/neutralC/CFD-BM-015-015-N.jpg","img/neutralC/CFD-WF-026-002-N.jpg","img/neutralC/CFD-WF-022-017-N.jpg","1","1","0","0","1","0","0.409001499996521","0.41093099990394","0.415597599931061","1","1","1","1","1","1","1","1","1"
"250065","img/neutralC/CFD-WF-022-017-N.jpg","img/neutralC/CFD-BM-015-015-N.jpg","img/neutralC/CFD-WM-040-022-N.jpg","0","1","1","0","0","0","0.415597599931061","0.409001499996521","0.441367599996738","1","1","1","1","1","1","1","1","1"
"250065","img/neutralC/CFD-WM-040-022-N.jpg","img/neutralC/CFD-WF-022-017-N.jpg","img/neutralC/CFD-WM-225-127-N.jpg","1","0","1","0","0","0","0.441367599996738","0.415597599931061","0.420738500077277","1","1","1","1","1","1","1","1","1"
"250065","img/neutralC/CFD-WM-225-127-N.jpg","img/neutralC/CFD-WM-040-022-N.jpg","img/neutralC/CFD-BF-208-266-N.jpg","1","1","1","0","0","0","0.420738500077277","0.441367599996738","0.504734500078484","1","1","1","1","1","1","1","1","1"
"250065","img/neutralC/CFD-BF-208-266-N.jpg","img/neutralC/CFD-WM-225-127-N.jpg","img/neutralC/CFD-MM-319-052-N.jpg","1","1","1","0","0","1","0.504734500078484","0.420738500077277","0.384657699964009","1","1","1","1","1","1","1","1","1"
"250065","img/neutralC/CFD-MM-319-052-N.jpg","img/neutralC/CFD-BF-208-266-N.jpg","img/neutralC/CFD-WM-038-003-N.jpg","1","1","1","1","0","0","0.384657699964009","0.504734500078484","0.392551800003275","1","1","1","1","1","1","1","1","1"
"250065","img/neutralC/CFD-WM-038-003-N.jpg","img/neutralC/CFD-MM-319-052-N.jpg","img/neutralC/CFD-IM-639-263-N.jpg","1","1","1","0","1","1","0.392551800003275","0.384657699964009","0.386612799949944","1","1","1","1","1","1","1","1","1"
"250065","img/neutralC/CFD-IM-639-263-N.jpg","img/neutralC/CFD-WM-038-003-N.jpg","img/neutralC/CFD-WF-002-004-N.jpg","1","1","1","1","0","0","0.386612799949944","0.392551800003275","0.338290399988182","1","1","1","1","1","1","1","1","1"
"250065","img/neutralC/CFD-WF-002-004-N.jpg","img/neutralC/CFD-IM-639-263-N.jpg","img/neutralC/CFD-LM-252-076-N.jpg","1","1","1","0","1","1","0.338290399988182","0.386612799949944","0.363125200034119","1","1","1","1","1","1","1","1","1"
"250065","img/neutralC/CFD-LM-252-076-N.jpg","img/neutralC/CFD-WF-002-004-N.jpg","img/neutralC/CFD-IF-672-305-N.jpg","1","1","1","1","0","0","0.363125200034119","0.338290399988182","0.515454400097951","1","1","1","1","1","1","1","1","1"
"250065","img/neutralC/CFD-IF-672-305-N.jpg","img/neutralC/CFD-LM-252-076-N.jpg","img/neutralC/CFD-WM-257-161-N.jpg","1","1","1","0","1","1","0.515454400097951","0.363125200034119","0.372815600014292","1","1","1","1","1","1","1","1","1"
"250065","img/neutralC/CFD-WM-257-161-N.jpg","img/neutralC/CFD-IF-672-305-N.jpg","img/neutralC/CFD-IM-674-281-N.jpg","1","1","1","1","0","1","0.372815600014292","0.515454400097951","0.402106800000183","1","1","1","1","1","1","1","1","1"
"250065","img/neutralC/CFD-IM-674-281-N.jpg","img/neutralC/CFD-WM-257-161-N.jpg","img/neutralC/CFD-BF-023-010-N.jpg","1","1","1","1","1","1","0.402106800000183","0.372815600014292","0.330363099928945","1","1","1","1","1","1","1","1","1"
"250065","img/neutralC/CFD-BF-023-010-N.jpg","img/neutralC/CFD-IM-674-281-N.jpg","img/neutralC/CFD-AM-215-120-N.jpg","1","1","1","1","1","1","0.330363099928945","0.402106800000183","0.394810299971141","1","1","1","1","1","1","1","1","1"
"250065","img/neutralC/CFD-AM-215-120-N.jpg","img/neutralC/CFD-BF-023-010-N.jpg","img/neutralC/CFD-LF-236-221-N.jpg","1","1","1","1","1","1","0.394810299971141","0.330363099928945","0.322024499997497","1","1","1","1","1","1","1","1","1"
"250065","img/neutralC/CFD-LF-236-221-N.jpg","img/neutralC/CFD-AM-215-120-N.jpg","img/neutralC/CFD-BM-211-174-N.jpg","1","1","0","1","1","0","0.322024499997497","0.394810299971141","0.31381599989254","1","1","1","1","1","1","1","1","1"
"250065","img/neutralC/CFD-BM-211-174-N.jpg","img/neutralC/CFD-LF-236-221-N.jpg","img/neutralC/CFD-WM-002-009-N.jpg","0","1","1","0","1","0","0.31381599989254","0.322024499997497","0.41693830001168","1","1","1","1","1","1","1","1","1"
"250065","img/neutralC/CFD-WM-002-009-N.jpg","img/neutralC/CFD-BM-211-174-N.jpg",NA,"1","0",NA,"0","0",NA,"0.41693830001168","0.31381599989254",NA,"1","1",NA,"1","1",NA,"1","1",NA
"250065","img/neutralC/CFD-BF-043-003-N.jpg",NA,"img/neutralC/CFD-MM-304-002-N.jpg","1",NA,"1","0",NA,"1","0.472906499984674",NA,"0.390617099939846","1",NA,"1","1",NA,"1","1",NA,"1"
"250065","img/neutralC/CFD-MM-304-002-N.jpg","img/neutralC/CFD-BF-043-003-N.jpg","img/neutralC/CFD-WM-232-070-N.jpg","1","1","1","1","0","0","0.390617099939846","0.472906499984674","0.424842500011437","1","1","1","1","1","1","1","1","1"
"250065","img/neutralC/CFD-WM-232-070-N.jpg","img/neutralC/CFD-MM-304-002-N.jpg","img/neutralC/CFD-BF-224-002-N.jpg","1","1","1","0","1","1","0.424842500011437","0.390617099939846","0.358631100039929","1","1","1","1","1","1","1","1","1"
"250065","img/neutralC/CFD-BF-224-002-N.jpg","img/neutralC/CFD-WM-232-070-N.jpg","img/neutralC/CFD-AF-215-70-N.jpg","1","1","1","1","0","0","0.358631100039929","0.424842500011437","0.446932199993171","1","1","1","1","1","1","1","1","1"
"250065","img/neutralC/CFD-AF-215-70-N.jpg","img/neutralC/CFD-BF-224-002-N.jpg","img/neutralC/CFD-WF-217-085-N.jpg","1","1","1","0","1","1","0.446932199993171","0.358631100039929","0.383810899918899","1","1","1","1","1","1","1","1","1"
"250065","img/neutralC/CFD-WF-217-085-N.jpg","img/neutralC/CFD-AF-215-70-N.jpg","img/neutralC/CFD-MF-327-002-N.jpg","1","1","1","1","0","0","0.383810899918899","0.446932199993171","0.455025099916384","1","1","1","1","1","1","1","1","1"
"250065","img/neutralC/CFD-MF-327-002-N.jpg","img/neutralC/CFD-WF-217-085-N.jpg","img/neutralC/CFD-IM-685-004-N.jpg","1","1","1","0","1","1","0.455025099916384","0.383810899918899","0.344933600048535","1","1","1","1","1","1","1","1","1"
"250065","img/neutralC/CFD-IM-685-004-N.jpg","img/neutralC/CFD-MF-327-002-N.jpg","img/neutralC/CFD-IF-619-197-N.jpg","1","1","0","1","0","0","0.344933600048535","0.455025099916384","0.395507700042799","1","1","1","1","1","1","1","1","2"
"250065","img/neutralC/CFD-IF-619-197-N.jpg","img/neutralC/CFD-IM-685-004-N.jpg","img/neutralC/CFD-MF-329-001-N.jpg","0","1","1","0","1","0","0.395507700042799","0.344933600048535","0.453192500048317","1","1","1","1","1","1","2","1","1"
"250065","img/neutralC/CFD-MF-329-001-N.jpg","img/neutralC/CFD-IF-619-197-N.jpg","img/neutralC/CFD-AF-254-167-N.jpg","1","0","1","0","0","1","0.453192500048317","0.395507700042799","0.361310399952345","1","1","1","1","1","1","1","2","1"
"250065","img/neutralC/CFD-AF-254-167-N.jpg","img/neutralC/CFD-MF-329-001-N.jpg","img/neutralC/CFD-WF-008-002-N.jpg","1","1","1","1","0","1","0.361310399952345","0.453192500048317","0.365943699958734","1","1","1","1","1","1","1","1","1"
"250065","img/neutralC/CFD-WF-008-002-N.jpg","img/neutralC/CFD-AF-254-167-N.jpg","img/neutralC/CFD-BF-051-035-N.jpg","1","1","1","1","1","0","0.365943699958734","0.361310399952345","0.423091599950567","1","1","1","1","1","1","1","1","1"
"250065","img/neutralC/CFD-BF-051-035-N.jpg","img/neutralC/CFD-WF-008-002-N.jpg","img/neutralC/CFD-IM-709-103-N.jpg","1","1","1","0","1","0","0.423091599950567","0.365943699958734","0.36301640002057","1","1","1","1","1","1","1","1","1"
"250065","img/neutralC/CFD-IM-709-103-N.jpg","img/neutralC/CFD-BF-051-035-N.jpg","img/neutralC/CFD-MF-300-002-N.jpg","1","1","1","0","0","0","0.36301640002057","0.423091599950567","0.446706100017764","1","1","1","1","1","1","1","1","1"
"250065","img/neutralC/CFD-MF-300-002-N.jpg","img/neutralC/CFD-IM-709-103-N.jpg","img/neutralC/CFD-LF-226-174-N.jpg","1","1","1","0","0","0","0.446706100017764","0.36301640002057","0.411531899939291","1","1","1","1","1","1","1","1","1"
"250065","img/neutralC/CFD-LF-226-174-N.jpg","img/neutralC/CFD-MF-300-002-N.jpg","img/neutralC/CFD-WF-212-050-N.jpg","1","1","1","0","0","0","0.411531899939291","0.446706100017764","0.395198300015181","1","1","1","1","1","1","1","1","1"
"250065","img/neutralC/CFD-WF-212-050-N.jpg","img/neutralC/CFD-LF-226-174-N.jpg","img/neutralC/CFD-LF-201-035-N.jpg","1","1","1","0","0","1","0.395198300015181","0.411531899939291","0.39278499991633","1","1","1","1","1","1","1","1","1"
"250065","img/neutralC/CFD-LF-201-035-N.jpg","img/neutralC/CFD-WF-212-050-N.jpg","img/neutralC/CFD-AM-236-090-N.jpg","1","1","1","1","0","1","0.39278499991633","0.395198300015181","0.407520900014788","1","1","1","1","1","1","1","1","1"
"250065","img/neutralC/CFD-AM-236-090-N.jpg","img/neutralC/CFD-LF-201-035-N.jpg","img/neutralC/CFD-WM-213-076-N.jpg","1","1","1","1","1","1","0.407520900014788","0.39278499991633","0.375374900060706","1","1","1","1","1","1","1","1","1"
"250065","img/neutralC/CFD-WM-213-076-N.jpg","img/neutralC/CFD-AM-236-090-N.jpg","img/neutralC/CFD-BM-039-029-N.jpg","1","1","1","1","1","1","0.375374900060706","0.407520900014788","0.557986699976027","1","1","1","1","1","1","1","1","1"
"250065","img/neutralC/CFD-BM-039-029-N.jpg","img/neutralC/CFD-WM-213-076-N.jpg","img/neutralC/CFD-IM-604-014-N.jpg","1","1","0","1","1","0","0.557986699976027","0.375374900060706","0.37554000003729","1","1","1","1","1","1","1","1","1"
"250065","img/neutralC/CFD-IM-604-014-N.jpg","img/neutralC/CFD-BM-039-029-N.jpg","img/neutralC/CFD-IM-675-015-N.jpg","0","1","1","0","1","1","0.37554000003729","0.557986699976027","0.367499400046654","1","1","1","1","1","1","1","1","1"
"250065","img/neutralC/CFD-IM-675-015-N.jpg","img/neutralC/CFD-IM-604-014-N.jpg","img/neutralC/CFD-IM-637-007-N.jpg","1","0","1","1","0","0","0.367499400046654","0.37554000003729","0.396436000009999","1","1","1","1","1","1","1","1","1"
"250065","img/neutralC/CFD-IM-637-007-N.jpg","img/neutralC/CFD-IM-675-015-N.jpg","img/neutralC/CFD-MF-340-026-N.jpg","1","1","1","0","1","1","0.396436000009999","0.367499400046654","0.384908000007272","1","1","1","1","1","1","1","1","1"
"250065","img/neutralC/CFD-MF-340-026-N.jpg","img/neutralC/CFD-IM-637-007-N.jpg","img/neutralC/CFD-LM-217-162-N.jpg","1","1","1","1","0","0","0.384908000007272","0.396436000009999","0.411019699997269","1","1","1","1","1","1","1","1","1"
"250065","img/neutralC/CFD-LM-217-162-N.jpg","img/neutralC/CFD-MF-340-026-N.jpg","img/neutralC/CFD-IF-608-390-N.jpg","1","1","1","0","1","1","0.411019699997269","0.384908000007272","0.388734699925408","1","1","1","1","1","1","1","1","1"
"250065","img/neutralC/CFD-IF-608-390-N.jpg","img/neutralC/CFD-LM-217-162-N.jpg","img/neutralC/CFD-AF-229-160-N.jpg","1","1","1","1","0","0","0.388734699925408","0.411019699997269","0.622827999992296","1","1","1","1","1","1","1","1","1"
"250065","img/neutralC/CFD-AF-229-160-N.jpg","img/neutralC/CFD-IF-608-390-N.jpg","img/neutralC/CFD-WF-012-002-N.jpg","1","1","1","0","1","1","0.622827999992296","0.388734699925408","0.389572199899703","1","1","1","1","1","1","1","1","1"
"250065","img/neutralC/CFD-WF-012-002-N.jpg","img/neutralC/CFD-AF-229-160-N.jpg","img/neutralC/CFD-WM-024-015-N.jpg","1","1","1","1","0","1","0.389572199899703","0.622827999992296","0.365041699958965","1","1","1","1","1","1","1","1","1"
"250065","img/neutralC/CFD-WM-024-015-N.jpg","img/neutralC/CFD-WF-012-002-N.jpg","img/neutralC/CFD-BM-243-218-N.jpg","1","1","1","1","1","1","0.365041699958965","0.389572199899703","0.403016699943691","1","1","1","1","1","1","1","1","1"
"250065","img/neutralC/CFD-BM-243-218-N.jpg","img/neutralC/CFD-WM-024-015-N.jpg","img/neutralC/CFD-WF-248-129-N.jpg","1","1","1","1","1","0","0.403016699943691","0.365041699958965","0.371168700046837","1","1","1","1","1","1","1","1","1"
"250065","img/neutralC/CFD-WF-248-129-N.jpg","img/neutralC/CFD-BM-243-218-N.jpg",NA,"1","1",NA,"0","1",NA,"0.371168700046837","0.403016699943691",NA,"1","1",NA,"1","1",NA,"1","1",NA
"250065","img/neutralC/CFD-WF-234-086-N.jpg",NA,"img/neutralC/CFD-WM-248-036-N.jpg","1",NA,"1","1",NA,"1","0.342965799965896",NA,"0.372919099987485","1",NA,"1","1",NA,"1","1",NA,"1"
"250065","img/neutralC/CFD-WM-248-036-N.jpg","img/neutralC/CFD-WF-234-086-N.jpg","img/neutralC/CFD-BF-027-002-N.jpg","1","1","1","1","1","1","0.372919099987485","0.342965799965896","0.372752199997194","1","1","1","1","1","1","1","1","1"
"250065","img/neutralC/CFD-BF-027-002-N.jpg","img/neutralC/CFD-WM-248-036-N.jpg","img/neutralC/CFD-BF-247-179-N.jpg","1","1","1","1","1","0","0.372752199997194","0.372919099987485","0.352979600080289","1","1","1","1","1","1","1","1","1"
"250065","img/neutralC/CFD-BF-247-179-N.jpg","img/neutralC/CFD-BF-027-002-N.jpg","img/neutralC/CFD-BM-207-024-N.jpg","1","1","0","0","1","1","0.352979600080289","0.372752199997194","0.342619900009595","1","1","1","1","1","1","1","1","1"
"250065","img/neutralC/CFD-BM-207-024-N.jpg","img/neutralC/CFD-BF-247-179-N.jpg","img/neutralC/CFD-WF-029-002-N.jpg","0","1","1","1","0","0","0.342619900009595","0.352979600080289","0.424473999999464","1","1","1","1","1","1","1","1","1"
"250065","img/neutralC/CFD-WF-029-002-N.jpg","img/neutralC/CFD-BM-207-024-N.jpg","img/neutralC/CFD-BF-236-177-N.jpg","1","0","1","0","1","0","0.424473999999464","0.342619900009595","0.403696399996988","1","1","1","1","1","1","1","1","1"
"250065","img/neutralC/CFD-BF-236-177-N.jpg","img/neutralC/CFD-WF-029-002-N.jpg","img/neutralC/CFD-BM-241-235-N.jpg","1","1","0","0","0","0","0.403696399996988","0.424473999999464","0.41005279996898","1","1","1","1","1","1","1","1","1"
"250065","img/neutralC/CFD-BM-241-235-N.jpg","img/neutralC/CFD-BF-236-177-N.jpg","img/neutralC/CFD-AM-230-150-N.jpg","0","1","1","0","0","0","0.41005279996898","0.403696399996988","0.531215399969369","1","1","1","1","1","1","1","1","1"
"250065","img/neutralC/CFD-AM-230-150-N.jpg","img/neutralC/CFD-BM-241-235-N.jpg","img/neutralC/CFD-MF-301-024-N.jpg","1","0","0","0","0","0","0.531215399969369","0.41005279996898","0.391840000054799","1","1","1","1","1","1","1","1","1"
"250065","img/neutralC/CFD-MF-301-024-N.jpg","img/neutralC/CFD-AM-230-150-N.jpg","img/neutralC/CFD-IF-677-452-1-N.jpg","0","1","1","0","0","1","0.391840000054799","0.531215399969369","0.413304499932565","1","1","1","1","1","1","1","1","1"
"250065","img/neutralC/CFD-IF-677-452-1-N.jpg","img/neutralC/CFD-MF-301-024-N.jpg","img/neutralC/CFD-IM-707-105-N.jpg","1","0","1","1","0","1","0.413304499932565","0.391840000054799","0.425444100052118","1","1","1","1","1","1","1","1","1"
"250065","img/neutralC/CFD-IM-707-105-N.jpg","img/neutralC/CFD-IF-677-452-1-N.jpg","img/neutralC/CFD-BF-011-002-N.jpg","1","1","1","1","1","1","0.425444100052118","0.413304499932565","0.468343399930745","1","1","1","1","1","1","1","1","1"
"250065","img/neutralC/CFD-BF-011-002-N.jpg","img/neutralC/CFD-IM-707-105-N.jpg","img/neutralC/CFD-BF-036-027-N.jpg","1","1","1","1","1","0","0.468343399930745","0.425444100052118","0.475377399940044","1","1","1","1","1","1","1","1","1"
"250065","img/neutralC/CFD-BF-036-027-N.jpg","img/neutralC/CFD-BF-011-002-N.jpg","img/neutralC/CFD-BF-214-308-N.jpg","1","1","1","0","1","1","0.475377399940044","0.468343399930745","0.40969970007427","1","1","1","1","1","1","1","1","1"
"250065","img/neutralC/CFD-BF-214-308-N.jpg","img/neutralC/CFD-BF-036-027-N.jpg","img/neutralC/CFD-WF-233-112-N.jpg","1","1","1","1","0","1","0.40969970007427","0.475377399940044","0.396752400090918","1","1","1","1","1","1","1","1","1"
"250065","img/neutralC/CFD-WF-233-112-N.jpg","img/neutralC/CFD-BF-214-308-N.jpg","img/neutralC/CFD-BM-238-242-N.jpg","1","1","1","1","1","0","0.396752400090918","0.40969970007427","0.409055300056934","1","1","1","1","1","1","1","1","1"
"250065","img/neutralC/CFD-BM-238-242-N.jpg","img/neutralC/CFD-WF-233-112-N.jpg","img/neutralC/CFD-IF-729-393-N.jpg","1","1","1","0","1","0","0.409055300056934","0.396752400090918","0.50966330000665","1","1","1","1","1","1","1","1","1"
"250065","img/neutralC/CFD-IF-729-393-N.jpg","img/neutralC/CFD-BM-238-242-N.jpg","img/neutralC/CFD-IM-721-341-N.jpg","1","1","1","0","0","1","0.50966330000665","0.409055300056934","0.374433099990711","1","1","1","1","1","1","1","1","1"
"250065","img/neutralC/CFD-IM-721-341-N.jpg","img/neutralC/CFD-IF-729-393-N.jpg","img/neutralC/CFD-BF-044-034-N.jpg","1","1","1","1","0","0","0.374433099990711","0.50966330000665","0.416091599967331","1","1","1","1","1","1","1","1","1"
"250065","img/neutralC/CFD-BF-044-034-N.jpg","img/neutralC/CFD-IM-721-341-N.jpg","img/neutralC/CFD-IF-742-103-N.jpg","1","1","1","0","1","1","0.416091599967331","0.374433099990711","0.378517100005411","1","1","1","1","1","1","1","1","1"
"250065","img/neutralC/CFD-IF-742-103-N.jpg","img/neutralC/CFD-BF-044-034-N.jpg","img/neutralC/CFD-LF-204-133-N.jpg","1","1","1","1","0","1","0.378517100005411","0.416091599967331","0.44057619990781","1","1","1","1","1","1","1","1","1"
"250065","img/neutralC/CFD-LF-204-133-N.jpg","img/neutralC/CFD-IF-742-103-N.jpg","img/neutralC/CFD-BF-006-017-N.jpg","1","1","1","1","1","0","0.44057619990781","0.378517100005411","0.481855300022289","1","1","1","1","1","1","1","1","1"
"250065","img/neutralC/CFD-BF-006-017-N.jpg","img/neutralC/CFD-LF-204-133-N.jpg","img/neutralC/CFD-WM-014-002-N.jpg","1","1","0","0","1","0","0.481855300022289","0.44057619990781","0.503785099950619","1","1","1","1","1","1","1","1","1"
"250065","img/neutralC/CFD-WM-014-002-N.jpg","img/neutralC/CFD-BF-006-017-N.jpg","img/neutralC/CFD-IM-696-001-N.jpg","0","1","1","0","0","0","0.503785099950619","0.481855300022289","0.504865899914876","1","1","1","1","1","1","1","1","1"
"250065","img/neutralC/CFD-IM-696-001-N.jpg","img/neutralC/CFD-WM-014-002-N.jpg","img/neutralC/CFD-WF-208-068-N.jpg","1","0","1","0","0","1","0.504865899914876","0.503785099950619","0.450144000002183","1","1","1","1","1","1","1","1","1"
"250065","img/neutralC/CFD-WF-208-068-N.jpg","img/neutralC/CFD-IM-696-001-N.jpg","img/neutralC/CFD-IM-726-248-N.jpg","1","1","1","1","0","0","0.450144000002183","0.504865899914876","0.481657399912365","1","1","1","1","1","1","1","1","1"
"250065","img/neutralC/CFD-IM-726-248-N.jpg","img/neutralC/CFD-WF-208-068-N.jpg","img/neutralC/CFD-WM-034-030-N.jpg","1","1","1","0","1","1","0.481657399912365","0.450144000002183","0.383554499945603","1","1","1","1","1","1","1","1","1"
"250065","img/neutralC/CFD-WM-034-030-N.jpg","img/neutralC/CFD-IM-726-248-N.jpg","img/neutralC/CFD-LM-213-061-N.jpg","1","1","1","1","0","0","0.383554499945603","0.481657399912365","0.401150199933909","1","1","1","1","1","1","1","1","1"
"250065","img/neutralC/CFD-LM-213-061-N.jpg","img/neutralC/CFD-WM-034-030-N.jpg","img/neutralC/CFD-BF-002-001-N.jpg","1","1","1","0","1","0","0.401150199933909","0.383554499945603","0.450897700036876","1","1","1","1","1","1","1","1","1"
"250065","img/neutralC/CFD-BF-002-001-N.jpg","img/neutralC/CFD-LM-213-061-N.jpg","img/neutralC/CFD-BF-207-004-N.jpg","1","1","1","0","0","1","0.450897700036876","0.401150199933909","0.36155539995525","1","1","1","1","1","1","1","1","1"
"250065","img/neutralC/CFD-BF-207-004-N.jpg","img/neutralC/CFD-BF-002-001-N.jpg","img/neutralC/CFD-BM-036-003-N.jpg","1","1","1","1","0","1","0.36155539995525","0.450897700036876","0.370531399967149","1","1","1","1","1","1","1","1","1"
"250065","img/neutralC/CFD-BM-036-003-N.jpg","img/neutralC/CFD-BF-207-004-N.jpg",NA,"1","1",NA,"1","1",NA,"0.370531399967149","0.36155539995525",NA,"1","1",NA,"1","1",NA,"1","1",NA
