"participant_id","face","surpAcc","memory_surp_responses","memory_surp_rt","keep_surp_memory_trial_based_on_rt","surp_block_num","exclude_block","number_of_surp_resp_items_used","num_blocks_excluded"
"250022","img/neutralC/CFD-AM-221-184-N.jpg","0","k","1.3132798000006",1,1,0,2,0
"250022","img/neutralC/CFD-LF-242-121-N.jpg","0","s","0.934939700004179",1,1,0,2,0
"250022","img/neutralC/CFD-WF-207-014-N.jpg","0","s","0.8966078000376",1,1,0,2,0
"250022","img/neutralC/CFD-IM-684-008-N.jpg","1","k","0.886359800002538",1,1,0,2,0
"250022","img/neutralC/CFD-BM-010-003-N.jpg","1","s","0.867668199993204",1,1,0,2,0
"250022","img/neutralC/CFD-BF-202-109-N.jpg","1","s","0.860696999996435",1,1,0,2,0
"250022","img/neutralC/CFD-BF-041-001-N.jpg","0","s","0.837947799998801",1,1,0,2,0
"250022","img/neutralC/CFD-BF-236-177-N.jpg","0","s","0.986515700002201",1,1,0,2,0
"250022","img/neutralC/CFD-AM-220-134-N.jpg","0","k","0.657556399994064",1,1,0,2,0
"250022","img/neutralC/CFD-IF-642-295-N.jpg","1","s","0.814046000014059",1,1,0,2,0
"250022","img/neutralC/CFD-IM-635-010-N.jpg","0","k","0.721366499958094",1,1,0,2,0
"250022","img/neutralC/CFD-AM-236-090-N.jpg","1","s","0.489264399977401",1,1,0,2,0
"250022","img/neutralC/CFD-WF-027-003-N.jpg","0","s","0.689964700024575",1,1,0,2,0
"250022","img/neutralC/CFD-BF-014-002-N.jpg","1","k","0.735619399987627",1,1,0,2,0
"250022","img/neutralC/CFD-WF-005-010-N.jpg","0","s","0.513873499992769",1,1,0,2,0
"250022","img/neutralC/CFD-WM-249-239-N.jpg","1","k","0.867612900037784",1,1,0,2,0
"250022","img/neutralC/CFD-IM-743-006-N.jpg","1","k","0.697076299984474",1,1,0,2,0
"250022","img/neutralC/CFD-WF-029-002-N.jpg","1","s","0.762281699979212",1,1,0,2,0
"250022","img/neutralC/CFD-MF-340-026-N.jpg","1","k","0.937164500006475",1,1,0,2,0
"250022","img/neutralC/CFD-WF-243-148-N.jpg","1","k","0.881435299990699",1,1,0,2,0
"250022","img/neutralC/CFD-WF-221-005-N.jpg","0","k","1.51770409999881",1,1,0,2,0
"250022","img/neutralC/CFD-BF-201-080-N.jpg","1","s","1.45774000004167",1,1,0,2,0
"250022","img/neutralC/CFD-BF-237-172-N.jpg","0","s","1.0729113999987",1,1,0,2,0
"250022","img/neutralC/CFD-AF-233-190-N.jpg","1","s","0.989113499992527",1,1,0,2,0
"250022","img/neutralC/CFD-WM-225-127-N.jpg","1","s","0.842858899966814",1,1,0,2,0
"250022","img/neutralC/CFD-LM-252-076-N.jpg","1","s","0.932958699995652",1,1,0,2,0
"250022","img/neutralC/CFD-WF-245-084-N.jpg","1","k","0.924272799980827",1,1,0,2,0
"250022","img/neutralC/CFD-WF-002-004-N.jpg","1","k","1.4941149999504",1,1,0,2,0
"250022","img/neutralC/CFD-WM-021-001-N.jpg","1","s","1.78753999999026",1,1,0,2,0
"250022","img/neutralC/CFD-MF-328-020-N.jpg","0","s","0.849142899969593",1,1,0,2,0
"250022","img/neutralC/CFD-BM-029-024-N.jpg","0","s","1.07623950002016",1,1,0,2,0
"250022","img/neutralC/CFD-IF-625-225-N.jpg","1","s","1.49015859997598",1,1,0,2,0
"250022","img/neutralC/CFD-WF-224-099-N.jpg","0","s","0.950781899970025",1,1,0,2,0
"250022","img/neutralC/CFD-LM-244-068-N.jpg","0","s","1.23789819999365",1,1,0,2,0
"250022","img/neutralC/CFD-BM-027-001-N.jpg","0","s","1.06449710001471",1,1,0,2,0
"250022","img/neutralC/CFD-AF-254-167-N.jpg","1","k","1.02946379996138",1,1,0,2,0
"250022","img/neutralC/CFD-BF-207-004-N.jpg","1","s","0.849790700012818",1,1,0,2,0
"250022","img/neutralC/CFD-WM-221-091-N.jpg","1","s","0.827059400035068",1,1,0,2,0
"250022","img/neutralC/CFD-LF-211-003-N.jpg","0","k","0.800775500014424",1,1,0,2,0
"250022","img/neutralC/CFD-IM-606-008-N.jpg","1","s","0.623342799954116",1,1,0,2,0
"250022","img/neutralC/CFD-LF-239-148-N.jpg","1","s","0.949289399955887",1,1,0,2,0
"250022","img/neutralC/CFD-BF-217-189-N.jpg","1","k","0.87594200001331",1,1,0,2,0
"250022","img/neutralC/CFD-IM-638-250-1-N.jpg","0","k","0.794248699967284",1,1,0,2,0
"250022","img/neutralC/CFD-MF-336-016-N.jpg","0","k","0.865150499972515",1,1,0,2,0
"250022","img/neutralC/CFD-AF-240-206-N.jpg","0","k","0.713463300024159",1,1,0,2,0
"250022","img/neutralC/CFD-WF-228-196-N.jpg","1","k","0.922415399982128",1,1,0,2,0
"250022","img/neutralC/CFD-LF-203-066-N.jpg","1","s","0.798825500009116",1,1,0,2,0
"250022","img/neutralC/CFD-AF-205-155-N.jpg","1","s","0.78823609999381",1,1,0,2,0
"250022","img/neutralC/CFD-AM-245-111-N.jpg","1","s","1.21720320003806",1,2,0,2,0
"250022","img/neutralC/CFD-BM-018-001-N.jpg","0","s","0.784899899968877",1,2,0,2,0
"250022","img/neutralC/CFD-BF-020-002-N.jpg","0","k","0.647003100020811",1,2,0,2,0
"250022","img/neutralC/CFD-LM-243-075-N.jpg","0","s","0.570945000043139",1,2,0,2,0
"250022","img/neutralC/CFD-AF-215-70-N.jpg","1","k","1.11108370003058",1,2,0,2,0
"250022","img/neutralC/CFD-WF-006-002-N.jpg","1","s","0.949478299997281",1,2,0,2,0
"250022","img/neutralC/CFD-BM-001-014-N.jpg","1","s","1.08592079998925",1,2,0,2,0
"250022","img/neutralC/CFD-WF-209-052-N.jpg","1","k","1.28220429999055",1,2,0,2,0
"250022","img/neutralC/CFD-MF-335-002-N.jpg","1","k","1.8827667000005",1,2,0,2,0
"250022","img/neutralC/CFD-BF-212-315-N.jpg","1","s","1.22281099995598",1,2,0,2,0
"250022","img/neutralC/CFD-LM-200-045-N.jpg","1","s","1.42452220001724",1,2,0,2,0
"250022","img/neutralC/CFD-AF-237-223-N.jpg","0","s","3.9535532000009",1,2,0,2,0
"250022","img/neutralC/CFD-BF-028-001-N.jpg","1","k","1.02582350000739",1,2,0,2,0
"250022","img/neutralC/CFD-BF-039-031-N.jpg","0","k","0.929326999990735",1,2,0,2,0
"250022","img/neutralC/CFD-WM-006-002-N.jpg","1","s","0.955156499985606",1,2,0,2,0
"250022","img/neutralC/CFD-MF-309-002-N.jpg","1","s","0.92756380001083",1,2,0,2,0
"250022","img/neutralC/CFD-LM-219-295-N.jpg","1","s","0.86355559999356",1,2,0,2,0
"250022","img/neutralC/CFD-LM-238-129-N.jpg","0","s","1.01488909998443",1,2,0,2,0
"250022","img/neutralC/CFD-AF-229-160-N.jpg","1","s","1.42388209997443",1,2,0,2,0
"250022","img/neutralC/CFD-BM-247-240-N.jpg","1","k","2.16139919997659",1,2,0,2,0
"250022","img/neutralC/CFD-IM-696-001-N.jpg","1","k","1.04508710000664",1,2,0,2,0
"250022","img/neutralC/CFD-WF-226-095-N.jpg","1","k","0.731102599995211",1,2,0,2,0
"250022","img/neutralC/CFD-WM-253-119-N.jpg","0","k","1.27146230003564",1,2,0,2,0
"250022","img/neutralC/CFD-AF-221-147-N.jpg","0","s","0.680132199951913",1,2,0,2,0
"250022","img/neutralC/CFD-LF-214-090-N.jpg","0","s","0.942713099997491",1,2,0,2,0
"250022","img/neutralC/CFD-BF-002-001-N.jpg","1","s","0.948557100025937",1,2,0,2,0
"250022","img/neutralC/CFD-WF-238-023-N.jpg","1","s","1.49865419999696",1,2,0,2,0
"250022","img/neutralC/CFD-BF-226-119-N.jpg","0","s","0.992088500002865",1,2,0,2,0
"250022","img/neutralC/CFD-LF-212-066-N.jpg","0","k","1.07500439998694",1,2,0,2,0
"250022","img/neutralC/CFD-LM-226-175-N.jpg","0","k","1.11047969997162",1,2,0,2,0
"250022","img/neutralC/CFD-BF-232-187-N.jpg","0","s","0.922408299986273",1,2,0,2,0
"250022","img/neutralC/CFD-BM-013-002-N.jpg","1","k","0.887251099979039",1,2,0,2,0
"250022","img/neutralC/CFD-IM-703-182-N.jpg","0","s","0.75417379999999",1,2,0,2,0
"250022","img/neutralC/CFD-AM-247-165-N.jpg","1","s","1.16081149998354",1,2,0,2,0
"250022","img/neutralC/CFD-IM-675-015-N.jpg","0","k","0.683723299996927",1,2,0,2,0
"250022","img/neutralC/CFD-BM-250-170-N.jpg","0","s","0.757509599963669",1,2,0,2,0
"250022","img/neutralC/CFD-LF-208-127-N.jpg","1","k","2.07654119998915",1,2,0,2,0
"250022","img/neutralC/CFD-BF-010-001-N.jpg","0","s","1.0008863999974",1,2,0,2,0
"250022","img/neutralC/CFD-WM-018-002-N.jpg","1","k","0.859823199978564",1,2,0,2,0
"250022","img/neutralC/CFD-WF-007-001-N.jpg","1","s","0.960720300034154",1,2,0,2,0
"250022","img/neutralC/CFD-AM-230-150-N.jpg","1","s","0.785441500018351",1,2,0,2,0
"250022","img/neutralC/CFD-MF-301-024-N.jpg","0","s","0.952618399984203",1,2,0,2,0
"250022","img/neutralC/CFD-WF-235-121-N.jpg","1","k","0.925480899983086",1,2,0,2,0
"250022","img/neutralC/CFD-LM-218-183-N.jpg","1","s","1.06097819999559",1,2,0,2,0
"250022","img/neutralC/CFD-WM-024-015-N.jpg","0","k","1.04574860003777",1,2,0,2,0
"250022","img/neutralC/CFD-LF-222-147-N.jpg","0","s","0.879812899976969",1,2,0,2,0
"250022","img/neutralC/CFD-MF-318-022-N.jpg","0","k","1.08185329998378",1,2,0,2,0
"250022","img/neutralC/CFD-AM-235-241-N.jpg","1","s","0.917489400017075",1,2,0,2,0
"250022","img/neutralC/CFD-WF-223-133-N.jpg","1","s","0.957191599998623",1,3,0,2,0
"250022","img/neutralC/CFD-IM-616-214-N.jpg","0","k","0.855812599998899",1,3,0,2,0
"250022","img/neutralC/CFD-BF-222-240-N.jpg","1","k","0.727769899996929",1,3,0,2,0
"250022","img/neutralC/CFD-IM-719-221-N.jpg","0","k","1.13753329997417",1,3,0,2,0
"250022","img/neutralC/CFD-LM-233-171-N.jpg","0","s","0.90372830000706",1,3,0,2,0
"250022","img/neutralC/CFD-LF-210-220-N.jpg","0","s","0.888884100015275",1,3,0,2,0
"250022","img/neutralC/CFD-BF-253-202-N.jpg","0","s","1.22637280001072",1,3,0,2,0
"250022","img/neutralC/CFD-BF-042-026-N.jpg","1","s","0.75507190002827",1,3,0,2,0
"250022","img/neutralC/CFD-LM-214-165-N.jpg","0","s","0.717504600004759",1,3,0,2,0
"250022","img/neutralC/CFD-WF-222-092-N.jpg","1","s","1.25477030000184",1,3,0,2,0
"250022","img/neutralC/CFD-MF-302-027-N.jpg","1","k","1.05563369998708",1,3,0,2,0
"250022","img/neutralC/CFD-LF-238-154-N.jpg","1","s","0.929686599993147",1,3,0,2,0
"250022","img/neutralC/CFD-WM-237-052-N.jpg","1","k","0.88276330003282",1,3,0,2,0
"250022","img/neutralC/CFD-IM-604-014-N.jpg","0","s","1.03823840001132",1,3,0,2,0
"250022","img/neutralC/CFD-BF-254-201-N.jpg","1","k","0.886114499997348",1,3,0,2,0
"250022","img/neutralC/CFD-LF-218-072-N.jpg","1","s","0.895475100027397",1,3,0,2,0
"250022","img/neutralC/CFD-BF-214-308-N.jpg","1","k","0.989168000000063",1,3,0,2,0
"250022","img/neutralC/CFD-LM-215-247-N.jpg","0","k","0.69813360000262",1,3,0,2,0
"250022","img/neutralC/CFD-LF-250-169-N.jpg","1","s","0.630819100013468",1,3,0,2,0
"250022","img/neutralC/CFD-IF-620-218-N.jpg","1","s","0.903554999968037",1,3,0,2,0
"250022","img/neutralC/CFD-IF-676-017-N.jpg","0","s","0.870344800001476",1,3,0,2,0
"250022","img/neutralC/CFD-IF-629-234-N.jpg","1","s","0.775244499964174",1,3,0,2,0
"250022","img/neutralC/CFD-AF-202-122-N.jpg","0","k","1.00982580002164",1,3,0,2,0
"250022","img/neutralC/CFD-MF-337-026-N.jpg","0","s","1.11322250001831",1,3,0,2,0
"250022","img/neutralC/CFD-BM-019-002-N.jpg","1","k","1.00605200004065",1,3,0,2,0
"250022","img/neutralC/CFD-IM-702-101-N.jpg","0","s","0.76941219996661",1,3,0,2,0
"250022","img/neutralC/CFD-WF-018-017-N.jpg","1","s","3.60214259999339",1,3,0,2,0
"250022","img/neutralC/CFD-BM-215-155-N.jpg","1","k","1.16965170000913",1,3,0,2,0
"250022","img/neutralC/CFD-BM-243-218-N.jpg","1","s","0.951271999976598",1,3,0,2,0
"250022","img/neutralC/CFD-BM-241-235-N.jpg","1","s","0.918188100040425",1,3,0,2,0
"250022","img/neutralC/CFD-BM-225-154-N.jpg","1","k","1.51311150001129",1,3,0,2,0
"250022","img/neutralC/CFD-LF-236-221-N.jpg","1","k","2.58513869997114",1,3,0,2,0
"250022","img/neutralC/CFD-LM-253-075-N.jpg","1","s","1.1211692999932",1,3,0,2,0
"250022","img/neutralC/CFD-BF-006-017-N.jpg","1","s","1.11250970000401",1,3,0,2,0
"250022","img/neutralC/CFD-LF-247-051-N.jpg","1","k","0.946890100021847",1,3,0,2,0
"250022","img/neutralC/CFD-WM-002-009-N.jpg","1","k","0.766602799994871",1,3,0,2,0
"250022","img/neutralC/CFD-AF-206-079-N.jpg","0","k","0.938595999963582",1,3,0,2,0
"250022","img/neutralC/CFD-BM-021-021-N.jpg","0","k","0.900784099998418",1,3,0,2,0
"250022","img/neutralC/CFD-AM-244-222-N.jpg","1","k","1.21264639997389",1,3,0,2,0
"250022","img/neutralC/CFD-WF-241-210-N.jpg","0","s","0.860111999965739",1,3,0,2,0
"250022","img/neutralC/CFD-IM-697-015-N.jpg","1","k","0.88319630001206",1,3,0,2,0
"250022","img/neutralC/CFD-WM-041-021-N.jpg","0","k","1.12326700001722",1,3,0,2,0
"250022","img/neutralC/CFD-MF-343-001-N.jpg","1","s","1.18033760000253",1,3,0,2,0
"250022","img/neutralC/CFD-IM-615-167-N.jpg","0","s","1.19206869998015",1,3,0,2,0
"250022","img/neutralC/CFD-LF-230-203-N.jpg","1","k","0.825129000004381",1,3,0,2,0
"250022","img/neutralC/CFD-IF-608-390-N.jpg","0","s","1.36239870003192",1,3,0,2,0
"250022","img/neutralC/CFD-IM-637-007-N.jpg","0","k","1.10130939999362",1,3,0,2,0
"250022","img/neutralC/CFD-IM-646-023-N.jpg","1","k","0.783297999994829",1,3,0,2,0
"250022","img/neutralC/CFD-WM-025-002-N.jpg","1","s","0.943604600033723",1,4,0,2,0
"250022","img/neutralC/CFD-WM-232-070-N.jpg","0","s","1.02272869995795",1,4,0,2,0
"250022","img/neutralC/CFD-LM-225-130-N.jpg","1","k","0.539573100046255",1,4,0,2,0
"250022","img/neutralC/CFD-MF-316-001-N.jpg","0","s","1.00844709994271",1,4,0,2,0
"250022","img/neutralC/CFD-WF-009-001-N.jpg","0","k","0.873538299987558",1,4,0,2,0
"250022","img/neutralC/CFD-BM-204-003-N.jpg","0","s","0.880360500013921",1,4,0,2,0
"250022","img/neutralC/CFD-LF-220-120-N.jpg","1","s","0.835840600018855",1,4,0,2,0
"250022","img/neutralC/CFD-WF-214-122-N.jpg","1","s","1.01468080002815",1,4,0,2,0
"250022","img/neutralC/CFD-IF-650-315-N.jpg","1","k","1.41912650002632",1,4,0,2,0
"250022","img/neutralC/CFD-BF-029-031-N.jpg","0","s","1.12384090002161",1,4,0,2,0
"250022","img/neutralC/CFD-WF-248-129-N.jpg","0","s","0.906650400022045",1,4,0,2,0
"250022","img/neutralC/CFD-BM-212-117-N.jpg","1","k","1.1566085999948",1,4,0,2,0
"250022","img/neutralC/CFD-IF-729-393-N.jpg","1","k","1.23400970001239",1,4,0,2,0
"250022","img/neutralC/CFD-MF-342-022-N.jpg","1","s","0.823039499984588",1,4,0,2,0
"250022","img/neutralC/CFD-BM-033-003-N.jpg","1","k","0.91172789997654",1,4,0,2,0
"250022","img/neutralC/CFD-LF-226-174-N.jpg","0","s","1.01052660000278",1,4,0,2,0
"250022","img/neutralC/CFD-AF-241-141-N.jpg","1","k","0.995833499997389",1,4,0,2,0
"250022","img/neutralC/CFD-IM-721-341-N.jpg","0","s","1.30764069996076",1,4,0,2,0
"250022","img/neutralC/CFD-BF-213-188-N.jpg","1","s","0.957965700014029",1,4,0,2,0
"250022","img/neutralC/CFD-MF-357-002-N.jpg","1","s","0.970047099981457",1,4,0,2,0
"250022","img/neutralC/CFD-WM-026-001-N.jpg","1","k","0.752784100011922",1,4,0,2,0
"250022","img/neutralC/CFD-BM-200-046-N.jpg","0","s","0.634182500012685",1,4,0,2,0
"250022","img/neutralC/CFD-IM-685-004-N.jpg","0","s","0.727786700008437",1,4,0,2,0
"250022","img/neutralC/CFD-MF-329-001-N.jpg","0","s","0.783844700024929",1,4,0,2,0
"250022","img/neutralC/CFD-BM-248-128-N.jpg","0","s","0.921180700010154",1,4,0,2,0
"250022","img/neutralC/CFD-IM-727-195-N.jpg","1","k","0.883505899982993",1,4,0,2,0
"250022","img/neutralC/CFD-LF-205-100-N.jpg","0","s","1.10544439998921",1,4,0,2,0
"250022","img/neutralC/CFD-AM-201-076-N.jpg","1","k","0.643039099988528",1,4,0,2,0
"250022","img/neutralC/CFD-MF-327-002-N.jpg","0","k","0.817220100027043",1,4,0,2,0
"250022","img/neutralC/CFD-AF-210-050-N.jpg","1","s","0.727319600002375",1,4,0,2,0
"250022","img/neutralC/CFD-IM-648-337-N.jpg","0","s","0.719547099957708",1,4,0,2,0
"250022","img/neutralC/CFD-WM-257-161-N.jpg","1","k","0.909775000007357",1,4,0,2,0
"250022","img/neutralC/CFD-IM-706-002-N.jpg","1","k","0.788140100019518",1,4,0,2,0
"250022","img/neutralC/CFD-WM-040-022-N.jpg","1","s","0.712013299984392",1,4,0,2,0
"250022","img/neutralC/CFD-IM-653-008-N.jpg","1","k","0.77044890000252",1,4,0,2,0
"250022","img/neutralC/CFD-MF-312-002-N.jpg","0","k","0.562790099997073",1,4,0,2,0
"250022","img/neutralC/CFD-AM-249-163-N.jpg","1","s","0.680448000028264",1,4,0,2,0
"250022","img/neutralC/CFD-WF-012-002-N.jpg","1","s","0.812116599990986",1,4,0,2,0
"250022","img/neutralC/CFD-AM-243-212-N.jpg","1","k","0.938221500022337",1,4,0,2,0
"250022","img/neutralC/CFD-BF-206-143-N.jpg","0","s","0.908702699991409",1,4,0,2,0
"250022","img/neutralC/CFD-IF-742-103-N.jpg","0","s","0.925837200018577",1,4,0,2,0
"250022","img/neutralC/CFD-IF-732-260-N.jpg","0","s","0.866778300027363",1,4,0,2,0
"250022","img/neutralC/CFD-BF-224-002-N.jpg","0","k","0.584014300024137",1,4,0,2,0
"250022","img/neutralC/CFD-BM-211-174-N.jpg","1","s","0.721953100000974",1,4,0,2,0
"250022","img/neutralC/CFD-MF-303-013-N.jpg","1","k","0.665692200011108",1,4,0,2,0
"250022","img/neutralC/CFD-AM-205-153-N.jpg","0","s","0.708024599996861",1,4,0,2,0
"250022","img/neutralC/CFD-IM-709-103-N.jpg","0","s","0.744088999985252",1,4,0,2,0
"250022","img/neutralC/CFD-WF-210-086-N.jpg","0","s","0.915230499987956",1,4,0,2,0
"250022","img/neutralC/CFD-AF-213-126-N.jpg","1","k","0.780054799979553",1,5,0,2,0
"250022","img/neutralC/CFD-WM-014-002-N.jpg","1","s","0.715762000007089",1,5,0,2,0
"250022","img/neutralC/CFD-AF-232-078-N.jpg","0","k","0.86965390003752",1,5,0,2,0
"250022","img/neutralC/CFD-LF-241-188-N.jpg","0","s","0.706069600011688",1,5,0,2,0
"250022","img/neutralC/CFD-BF-238-190-N.jpg","1","k","0.709978200029582",1,5,0,2,0
"250022","img/neutralC/CFD-IM-680-369-N.jpg","0","k","0.541658900037874",1,5,0,2,0
"250022","img/neutralC/CFD-AM-212-050-N.jpg","0","k","0.349246800004039",1,5,0,2,0
"250022","img/neutralC/CFD-LM-217-162-N.jpg","0","s","0.486759899999015",1,5,0,2,0
"250022","img/neutralC/CFD-IF-677-452-1-N.jpg","0","k","0.50322720000986",1,5,0,2,0
"250022","img/neutralC/CFD-BF-208-266-N.jpg","1","s","0.377461800002493",1,5,0,2,0
"250022","img/neutralC/CFD-WM-038-003-N.jpg","0","k","0.698354599997401",1,5,0,2,0
"250022","img/neutralC/CFD-WF-008-002-N.jpg","1","s","2.2376276999712",1,5,0,2,0
"250022","img/neutralC/CFD-WM-255-219-N.jpg","1","s","1.11464069999056",1,5,0,2,0
"250022","img/neutralC/CFD-BF-003-003-N.jpg","1","k","0.834596100030467",1,5,0,2,0
"250022","img/neutralC/CFD-LF-255-088-N.jpg","0","s","1.02924689999782",1,5,0,2,0
"250022","img/neutralC/CFD-AF-244-168-N.jpg","1","k","1.0736906999955",1,5,0,2,0
"250022","img/neutralC/CFD-BF-255-140-N.jpg","1","s","0.597885700000916",1,5,0,2,0
"250022","img/neutralC/CFD-WM-254-152-N.jpg","1","s","0.620564599987119",1,5,0,2,0
"250022","img/neutralC/CFD-BF-045-003-N.jpg","0","k","0.65082069998607",1,5,0,2,0
"250022","img/neutralC/CFD-IM-701-312-N.jpg","0","s","0.447384800005239",1,5,0,2,0
"250022","img/neutralC/CFD-BF-018-039-N.jpg","1","k","0.703981900005601",1,5,0,2,0
"250022","img/neutralC/CFD-BF-027-002-N.jpg","0","s","0.550135700032115",1,5,0,2,0
"250022","img/neutralC/CFD-BF-004-014-N.jpg","1","k","0.516106299997773",1,5,0,2,0
"250022","img/neutralC/CFD-WM-258-125-N.jpg","1","k","0.670350899978075",1,5,0,2,0
"250022","img/neutralC/CFD-MM-316-156-N.jpg","1","s","0.457539200026076",1,5,0,2,0
"250022","img/neutralC/CFD-WM-202-107-N.jpg","1","k","0.631637200014666",1,5,0,2,0
"250022","img/neutralC/CFD-WM-209-038-N.jpg","0","s","0.828063799999654",1,5,0,2,0
"250022","img/neutralC/CFD-BM-251-013-N.jpg","0","s","0.919361600012053",1,5,0,2,0
"250022","img/neutralC/CFD-MM-321-021-N.jpg","1","s","0.608718600007705",1,5,0,2,0
"250022","img/neutralC/CFD-WF-026-002-N.jpg","0","k","0.826665300002787",1,5,0,2,0
"250022","img/neutralC/CFD-IF-673-389-N.jpg","0","s","0.989406100008637",1,5,0,2,0
"250022","img/neutralC/CFD-WM-213-076-N.jpg","0","s","0.883460899989586",1,5,0,2,0
"250022","img/neutralC/CFD-AM-251-124-N.jpg","1","s","0.678835799975786",1,5,0,2,0
"250022","img/neutralC/CFD-BM-039-029-N.jpg","0","k","0.920975100016221",1,5,0,2,0
"250022","img/neutralC/CFD-AF-227-207-N.jpg","1","s","0.815439099969808",1,5,0,2,0
"250022","img/neutralC/CFD-LM-204-001-N.jpg","0","k","1.44176570000127",1,5,0,2,0
"250022","img/neutralC/CFD-BF-025-002-N.jpg","0","s","0.92478729999857",1,5,0,2,0
"250022","img/neutralC/CFD-BM-005-003-N.jpg","1","k","0.702124500006903",1,5,0,2,0
"250022","img/neutralC/CFD-AM-225-102-N.jpg","0","s","0.731003599998076",1,5,0,2,0
"250022","img/neutralC/CFD-IM-738-191-N.jpg","0","k","0.990705100004561",1,5,0,2,0
"250022","img/neutralC/CFD-IM-639-263-N.jpg","1","s","0.619457599997986",1,5,0,2,0
"250022","img/neutralC/CFD-AM-242-176-N.jpg","0","s","0.502383999992162",1,5,0,2,0
"250022","img/neutralC/CFD-LM-216-082-N.jpg","1","k","0.781967299990356",1,5,0,2,0
"250022","img/neutralC/CFD-WF-036-023-N.jpg","1","k","1.27381640003296",1,5,0,2,0
"250022","img/neutralC/CFD-BF-038-037-N.jpg","0","k","0.42775619996246",1,5,0,2,0
"250022","img/neutralC/CFD-IM-659-359-N.jpg","0","s","0.807906200003345",1,5,0,2,0
"250022","img/neutralC/CFD-BF-033-028-N.jpg","1","s","1.0123890999821",1,5,0,2,0
"250022","img/neutralC/CFD-LF-206-078-N.jpg","0","k","0.889881999988575",1,5,0,2,0
"250022","img/neutralC/CFD-IM-627-178-N.jpg","0","k","2.08216420002282",1,6,0,2,0
"250022","img/neutralC/CFD-MM-319-052-N.jpg","1","s","0.939837499987334",1,6,0,2,0
"250022","img/neutralC/CFD-WM-242-011-N.jpg","0","s","0.479117100010626",1,6,0,2,0
"250022","img/neutralC/CFD-MM-306-010-N.jpg","0","k","0.62215870001819",1,6,0,2,0
"250022","img/neutralC/CFD-LM-237-264-N.jpg","1","s","0.337919500016142",1,6,0,2,0
"250022","img/neutralC/CFD-BM-003-003-N.jpg","1","s","0.235060499981046",1,6,0,2,0
"250022","img/neutralC/CFD-LM-213-061-N.jpg","0","k","0.273027399962302",1,6,0,2,0
"250022","img/neutralC/CFD-BF-044-034-N.jpg","1","s","0.485932400042657",1,6,0,2,0
"250022","img/neutralC/CFD-WM-228-065-N.jpg","0","k","0.389503900019918",1,6,0,2,0
"250022","img/neutralC/CFD-WM-015-002-N.jpg","0","s","0.571688299998641",1,6,0,2,0
"250022","img/neutralC/CFD-IF-634-382-N.jpg","1","s","0.447430600004736",1,6,0,2,0
"250022","img/neutralC/CFD-MF-321-003-N.jpg","0","s","0.587624099978711",1,6,0,2,0
"250022","img/neutralC/CFD-LF-224-176-N.jpg","1","k","0.89061220001895",1,6,0,2,0
"250022","img/neutralC/CFD-MF-313-002-N.jpg","0","s","0.57724589999998",1,6,0,2,0
"250022","img/neutralC/CFD-IM-664-651-N.jpg","1","k","0.478907999990042",1,6,0,2,0
"250022","img/neutralC/CFD-BM-036-003-N.jpg","0","s","0.602144999953452",1,6,0,2,0
"250022","img/neutralC/CFD-WM-009-002-N.jpg","0","k","0.451989599969238",1,6,0,2,0
"250022","img/neutralC/CFD-WF-208-068-N.jpg","1","k","0.576186200021766",1,6,0,2,0
"250022","img/neutralC/CFD-BF-051-035-N.jpg","0","s","0.408416100020986",1,6,0,2,0
"250022","img/neutralC/CFD-BM-015-015-N.jpg","0","k","0.250571600045078",1,6,0,2,0
"250022","img/neutralC/CFD-IF-718-001-N.jpg","1","s","0.201708999986295",1,6,0,2,0
"250022","img/neutralC/CFD-WM-019-003-N.jpg","1","k","0.408169100002851",1,6,0,2,0
"250022","img/neutralC/CFD-BM-030-003-N.jpg","1","k","0.4942942999769",1,6,0,2,0
"250022","img/neutralC/CFD-WF-200-099-N.jpg","0","k","0.453554099949542",1,6,0,2,0
"250022","img/neutralC/CFD-WM-219-008-N.jpg","1","s","0.423989299975801",1,6,0,2,0
"250022","img/neutralC/CFD-IF-710-016-N.jpg","0","k","0.466485599987209",1,6,0,2,0
"250022","img/neutralC/CFD-WF-240-083-N.jpg","1","k","0.354492199956439",1,6,0,2,0
"250022","img/neutralC/CFD-BM-217-082-N.jpg","0","s","0.682745799946133",1,6,0,2,0
"250022","img/neutralC/CFD-IM-669-111-N.jpg","1","s","0.555401999969035",1,6,0,2,0
"250022","img/neutralC/CFD-AF-250-200-N.jpg","1","k","0.471259700017981",1,6,0,2,0
"250022","img/neutralC/CFD-WF-023-003-N.jpg","1","s","0.376335399982054",1,6,0,2,0
"250022","img/neutralC/CFD-WM-248-036-N.jpg","0","k","0.525073699944187",1,6,0,2,0
"250022","img/neutralC/CFD-IM-667-369-N.jpg","1","s","0.423520200012717",1,6,0,2,0
"250022","img/neutralC/CFD-WM-017-002-N.jpg","1","s","0.817526599974371",1,6,0,2,0
"250022","img/neutralC/CFD-BF-218-207-N.jpg","1","s","0.813278499990702",1,6,0,2,0
"250022","img/neutralC/CFD-IF-672-305-N.jpg","0","s","0.785265400016215",1,6,0,2,0
"250022","img/neutralC/CFD-BM-023-029-N.jpg","0","s","0.712745699973311",1,6,0,2,0
"250022","img/neutralC/CFD-WF-033-002-N.jpg","1","k","1.05412820004858",1,6,0,2,0
"250022","img/neutralC/CFD-IM-689-263-N.jpg","0","s","0.65718249999918",1,6,0,2,0
"250022","img/neutralC/CFD-BM-207-024-N.jpg","0","k","0.816623000020627",1,6,0,2,0
"250022","img/neutralC/CFD-AM-211-052-N.jpg","1","k","0.817406399990432",1,6,0,2,0
"250022","img/neutralC/CFD-AF-239-171-N.jpg","0","s","0.509272600000259",1,6,0,2,0
"250022","img/neutralC/CFD-IM-651-308-N.jpg","1","s","0.679620100010652",1,6,0,2,0
"250022","img/neutralC/CFD-IF-693-172-N.jpg","0","k","0.511682999960613",1,6,0,2,0
"250022","img/neutralC/CFD-LM-241-125-N.jpg","0","s","0.491052100027446",1,6,0,2,0
"250022","img/neutralC/CFD-BM-026-002-N.jpg","0","k","0.512229400046635",1,6,0,2,0
"250022","img/neutralC/CFD-BF-043-003-N.jpg","0","k","0.515821800043341",1,6,0,2,0
"250022","img/neutralC/CFD-IF-665-015-N.jpg","1","k","0.39814069995191",1,6,0,2,0
"250022","img/neutralC/CFD-IM-632-097-N.jpg","0","s","0.858916500001214",1,7,0,2,0
"250022","img/neutralC/CFD-WF-234-086-N.jpg","1","s","0.973787199996878",1,7,0,2,0
"250022","img/neutralC/CFD-IF-744-114-N.jpg","1","s","0.839219600020442",1,7,0,2,0
"250022","img/neutralC/CFD-WM-034-030-N.jpg","0","k","0.754915199999232",1,7,0,2,0
"250022","img/neutralC/CFD-BF-205-141-N.jpg","0","s","0.520458300015889",1,7,0,2,0
"250022","img/neutralC/CFD-WM-004-010-N.jpg","0","k","0.490918600000441",1,7,0,2,0
"250022","img/neutralC/CFD-WF-244-163-N.jpg","1","k","0.682304400019348",1,7,0,2,0
"250022","img/neutralC/CFD-LF-245-166-N.jpg","0","s","0.90492020000238",1,7,0,2,0
"250022","img/neutralC/CFD-MF-300-002-N.jpg","1","s","1.12258650001604",1,7,0,2,0
"250022","img/neutralC/CFD-IM-657-308-N.jpg","0","k","0.58998300001258",1,7,0,2,0
"250022","img/neutralC/CFD-LF-225-164-N.jpg","0","s","0.653135400032625",1,7,0,2,0
"250022","img/neutralC/CFD-WF-001-003-N.jpg","0","k","0.759173500002362",1,7,0,2,0
"250022","img/neutralC/CFD-IM-707-105-N.jpg","1","s","0.684394899988547",1,7,0,2,0
"250022","img/neutralC/CFD-BF-012-001-N.jpg","1","k","1.19382219994441",1,7,0,2,0
"250022","img/neutralC/CFD-WF-233-112-N.jpg","1","s","1.2330127999885",1,7,0,2,0
"250022","img/neutralC/CFD-WM-023-001-N.jpg","1","s","1.23005289997673",1,7,0,2,0
"250022","img/neutralC/CFD-WM-012-001-N.jpg","1","k","0.686092799995095",1,7,0,2,0
"250022","img/neutralC/CFD-WF-030-002-N.jpg","0","s","0.794880600005854",1,7,0,2,0
"250022","img/neutralC/CFD-AM-233-236-N.jpg","0","k","0.71591939998325",1,7,0,2,0
"250022","img/neutralC/CFD-BM-227-191-N.jpg","0","k","0.927611500024796",1,7,0,2,0
"250022","img/neutralC/CFD-MF-307-002-N.jpg","1","s","0.652501500037033",1,7,0,2,0
"250022","img/neutralC/CFD-MM-304-002-N.jpg","0","k","1.38431779999519",1,7,0,2,0
"250022","img/neutralC/CFD-BM-009-002-N.jpg","1","s","0.737540500005707",1,7,0,2,0
"250022","img/neutralC/CFD-MF-305-014-N.jpg","1","k","0.75244210002711",1,7,0,2,0
"250022","img/neutralC/CFD-BM-020-001-N.jpg","0","k","0.985840299981646",1,7,0,2,0
"250022","img/neutralC/CFD-WF-250-167-N.jpg","1","s","0.809055999969132",1,7,0,2,0
"250022","img/neutralC/CFD-BM-239-136-N.jpg","0","k","1.25678490003338",1,7,0,2,0
"250022","img/neutralC/CFD-AF-253-130-N.jpg","0","s","2.52916889998596",1,7,0,2,0
"250022","img/neutralC/CFD-BM-004-002-N.jpg","0","k","1.06760020001093",1,7,0,2,0
"250022","img/neutralC/CFD-WM-033-025-N.jpg","1","k","1.4308540999773",1,7,0,2,0
"250022","img/neutralC/CFD-AF-246-242-N.jpg","1","k","1.21792969998205",1,7,0,2,0
"250022","img/neutralC/CFD-WM-227-099-N.jpg","1","k","1.07030020002276",1,7,0,2,0
"250022","img/neutralC/CFD-WM-020-001-N.jpg","1","s","0.870751200011",1,7,0,2,0
"250022","img/neutralC/CFD-LF-204-133-N.jpg","1","s","1.0835491999751",1,7,0,2,0
"250022","img/neutralC/CFD-IM-674-281-N.jpg","1","k","0.977073399990331",1,7,0,2,0
"250022","img/neutralC/CFD-LM-247-095-N.jpg","0","s","0.82631480001146",1,7,0,2,0
"250022","img/neutralC/CFD-WF-213-031-N.jpg","0","k","0.870175899995957",1,7,0,2,0
"250022","img/neutralC/CFD-BM-213-134-N.jpg","0","k","0.806162499997299",1,7,0,2,0
"250022","img/neutralC/CFD-WM-028-003-N.jpg","1","s","0.485686400032137",1,7,0,2,0
"250022","img/neutralC/CFD-BM-238-242-N.jpg","1","k","0.74113459995715",1,7,0,2,0
"250022","img/neutralC/CFD-IM-617-174-N.jpg","0","k","0.718363899970427",1,7,0,2,0
"250022","img/neutralC/CFD-WM-215-041-N.jpg","1","s","0.732561599987093",1,7,0,2,0
"250022","img/neutralC/CFD-WM-212-097-N.jpg","0","k","0.750407499959692",1,7,0,2,0
"250022","img/neutralC/CFD-BM-253-004-N.jpg","1","k","0.8686523999786",1,7,0,2,0
"250022","img/neutralC/CFD-IM-671-601-N.jpg","0","s","0.918435900006443",1,7,0,2,0
"250022","img/neutralC/CFD-IF-660-464-N.jpg","0","s","1.28769120003562",1,7,0,2,0
"250022","img/neutralC/CFD-IM-700-009-N.jpg","0","k","0.644672100024763",1,7,0,2,0
"250022","img/neutralC/CFD-AM-219-101-N.jpg","1","k","1.03307280002628",1,7,0,2,0
"250022","img/neutralC/CFD-WM-218-074-N.jpg","1","k","1.4329771999619",1,8,0,2,0
"250022","img/neutralC/CFD-BF-244-231-N.jpg","1","k","0.847867299977224",1,8,0,2,0
"250022","img/neutralC/CFD-BF-228-212-N.jpg","1","s","0.602085200021975",1,8,0,2,0
"250022","img/neutralC/CFD-MF-333-012-N.jpg","0","k","0.589378500008024",1,8,0,2,0
"250022","img/neutralC/CFD-BM-043-071-N.jpg","0","s","0.389094899990596",1,8,0,2,0
"250022","img/neutralC/CFD-BF-040-003-N.jpg","0","k","0.369019099976867",1,8,0,2,0
"250022","img/neutralC/CFD-IF-626-375-N.jpg","1","k","1.12725109996973",1,8,0,2,0
"250022","img/neutralC/CFD-WF-022-017-N.jpg","0","k","0.507502599968575",1,8,0,2,0
"250022","img/neutralC/CFD-AM-215-120-N.jpg","1","s","0.542918000021018",1,8,0,2,0
"250022","img/neutralC/CFD-BF-204-189-N.jpg","0","k","0.624743800028227",1,8,0,2,0
"250022","img/neutralC/CFD-LM-240-013-N.jpg","1","k","0.371651100052986",1,8,0,2,0
"250022","img/neutralC/CFD-IF-636-011-N.jpg","1","k","0.363877299998421",1,8,0,2,0
"250022","img/neutralC/CFD-BM-028-002-N.jpg","1","k","0.403246300003957",1,8,0,2,0
"250022","img/neutralC/CFD-WM-235-147-N.jpg","0","k","0.737044899957255",1,8,0,2,0
"250022","img/neutralC/CFD-BF-036-027-N.jpg","0","k","0.498559800034855",1,8,0,2,0
"250022","img/neutralC/CFD-LM-201-057-N.jpg","0","k","0.962611399998423",1,8,0,2,0
"250022","img/neutralC/CFD-LF-216-121-N.jpg","0","k","0.706435200001579",1,8,0,2,0
"250022","img/neutralC/CFD-BF-229-179-N.jpg","1","k","0.419089599978179",1,8,0,2,0
"250022","img/neutralC/CFD-BF-023-010-N.jpg","1","k","0.382875200011767",1,8,0,2,0
"250022","img/neutralC/CFD-WM-011-002-N.jpg","1","k","0.285815899958834",1,8,0,2,0
"250022","img/neutralC/CFD-IF-619-197-N.jpg","0","s","0.1067822999903",0,8,0,2,0
"250022","img/neutralC/CFD-MF-352-054-N.jpg","0","s","0.184062300017104",0,8,0,2,0
"250022","img/neutralC/CFD-BF-011-002-N.jpg","0","s","0.213495299976785",1,8,0,2,0
"250022","img/neutralC/CFD-WF-017-003-N.jpg","0","k","0.199254100036342",0,8,0,2,0
"250022","img/neutralC/CFD-BM-205-001-N.jpg","1","s","0.255065899982583",1,8,0,2,0
"250022","img/neutralC/CFD-BM-231-155-N.jpg","0","k","0.479084599995986",1,8,0,2,0
"250022","img/neutralC/CFD-IF-623-129-N.jpg","1","s","0.434985500003677",1,8,0,2,0
"250022","img/neutralC/CFD-AF-231-357-N.jpg","0","s","0.318337900040206",1,8,0,2,0
"250022","img/neutralC/CFD-IM-726-248-N.jpg","1","k","0.503462900000159",1,8,0,2,0
"250022","img/neutralC/CFD-IM-728-041-N.jpg","0","s","0.316117399954237",1,8,0,2,0
"250022","img/neutralC/CFD-WM-013-001-N.jpg","0","s","0.673033199971542",1,8,0,2,0
"250022","img/neutralC/CFD-AF-234-208-N.jpg","1","s","0.799805199960247",1,8,0,2,0
"250022","img/neutralC/CFD-LF-215-157-N.jpg","1","s","0.618757700023707",1,8,0,2,0
"250022","img/neutralC/CFD-LF-201-035-N.jpg","1","s","0.502748099970631",1,8,0,2,0
"250022","img/neutralC/CFD-MF-359-019-N.jpg","1","s","0.607340799993835",1,8,0,2,0
"250022","img/neutralC/CFD-LM-228-188-N.jpg","0","s","0.625844200025313",1,8,0,2,0
"250022","img/neutralC/CFD-BF-235-168-N.jpg","0","k","0.620303699979559",1,8,0,2,0
"250022","img/neutralC/CFD-WF-212-050-N.jpg","1","s","0.479397899995092",1,8,0,2,0
"250022","img/neutralC/CFD-AM-217-085-N.jpg","1","s","0.579438199987635",1,8,0,2,0
"250022","img/neutralC/CFD-IM-678-482-N.jpg","1","s","0.885986400011461",1,8,0,2,0
"250022","img/neutralC/CFD-WF-217-085-N.jpg","1","s","0.708453399944119",1,8,0,2,0
"250022","img/neutralC/CFD-BM-041-035-N.jpg","0","k","0.649912799999584",1,8,0,2,0
"250022","img/neutralC/CFD-IM-645-001-N.jpg","1","k","0.44844450004166",1,8,0,2,0
"250022","img/neutralC/CFD-MM-317-061-N.jpg","0","s","0.501166300033219",1,8,0,2,0
"250022","img/neutralC/CFD-IM-686-097-N.jpg","1","s","0.377463900018483",1,8,0,2,0
"250022","img/neutralC/CFD-BF-247-179-N.jpg","0","k","0.345728499989491",1,8,0,2,0
"250022","img/neutralC/CFD-WM-201-063-N.jpg","0","k","0.43867639999371",1,8,0,2,0
"250022","img/neutralC/CFD-MM-324-069-N.jpg","1","s","0.338917199987918",1,8,0,2,0
