"participant_id","current_trial_face","pre_trial_face","post_trial_face","current_trial_accuracy","pre_trial_accuracy","post_trial_accuracy","current_trial_congruency","pre_trial_congruency","post_trial_congruency","current_trial_rt","pre_trial_rt","post_trial_rt","current_trial_responded","pre_trial_responded","post_trial_responded","current_trial_legitResponse","pre_trial_legitResponse","post_trial_legitResponse","current_trial_resp_nums","pre_trial_resp_nums","post_trial_resp_nums"
"250015","img/neutralC/CFD-IF-629-234-N.jpg",NA,"img/neutralC/CFD-BM-200-046-N.jpg","1",NA,"1","0",NA,"0","0.609918400004972",NA,"0.525079099985305","1",NA,"1","1",NA,"1","1",NA,"1"
"250015","img/neutralC/CFD-BM-200-046-N.jpg","img/neutralC/CFD-IF-629-234-N.jpg","img/neutralC/CFD-LF-211-003-N.jpg","1","1","1","0","0","0","0.525079099985305","0.609918400004972","0.462163699965458","1","1","1","1","1","1","1","1","1"
"250015","img/neutralC/CFD-LF-211-003-N.jpg","img/neutralC/CFD-BM-200-046-N.jpg","img/neutralC/CFD-MF-342-022-N.jpg","1","1","1","0","0","1","0.462163699965458","0.525079099985305","0.416617900016718","1","1","1","1","1","1","1","1","1"
"250015","img/neutralC/CFD-MF-342-022-N.jpg","img/neutralC/CFD-LF-211-003-N.jpg","img/neutralC/CFD-LM-253-075-N.jpg","1","1","1","1","0","0","0.416617900016718","0.462163699965458","0.527931299991906","1","1","1","1","1","1","1","1","1"
"250015","img/neutralC/CFD-LM-253-075-N.jpg","img/neutralC/CFD-MF-342-022-N.jpg","img/neutralC/CFD-BF-254-201-N.jpg","1","1","1","0","1","0","0.527931299991906","0.416617900016718","0.478026600030717","1","1","1","1","1","1","1","1","1"
"250015","img/neutralC/CFD-BF-254-201-N.jpg","img/neutralC/CFD-LM-253-075-N.jpg","img/neutralC/CFD-IM-719-221-N.jpg","1","1","1","0","0","0","0.478026600030717","0.527931299991906","0.55376439995598","1","1","1","1","1","1","1","1","1"
"250015","img/neutralC/CFD-IM-719-221-N.jpg","img/neutralC/CFD-BF-254-201-N.jpg","img/neutralC/CFD-AM-244-222-N.jpg","1","1","1","0","0","0","0.55376439995598","0.478026600030717","0.490266099979635","1","1","1","1","1","1","1","1","1"
"250015","img/neutralC/CFD-AM-244-222-N.jpg","img/neutralC/CFD-IM-719-221-N.jpg","img/neutralC/CFD-IM-627-178-N.jpg","1","1","1","0","0","1","0.490266099979635","0.55376439995598","0.410737500002142","1","1","1","1","1","1","1","1","1"
"250015","img/neutralC/CFD-IM-627-178-N.jpg","img/neutralC/CFD-AM-244-222-N.jpg","img/neutralC/CFD-WF-023-003-N.jpg","1","1","1","1","0","1","0.410737500002142","0.490266099979635","0.402683200023603","1","1","1","1","1","1","1","1","1"
"250015","img/neutralC/CFD-WF-023-003-N.jpg","img/neutralC/CFD-IM-627-178-N.jpg","img/neutralC/CFD-WM-009-002-N.jpg","1","1","1","1","1","0","0.402683200023603","0.410737500002142","0.443988499988336","1","1","1","1","1","1","1","1","1"
"250015","img/neutralC/CFD-WM-009-002-N.jpg","img/neutralC/CFD-WF-023-003-N.jpg","img/neutralC/CFD-LF-215-157-N.jpg","1","1","1","0","1","0","0.443988499988336","0.402683200023603","0.479294899967499","1","1","1","1","1","1","1","1","1"
"250015","img/neutralC/CFD-LF-215-157-N.jpg","img/neutralC/CFD-WM-009-002-N.jpg","img/neutralC/CFD-WM-013-001-N.jpg","1","1","1","0","0","1","0.479294899967499","0.443988499988336","0.43212010001298","1","1","1","1","1","1","1","1","1"
"250015","img/neutralC/CFD-WM-013-001-N.jpg","img/neutralC/CFD-LF-215-157-N.jpg","img/neutralC/CFD-BF-018-039-N.jpg","1","1","1","1","0","1","0.43212010001298","0.479294899967499","0.457261200004723","1","1","1","1","1","1","1","1","1"
"250015","img/neutralC/CFD-BF-018-039-N.jpg","img/neutralC/CFD-WM-013-001-N.jpg","img/neutralC/CFD-AF-221-147-N.jpg","1","1","1","1","1","0","0.457261200004723","0.43212010001298","0.500051699986216","1","1","1","1","1","1","1","1","1"
"250015","img/neutralC/CFD-AF-221-147-N.jpg","img/neutralC/CFD-BF-018-039-N.jpg","img/neutralC/CFD-BF-218-207-N.jpg","1","1","1","0","1","1","0.500051699986216","0.457261200004723","0.448283300036564","1","1","1","1","1","1","1","1","1"
"250015","img/neutralC/CFD-BF-218-207-N.jpg","img/neutralC/CFD-AF-221-147-N.jpg","img/neutralC/CFD-BM-204-003-N.jpg","1","1","1","1","0","0","0.448283300036564","0.500051699986216","0.460582099971362","1","1","1","1","1","1","1","1","1"
"250015","img/neutralC/CFD-BM-204-003-N.jpg","img/neutralC/CFD-BF-218-207-N.jpg","img/neutralC/CFD-WM-237-052-N.jpg","1","1","1","0","1","1","0.460582099971362","0.448283300036564","0.432201399991754","1","1","1","1","1","1","1","1","1"
"250015","img/neutralC/CFD-WM-237-052-N.jpg","img/neutralC/CFD-BM-204-003-N.jpg","img/neutralC/CFD-MF-318-022-N.jpg","1","1","1","1","0","1","0.432201399991754","0.460582099971362","0.431216900004074","1","1","1","1","1","1","1","1","1"
"250015","img/neutralC/CFD-MF-318-022-N.jpg","img/neutralC/CFD-WM-237-052-N.jpg","img/neutralC/CFD-BM-023-029-N.jpg","1","1","1","1","1","1","0.431216900004074","0.432201399991754","0.399062500044238","1","1","1","1","1","1","1","1","1"
"250015","img/neutralC/CFD-BM-023-029-N.jpg","img/neutralC/CFD-MF-318-022-N.jpg","img/neutralC/CFD-WM-221-091-N.jpg","1","1","1","1","1","0","0.399062500044238","0.431216900004074","0.468074100033846","1","1","1","1","1","1","1","1","1"
"250015","img/neutralC/CFD-WM-221-091-N.jpg","img/neutralC/CFD-BM-023-029-N.jpg","img/neutralC/CFD-MM-321-021-N.jpg","1","1","1","0","1","0","0.468074100033846","0.399062500044238","0.371237899991684","1","1","1","1","1","1","1","1","1"
"250015","img/neutralC/CFD-MM-321-021-N.jpg","img/neutralC/CFD-WM-221-091-N.jpg","img/neutralC/CFD-IM-700-009-N.jpg","1","1","1","0","0","1","0.371237899991684","0.468074100033846","0.425076799991075","1","1","1","1","1","1","1","1","1"
"250015","img/neutralC/CFD-IM-700-009-N.jpg","img/neutralC/CFD-MM-321-021-N.jpg","img/neutralC/CFD-WF-027-003-N.jpg","1","1","1","1","0","1","0.425076799991075","0.371237899991684","0.401151900005061","1","1","1","1","1","1","1","1","1"
"250015","img/neutralC/CFD-WF-027-003-N.jpg","img/neutralC/CFD-IM-700-009-N.jpg","img/neutralC/CFD-WM-201-063-N.jpg","1","1","1","1","1","1","0.401151900005061","0.425076799991075","0.404749399982393","1","1","1","1","1","1","1","1","1"
"250015","img/neutralC/CFD-WM-201-063-N.jpg","img/neutralC/CFD-WF-027-003-N.jpg","img/neutralC/CFD-WF-226-095-N.jpg","1","1","1","1","1","1","0.404749399982393","0.401151900005061","0.426904599997215","1","1","1","1","1","1","1","1","1"
"250015","img/neutralC/CFD-WF-226-095-N.jpg","img/neutralC/CFD-WM-201-063-N.jpg","img/neutralC/CFD-WF-238-023-N.jpg","1","1","1","1","1","0","0.426904599997215","0.404749399982393","0.525835099979304","1","1","1","1","1","1","1","1","1"
"250015","img/neutralC/CFD-WF-238-023-N.jpg","img/neutralC/CFD-WF-226-095-N.jpg","img/neutralC/CFD-WF-245-084-N.jpg","1","1","1","0","1","1","0.525835099979304","0.426904599997215","0.452778900042176","1","1","1","1","1","1","1","1","1"
"250015","img/neutralC/CFD-WF-245-084-N.jpg","img/neutralC/CFD-WF-238-023-N.jpg","img/neutralC/CFD-MF-321-003-N.jpg","1","1","1","1","0","0","0.452778900042176","0.525835099979304","0.520753600052558","1","1","1","1","1","1","1","1","1"
"250015","img/neutralC/CFD-MF-321-003-N.jpg","img/neutralC/CFD-WF-245-084-N.jpg","img/neutralC/CFD-WF-018-017-N.jpg","1","1","1","0","1","1","0.520753600052558","0.452778900042176","0.414442699984647","1","1","1","1","1","1","1","1","1"
"250015","img/neutralC/CFD-WF-018-017-N.jpg","img/neutralC/CFD-MF-321-003-N.jpg","img/neutralC/CFD-WM-255-219-N.jpg","1","1","1","1","0","0","0.414442699984647","0.520753600052558","0.37330259999726","1","1","1","1","1","1","1","1","1"
"250015","img/neutralC/CFD-WM-255-219-N.jpg","img/neutralC/CFD-WF-018-017-N.jpg","img/neutralC/CFD-AF-232-078-N.jpg","1","1","1","0","1","1","0.37330259999726","0.414442699984647","0.420661799958907","1","1","1","1","1","1","1","1","1"
"250015","img/neutralC/CFD-AF-232-078-N.jpg","img/neutralC/CFD-WM-255-219-N.jpg",NA,"1","1",NA,"1","0",NA,"0.420661799958907","0.37330259999726",NA,"1","1",NA,"1","1",NA,"1","1",NA
"250015","img/neutralC/CFD-BM-227-191-N.jpg",NA,"img/neutralC/CFD-IM-615-167-N.jpg","1",NA,"1","1",NA,"0","0.573321100033354",NA,"0.443416299996898","1",NA,"1","1",NA,"1","1",NA,"1"
"250015","img/neutralC/CFD-IM-615-167-N.jpg","img/neutralC/CFD-BM-227-191-N.jpg","img/neutralC/CFD-IM-606-008-N.jpg","1","1","1","0","1","0","0.443416299996898","0.573321100033354","0.521845599985681","1","1","1","1","1","1","1","1","1"
"250015","img/neutralC/CFD-IM-606-008-N.jpg","img/neutralC/CFD-IM-615-167-N.jpg","img/neutralC/CFD-AF-237-223-N.jpg","1","1","1","0","0","0","0.521845599985681","0.443416299996898","0.539308100007474","1","1","1","1","1","1","1","1","1"
"250015","img/neutralC/CFD-AF-237-223-N.jpg","img/neutralC/CFD-IM-606-008-N.jpg","img/neutralC/CFD-LF-238-154-N.jpg","1","1","1","0","0","1","0.539308100007474","0.521845599985681","0.358209900034126","1","1","1","1","1","1","1","1","1"
"250015","img/neutralC/CFD-LF-238-154-N.jpg","img/neutralC/CFD-AF-237-223-N.jpg","img/neutralC/CFD-AM-243-212-N.jpg","1","1","1","1","0","1","0.358209900034126","0.539308100007474","0.424647899984848","1","1","1","1","1","1","1","1","1"
"250015","img/neutralC/CFD-AM-243-212-N.jpg","img/neutralC/CFD-LF-238-154-N.jpg","img/neutralC/CFD-BM-021-021-N.jpg","1","1","1","1","1","1","0.424647899984848","0.358209900034126","0.47180619998835","1","1","1","1","1","1","1","1","1"
"250015","img/neutralC/CFD-BM-021-021-N.jpg","img/neutralC/CFD-AM-243-212-N.jpg","img/neutralC/CFD-LF-212-066-N.jpg","1","1","1","1","1","1","0.47180619998835","0.424647899984848","0.417517900001258","1","1","1","1","1","1","1","1","1"
"250015","img/neutralC/CFD-LF-212-066-N.jpg","img/neutralC/CFD-BM-021-021-N.jpg","img/neutralC/CFD-IM-697-015-N.jpg","1","1","1","1","1","1","0.417517900001258","0.47180619998835","0.421052500023507","1","1","1","1","1","1","1","1","1"
"250015","img/neutralC/CFD-IM-697-015-N.jpg","img/neutralC/CFD-LF-212-066-N.jpg","img/neutralC/CFD-WM-028-003-N.jpg","1","1","1","1","1","1","0.421052500023507","0.417517900001258","0.434094600030221","1","1","1","1","1","1","1","1","1"
"250015","img/neutralC/CFD-WM-028-003-N.jpg","img/neutralC/CFD-IM-697-015-N.jpg","img/neutralC/CFD-LM-240-013-N.jpg","1","1","1","1","1","1","0.434094600030221","0.421052500023507","0.402817299996968","1","1","1","1","1","1","1","1","1"
"250015","img/neutralC/CFD-LM-240-013-N.jpg","img/neutralC/CFD-WM-028-003-N.jpg","img/neutralC/CFD-WF-207-014-N.jpg","1","1","1","1","1","1","0.402817299996968","0.434094600030221","0.443744599993806","1","1","1","1","1","1","1","1","1"
"250015","img/neutralC/CFD-WF-207-014-N.jpg","img/neutralC/CFD-LM-240-013-N.jpg","img/neutralC/CFD-WF-221-005-N.jpg","1","1","1","1","1","0","0.443744599993806","0.402817299996968","0.501946199976373","1","1","1","1","1","1","1","1","1"
"250015","img/neutralC/CFD-WF-221-005-N.jpg","img/neutralC/CFD-WF-207-014-N.jpg","img/neutralC/CFD-BM-030-003-N.jpg","1","1","1","0","1","0","0.501946199976373","0.443744599993806","0.449739800009411","1","1","1","1","1","1","1","1","1"
"250015","img/neutralC/CFD-BM-030-003-N.jpg","img/neutralC/CFD-WF-221-005-N.jpg","img/neutralC/CFD-WF-241-210-N.jpg","1","1","1","0","0","0","0.449739800009411","0.501946199976373","0.440290800004732","1","1","1","1","1","1","1","1","1"
"250015","img/neutralC/CFD-WF-241-210-N.jpg","img/neutralC/CFD-BM-030-003-N.jpg","img/neutralC/CFD-MM-306-010-N.jpg","1","1","1","0","0","0","0.440290800004732","0.449739800009411","0.445156099973246","1","1","1","1","1","1","1","1","1"
"250015","img/neutralC/CFD-MM-306-010-N.jpg","img/neutralC/CFD-WF-241-210-N.jpg","img/neutralC/CFD-BF-244-231-N.jpg","1","1","1","0","0","1","0.445156099973246","0.440290800004732","0.410016499983613","1","1","1","1","1","1","1","1","1"
"250015","img/neutralC/CFD-BF-244-231-N.jpg","img/neutralC/CFD-MM-306-010-N.jpg","img/neutralC/CFD-BM-020-001-N.jpg","1","1","1","1","0","0","0.410016499983613","0.445156099973246","0.453661700012162","1","1","1","1","1","1","1","1","1"
"250015","img/neutralC/CFD-BM-020-001-N.jpg","img/neutralC/CFD-BF-244-231-N.jpg","img/neutralC/CFD-AM-219-101-N.jpg","1","1","1","0","1","0","0.453661700012162","0.410016499983613","0.532396400056314","1","1","1","1","1","1","1","1","1"
"250015","img/neutralC/CFD-AM-219-101-N.jpg","img/neutralC/CFD-BM-020-001-N.jpg","img/neutralC/CFD-AM-249-163-N.jpg","1","1","1","0","0","1","0.532396400056314","0.453661700012162","0.384299000026658","1","1","1","1","1","1","1","1","1"
"250015","img/neutralC/CFD-AM-249-163-N.jpg","img/neutralC/CFD-AM-219-101-N.jpg","img/neutralC/CFD-AM-205-153-N.jpg","1","1","1","1","0","1","0.384299000026658","0.532396400056314","0.401335800008383","1","1","1","1","1","1","1","1","1"
"250015","img/neutralC/CFD-AM-205-153-N.jpg","img/neutralC/CFD-AM-249-163-N.jpg","img/neutralC/CFD-WM-023-001-N.jpg","1","1","1","1","1","0","0.401335800008383","0.384299000026658","0.398977799981367","1","1","1","1","1","1","1","1","1"
"250015","img/neutralC/CFD-WM-023-001-N.jpg","img/neutralC/CFD-AM-205-153-N.jpg","img/neutralC/CFD-BM-043-071-N.jpg","1","1","1","0","1","0","0.398977799981367","0.401335800008383","0.986743699992076","1","1","1","1","1","1","1","1","1"
"250015","img/neutralC/CFD-BM-043-071-N.jpg","img/neutralC/CFD-WM-023-001-N.jpg","img/neutralC/CFD-LF-222-147-N.jpg","1","1","1","0","0","0","0.986743699992076","0.398977799981367","0.563626199960709","1","1","1","1","1","1","1","1","1"
"250015","img/neutralC/CFD-LF-222-147-N.jpg","img/neutralC/CFD-BM-043-071-N.jpg","img/neutralC/CFD-IM-689-263-N.jpg","1","1","1","0","0","1","0.563626199960709","0.986743699992076","0.398537300003227","1","1","1","1","1","1","1","1","1"
"250015","img/neutralC/CFD-IM-689-263-N.jpg","img/neutralC/CFD-LF-222-147-N.jpg","img/neutralC/CFD-WM-025-002-N.jpg","1","1","1","1","0","0","0.398537300003227","0.563626199960709","0.442778300028294","1","1","1","1","1","1","1","1","1"
"250015","img/neutralC/CFD-WM-025-002-N.jpg","img/neutralC/CFD-IM-689-263-N.jpg","img/neutralC/CFD-MF-328-020-N.jpg","1","1","1","0","1","0","0.442778300028294","0.398537300003227","0.433320200012531","1","1","1","1","1","1","1","1","1"
"250015","img/neutralC/CFD-MF-328-020-N.jpg","img/neutralC/CFD-WM-025-002-N.jpg","img/neutralC/CFD-WF-243-148-N.jpg","1","1","1","0","0","0","0.433320200012531","0.442778300028294","0.385354500031099","1","1","1","1","1","1","1","1","1"
"250015","img/neutralC/CFD-WF-243-148-N.jpg","img/neutralC/CFD-MF-328-020-N.jpg","img/neutralC/CFD-IF-676-017-N.jpg","1","1","1","0","0","1","0.385354500031099","0.433320200012531","0.407638099975884","1","1","1","1","1","1","1","1","1"
"250015","img/neutralC/CFD-IF-676-017-N.jpg","img/neutralC/CFD-WF-243-148-N.jpg","img/neutralC/CFD-BM-009-002-N.jpg","1","1","1","1","0","1","0.407638099975884","0.385354500031099","0.411741899966728","1","1","1","1","1","1","1","1","1"
"250015","img/neutralC/CFD-BM-009-002-N.jpg","img/neutralC/CFD-IF-676-017-N.jpg","img/neutralC/CFD-BF-012-001-N.jpg","1","1","1","1","1","0","0.411741899966728","0.407638099975884","0.405161699978635","1","1","1","1","1","1","1","1","1"
"250015","img/neutralC/CFD-BF-012-001-N.jpg","img/neutralC/CFD-BM-009-002-N.jpg","img/neutralC/CFD-WF-009-001-N.jpg","1","1","1","0","1","1","0.405161699978635","0.411741899966728","0.42186080000829","1","1","1","1","1","1","1","1","1"
"250015","img/neutralC/CFD-WF-009-001-N.jpg","img/neutralC/CFD-BF-012-001-N.jpg",NA,"1","1",NA,"1","0",NA,"0.42186080000829","0.405161699978635",NA,"1","1",NA,"1","1",NA,"1","1",NA
"250015","img/neutralC/CFD-LF-214-090-N.jpg",NA,"img/neutralC/CFD-WM-041-021-N.jpg","1",NA,"1","0",NA,"0","0.479004100023303",NA,"0.580399299971759","1",NA,"1","1",NA,"1","1",NA,"1"
"250015","img/neutralC/CFD-WM-041-021-N.jpg","img/neutralC/CFD-LF-214-090-N.jpg","img/neutralC/CFD-MM-316-156-N.jpg","1","1","1","0","0","1","0.580399299971759","0.479004100023303","0.418322800018359","1","1","1","1","1","1","1","1","1"
"250015","img/neutralC/CFD-MM-316-156-N.jpg","img/neutralC/CFD-WM-041-021-N.jpg","img/neutralC/CFD-BF-039-031-N.jpg","1","1","1","1","0","1","0.418322800018359","0.580399299971759","0.399524700012989","1","1","1","1","1","1","1","1","1"
"250015","img/neutralC/CFD-BF-039-031-N.jpg","img/neutralC/CFD-MM-316-156-N.jpg","img/neutralC/CFD-IF-710-016-N.jpg","1","1","1","1","1","0","0.399524700012989","0.418322800018359","0.430201700015459","1","1","1","1","1","1","1","1","1"
"250015","img/neutralC/CFD-IF-710-016-N.jpg","img/neutralC/CFD-BF-039-031-N.jpg","img/neutralC/CFD-LF-205-100-N.jpg","1","1","1","0","1","1","0.430201700015459","0.399524700012989","0.351473799964879","1","1","1","1","1","1","1","1","1"
"250015","img/neutralC/CFD-LF-205-100-N.jpg","img/neutralC/CFD-IF-710-016-N.jpg","img/neutralC/CFD-BF-253-202-N.jpg","1","1","1","1","0","0","0.351473799964879","0.430201700015459","0.555768100020941","1","1","1","1","1","1","1","1","1"
"250015","img/neutralC/CFD-BF-253-202-N.jpg","img/neutralC/CFD-LF-205-100-N.jpg","img/neutralC/CFD-BF-029-031-N.jpg","1","1","1","0","1","1","0.555768100020941","0.351473799964879","0.398626699985471","1","1","1","1","1","1","1","1","1"
"250015","img/neutralC/CFD-BF-029-031-N.jpg","img/neutralC/CFD-BF-253-202-N.jpg","img/neutralC/CFD-AM-212-050-N.jpg","1","1","1","1","0","1","0.398626699985471","0.555768100020941","0.420670800027438","1","1","1","1","1","1","1","1","1"
"250015","img/neutralC/CFD-AM-212-050-N.jpg","img/neutralC/CFD-BF-029-031-N.jpg","img/neutralC/CFD-MF-337-026-N.jpg","1","1","1","1","1","1","0.420670800027438","0.398626699985471","0.327941999945324","1","1","1","1","1","1","1","1","1"
"250015","img/neutralC/CFD-MF-337-026-N.jpg","img/neutralC/CFD-AM-212-050-N.jpg","img/neutralC/CFD-AM-201-076-N.jpg","1","1","1","1","1","1","0.327941999945324","0.420670800027438","0.342269899963867","1","1","1","1","1","1","1","1","1"
"250015","img/neutralC/CFD-AM-201-076-N.jpg","img/neutralC/CFD-MF-337-026-N.jpg","img/neutralC/CFD-BF-213-188-N.jpg","1","1","1","1","1","1","0.342269899963867","0.327941999945324","0.537414800026454","1","1","1","1","1","1","1","1","1"
"250015","img/neutralC/CFD-BF-213-188-N.jpg","img/neutralC/CFD-AM-201-076-N.jpg","img/neutralC/CFD-BM-033-003-N.jpg","1","1","0","1","1","0","0.537414800026454","0.342269899963867","0.385610199999064","1","1","1","1","1","1","1","1","1"
"250015","img/neutralC/CFD-BM-033-003-N.jpg","img/neutralC/CFD-BF-213-188-N.jpg","img/neutralC/CFD-IF-634-382-N.jpg","0","1","1","0","1","1","0.385610199999064","0.537414800026454","0.489527900004759","1","1","1","1","1","1","1","1","1"
"250015","img/neutralC/CFD-IF-634-382-N.jpg","img/neutralC/CFD-BM-033-003-N.jpg","img/neutralC/CFD-BF-205-141-N.jpg","1","0","1","1","0","0","0.489527900004759","0.385610199999064","0.513230699987616","1","1","1","1","1","1","1","1","1"
"250015","img/neutralC/CFD-BF-205-141-N.jpg","img/neutralC/CFD-IF-634-382-N.jpg","img/neutralC/CFD-IM-684-008-N.jpg","1","1","1","0","1","1","0.513230699987616","0.489527900004759","0.480945100018289","1","1","1","1","1","1","1","1","1"
"250015","img/neutralC/CFD-IM-684-008-N.jpg","img/neutralC/CFD-BF-205-141-N.jpg","img/neutralC/CFD-BM-239-136-N.jpg","1","1","1","1","0","1","0.480945100018289","0.513230699987616","0.458275499986485","1","1","1","1","1","1","1","1","1"
"250015","img/neutralC/CFD-BM-239-136-N.jpg","img/neutralC/CFD-IM-684-008-N.jpg","img/neutralC/CFD-IF-693-172-N.jpg","1","1","1","1","1","0","0.458275499986485","0.480945100018289","0.538005999987945","1","1","1","1","1","1","1","1","1"
"250015","img/neutralC/CFD-IF-693-172-N.jpg","img/neutralC/CFD-BM-239-136-N.jpg","img/neutralC/CFD-BM-019-002-N.jpg","1","1","1","0","1","0","0.538005999987945","0.458275499986485","0.525890699995216","1","1","1","1","1","1","1","1","1"
"250015","img/neutralC/CFD-BM-019-002-N.jpg","img/neutralC/CFD-IF-693-172-N.jpg","img/neutralC/CFD-BM-041-035-N.jpg","1","1","1","0","0","0","0.525890699995216","0.538005999987945","0.514723300002515","1","1","1","1","1","1","1","1","1"
"250015","img/neutralC/CFD-BM-041-035-N.jpg","img/neutralC/CFD-BM-019-002-N.jpg","img/neutralC/CFD-WF-224-099-N.jpg","1","1","1","0","0","0","0.514723300002515","0.525890699995216","0.432031699980143","1","1","1","1","1","1","1","1","1"
"250015","img/neutralC/CFD-WF-224-099-N.jpg","img/neutralC/CFD-BM-041-035-N.jpg","img/neutralC/CFD-IM-651-308-N.jpg","1","1","1","0","0","0","0.432031699980143","0.514723300002515","0.507931499974802","1","1","1","1","1","1","1","1","1"
"250015","img/neutralC/CFD-IM-651-308-N.jpg","img/neutralC/CFD-WF-224-099-N.jpg","img/neutralC/CFD-LM-218-183-N.jpg","1","1","1","0","0","1","0.507931499974802","0.432031699980143","0.484998799976893","1","1","1","1","1","1","1","1","1"
"250015","img/neutralC/CFD-LM-218-183-N.jpg","img/neutralC/CFD-IM-651-308-N.jpg","img/neutralC/CFD-AF-231-357-N.jpg","1","1","1","1","0","1","0.484998799976893","0.507931499974802","0.467230300011579","1","1","1","1","1","1","1","1","1"
"250015","img/neutralC/CFD-AF-231-357-N.jpg","img/neutralC/CFD-LM-218-183-N.jpg","img/neutralC/CFD-LF-203-066-N.jpg","1","1","1","1","1","0","0.467230300011579","0.484998799976893","0.52632420003647","1","1","1","1","1","1","1","1","1"
"250015","img/neutralC/CFD-LF-203-066-N.jpg","img/neutralC/CFD-AF-231-357-N.jpg","img/neutralC/CFD-LF-224-176-N.jpg","1","1","1","0","1","0","0.52632420003647","0.467230300011579","0.487065699999221","1","1","1","1","1","1","1","1","1"
"250015","img/neutralC/CFD-LF-224-176-N.jpg","img/neutralC/CFD-LF-203-066-N.jpg","img/neutralC/CFD-WM-011-002-N.jpg","1","1","1","0","0","0","0.487065699999221","0.52632420003647","0.462174499989487","1","1","1","1","1","1","1","1","1"
"250015","img/neutralC/CFD-WM-011-002-N.jpg","img/neutralC/CFD-LF-224-176-N.jpg","img/neutralC/CFD-LF-230-203-N.jpg","1","1","1","0","0","0","0.462174499989487","0.487065699999221","0.408299300004728","1","1","1","1","1","1","1","1","1"
"250015","img/neutralC/CFD-LF-230-203-N.jpg","img/neutralC/CFD-WM-011-002-N.jpg","img/neutralC/CFD-WF-213-031-N.jpg","1","1","1","0","0","1","0.408299300004728","0.462174499989487","0.448695400031283","1","1","1","1","1","1","1","1","1"
"250015","img/neutralC/CFD-WF-213-031-N.jpg","img/neutralC/CFD-LF-230-203-N.jpg","img/neutralC/CFD-LM-215-247-N.jpg","1","1","1","1","0","0","0.448695400031283","0.408299300004728","0.424097399984021","1","1","1","1","1","1","1","1","1"
"250015","img/neutralC/CFD-LM-215-247-N.jpg","img/neutralC/CFD-WF-213-031-N.jpg","img/neutralC/CFD-WM-021-001-N.jpg","1","1","1","0","1","1","0.424097399984021","0.448695400031283","0.380382100003771","1","1","1","1","1","1","1","1","1"
"250015","img/neutralC/CFD-WM-021-001-N.jpg","img/neutralC/CFD-LM-215-247-N.jpg","img/neutralC/CFD-WF-250-167-N.jpg","1","1","1","1","0","1","0.380382100003771","0.424097399984021","0.45161679998273","1","1","1","1","1","1","1","1","1"
"250015","img/neutralC/CFD-WF-250-167-N.jpg","img/neutralC/CFD-WM-021-001-N.jpg",NA,"1","1",NA,"1","1",NA,"0.45161679998273","0.380382100003771",NA,"1","1",NA,"1","1",NA,"1","1",NA
"250015","img/neutralC/CFD-LM-216-082-N.jpg",NA,"img/neutralC/CFD-WM-215-041-N.jpg","1",NA,"1","0",NA,"0","0.566585499967914",NA,"0.537488200003281","1",NA,"1","1",NA,"1","1",NA,"1"
"250015","img/neutralC/CFD-WM-215-041-N.jpg","img/neutralC/CFD-LM-216-082-N.jpg","img/neutralC/CFD-BF-212-315-N.jpg","1","1","1","0","0","1","0.537488200003281","0.566585499967914","0.416369899990968","1","1","1","1","1","1","1","1","1"
"250015","img/neutralC/CFD-BF-212-315-N.jpg","img/neutralC/CFD-WM-215-041-N.jpg","img/neutralC/CFD-BM-251-013-N.jpg","1","1","1","1","0","1","0.416369899990968","0.537488200003281","0.36881870002253","1","1","1","1","1","1","1","1","1"
"250015","img/neutralC/CFD-BM-251-013-N.jpg","img/neutralC/CFD-BF-212-315-N.jpg","img/neutralC/CFD-WM-012-001-N.jpg","1","1","1","1","1","1","0.36881870002253","0.416369899990968","0.352904499974102","1","1","1","1","1","1","1","1","1"
"250015","img/neutralC/CFD-WM-012-001-N.jpg","img/neutralC/CFD-BM-251-013-N.jpg","img/neutralC/CFD-LM-244-068-N.jpg","1","1","1","1","1","1","0.352904499974102","0.36881870002253","0.514069899974857","1","1","1","1","1","1","1","1","1"
"250015","img/neutralC/CFD-LM-244-068-N.jpg","img/neutralC/CFD-WM-012-001-N.jpg","img/neutralC/CFD-MF-335-002-N.jpg","1","1","1","1","1","0","0.514069899974857","0.352904499974102","0.578339700005017","1","1","1","1","1","1","1","1","1"
"250015","img/neutralC/CFD-MF-335-002-N.jpg","img/neutralC/CFD-LM-244-068-N.jpg","img/neutralC/CFD-MM-317-061-N.jpg","1","1","1","0","1","1","0.578339700005017","0.514069899974857","0.478715999983251","1","1","1","1","1","1","1","1","1"
"250015","img/neutralC/CFD-MM-317-061-N.jpg","img/neutralC/CFD-MF-335-002-N.jpg","img/neutralC/CFD-WF-228-196-N.jpg","1","1","1","1","0","0","0.478715999983251","0.578339700005017","0.452304199978244","1","1","1","1","1","1","1","1","1"
"250015","img/neutralC/CFD-WF-228-196-N.jpg","img/neutralC/CFD-MM-317-061-N.jpg","img/neutralC/CFD-BF-025-002-N.jpg","1","1","1","0","1","0","0.452304199978244","0.478715999983251","0.465705099981278","1","1","1","1","1","1","1","1","1"
"250015","img/neutralC/CFD-BF-025-002-N.jpg","img/neutralC/CFD-WF-228-196-N.jpg","img/neutralC/CFD-AM-247-165-N.jpg","1","1","1","0","0","1","0.465705099981278","0.452304199978244","0.475187100004405","1","1","1","1","1","1","1","1","1"
"250015","img/neutralC/CFD-AM-247-165-N.jpg","img/neutralC/CFD-BF-025-002-N.jpg","img/neutralC/CFD-WF-005-010-N.jpg","1","1","1","1","0","0","0.475187100004405","0.465705099981278","0.454764300026","1","1","1","1","1","1","1","1","1"
"250015","img/neutralC/CFD-WF-005-010-N.jpg","img/neutralC/CFD-AM-247-165-N.jpg","img/neutralC/CFD-WM-249-239-N.jpg","1","1","1","0","1","1","0.454764300026","0.475187100004405","0.429748199996538","1","1","1","1","1","1","1","1","1"
"250015","img/neutralC/CFD-WM-249-239-N.jpg","img/neutralC/CFD-WF-005-010-N.jpg","img/neutralC/CFD-BF-228-212-N.jpg","1","1","1","1","0","0","0.429748199996538","0.454764300026","0.471091500017792","1","1","1","1","1","1","1","1","1"
"250015","img/neutralC/CFD-BF-228-212-N.jpg","img/neutralC/CFD-WM-249-239-N.jpg","img/neutralC/CFD-WM-212-097-N.jpg","1","1","1","0","1","0","0.471091500017792","0.429748199996538","0.511427599994931","1","1","1","1","1","1","1","1","1"
"250015","img/neutralC/CFD-WM-212-097-N.jpg","img/neutralC/CFD-BF-228-212-N.jpg","img/neutralC/CFD-AF-240-206-N.jpg","1","1","1","0","0","0","0.511427599994931","0.471091500017792","0.471851299982518","1","1","1","1","1","1","1","1","1"
"250015","img/neutralC/CFD-AF-240-206-N.jpg","img/neutralC/CFD-WM-212-097-N.jpg","img/neutralC/CFD-BF-041-001-N.jpg","1","1","1","0","0","1","0.471851299982518","0.511427599994931","0.670326399966143","1","1","1","1","1","1","1","1","1"
"250015","img/neutralC/CFD-BF-041-001-N.jpg","img/neutralC/CFD-AF-240-206-N.jpg","img/neutralC/CFD-BM-248-128-N.jpg","1","1","1","1","0","0","0.670326399966143","0.471851299982518","0.541311200009659","1","1","1","1","1","1","1","1","1"
"250015","img/neutralC/CFD-BM-248-128-N.jpg","img/neutralC/CFD-BF-041-001-N.jpg","img/neutralC/CFD-MF-309-002-N.jpg","1","1","1","0","1","0","0.541311200009659","0.670326399966143","0.466082700004335","1","1","1","1","1","1","1","1","1"
"250015","img/neutralC/CFD-MF-309-002-N.jpg","img/neutralC/CFD-BM-248-128-N.jpg","img/neutralC/CFD-IF-642-295-N.jpg","1","1","1","0","0","1","0.466082700004335","0.541311200009659","0.522060299990699","1","1","1","1","1","1","1","1","1"
"250015","img/neutralC/CFD-IF-642-295-N.jpg","img/neutralC/CFD-MF-309-002-N.jpg","img/neutralC/CFD-BM-205-001-N.jpg","1","1","1","1","0","0","0.522060299990699","0.466082700004335","0.591208600031678","1","1","1","1","1","1","1","1","1"
"250015","img/neutralC/CFD-BM-205-001-N.jpg","img/neutralC/CFD-IF-642-295-N.jpg","img/neutralC/CFD-LM-214-165-N.jpg","1","1","1","0","1","1","0.591208600031678","0.522060299990699","0.459686000016518","1","1","1","1","1","1","1","1","1"
"250015","img/neutralC/CFD-LM-214-165-N.jpg","img/neutralC/CFD-BM-205-001-N.jpg","img/neutralC/CFD-LM-201-057-N.jpg","1","1","1","1","0","1","0.459686000016518","0.591208600031678","0.383626000024378","1","1","1","1","1","1","1","1","1"
"250015","img/neutralC/CFD-LM-201-057-N.jpg","img/neutralC/CFD-LM-214-165-N.jpg","img/neutralC/CFD-LM-243-075-N.jpg","1","1","1","1","1","0","0.383626000024378","0.459686000016518","0.468810000049416","1","1","1","1","1","1","1","1","1"
"250015","img/neutralC/CFD-LM-243-075-N.jpg","img/neutralC/CFD-LM-201-057-N.jpg","img/neutralC/CFD-WM-019-003-N.jpg","1","1","1","0","1","1","0.468810000049416","0.383626000024378","0.462201400019694","1","1","1","1","1","1","1","1","1"
"250015","img/neutralC/CFD-WM-019-003-N.jpg","img/neutralC/CFD-LM-243-075-N.jpg","img/neutralC/CFD-BF-202-109-N.jpg","1","1","1","1","0","1","0.462201400019694","0.468810000049416","0.40959480003221","1","1","1","1","1","1","1","1","1"
"250015","img/neutralC/CFD-BF-202-109-N.jpg","img/neutralC/CFD-WM-019-003-N.jpg","img/neutralC/CFD-IM-648-337-N.jpg","1","1","1","1","1","0","0.40959480003221","0.462201400019694","0.455679300008342","1","1","1","1","1","1","1","1","1"
"250015","img/neutralC/CFD-IM-648-337-N.jpg","img/neutralC/CFD-BF-202-109-N.jpg","img/neutralC/CFD-WF-240-083-N.jpg","1","1","1","0","1","0","0.455679300008342","0.40959480003221","0.431567799998447","1","1","1","1","1","1","1","1","1"
"250015","img/neutralC/CFD-WF-240-083-N.jpg","img/neutralC/CFD-IM-648-337-N.jpg","img/neutralC/CFD-WM-026-001-N.jpg","1","1","1","0","0","1","0.431567799998447","0.455679300008342","0.459554600005504","1","1","1","1","1","1","1","1","1"
"250015","img/neutralC/CFD-WM-026-001-N.jpg","img/neutralC/CFD-WF-240-083-N.jpg","img/neutralC/CFD-IM-646-023-N.jpg","1","1","1","1","0","1","0.459554600005504","0.431567799998447","0.439924600010272","1","1","1","1","1","1","1","1","1"
"250015","img/neutralC/CFD-IM-646-023-N.jpg","img/neutralC/CFD-WM-026-001-N.jpg","img/neutralC/CFD-WF-017-003-N.jpg","1","1","1","1","1","1","0.439924600010272","0.459554600005504","0.418529399961699","1","1","1","1","1","1","1","1","1"
"250015","img/neutralC/CFD-WF-017-003-N.jpg","img/neutralC/CFD-IM-646-023-N.jpg","img/neutralC/CFD-WM-006-002-N.jpg","1","1","1","1","1","0","0.418529399961699","0.439924600010272","0.732526000007056","1","1","1","1","1","1","1","1","1"
"250015","img/neutralC/CFD-WM-006-002-N.jpg","img/neutralC/CFD-WF-017-003-N.jpg",NA,"1","1",NA,"0","1",NA,"0.732526000007056","0.418529399961699",NA,"1","1",NA,"1","1",NA,"1","1",NA
"250015","img/neutralC/CFD-IM-680-369-N.jpg",NA,"img/neutralC/CFD-IF-626-375-N.jpg","1",NA,"1","1",NA,"0","0.559147300024051",NA,"0.490553900017403","1",NA,"1","1",NA,"1","1",NA,"1"
"250015","img/neutralC/CFD-IF-626-375-N.jpg","img/neutralC/CFD-IM-680-369-N.jpg","img/neutralC/CFD-LF-206-078-N.jpg","1","1","1","0","1","1","0.490553900017403","0.559147300024051","0.409353399998508","1","1","1","1","1","1","1","1","1"
"250015","img/neutralC/CFD-LF-206-078-N.jpg","img/neutralC/CFD-IF-626-375-N.jpg","img/neutralC/CFD-BM-250-170-N.jpg","1","1","1","1","0","1","0.409353399998508","0.490553900017403","0.328782600001432","1","1","1","1","1","1","1","1","1"
"250015","img/neutralC/CFD-BM-250-170-N.jpg","img/neutralC/CFD-LF-206-078-N.jpg","img/neutralC/CFD-LM-200-045-N.jpg","1","1","1","1","1","1","0.328782600001432","0.409353399998508","0.505488299997523","1","1","1","1","1","1","1","1","1"
"250015","img/neutralC/CFD-LM-200-045-N.jpg","img/neutralC/CFD-BM-250-170-N.jpg","img/neutralC/CFD-IM-706-002-N.jpg","1","1","1","1","1","0","0.505488299997523","0.328782600001432","0.477118299982976","1","1","1","1","1","1","1","1","1"
"250015","img/neutralC/CFD-IM-706-002-N.jpg","img/neutralC/CFD-LM-200-045-N.jpg","img/neutralC/CFD-WM-218-074-N.jpg","1","1","1","0","1","1","0.477118299982976","0.505488299997523","0.410876400012057","1","1","1","1","1","1","1","1","1"
"250015","img/neutralC/CFD-WM-218-074-N.jpg","img/neutralC/CFD-IM-706-002-N.jpg","img/neutralC/CFD-MM-324-069-N.jpg","1","1","1","1","0","1","0.410876400012057","0.477118299982976","0.42017830000259","1","1","1","1","1","1","1","1","1"
"250015","img/neutralC/CFD-MM-324-069-N.jpg","img/neutralC/CFD-WM-218-074-N.jpg","img/neutralC/CFD-AM-220-134-N.jpg","1","1","1","1","1","0","0.42017830000259","0.410876400012057","0.514794499962591","1","1","1","1","1","1","1","1","1"
"250015","img/neutralC/CFD-AM-220-134-N.jpg","img/neutralC/CFD-MM-324-069-N.jpg","img/neutralC/CFD-IM-664-651-N.jpg","1","1","1","0","1","1","0.514794499962591","0.42017830000259","0.456471099983901","1","1","1","1","1","1","1","1","1"
"250015","img/neutralC/CFD-IM-664-651-N.jpg","img/neutralC/CFD-AM-220-134-N.jpg","img/neutralC/CFD-MF-305-014-N.jpg","1","1","1","1","0","1","0.456471099983901","0.514794499962591","0.483741599950008","1","1","1","1","1","1","1","1","1"
"250015","img/neutralC/CFD-MF-305-014-N.jpg","img/neutralC/CFD-IM-664-651-N.jpg","img/neutralC/CFD-WM-015-002-N.jpg","1","1","1","1","1","0","0.483741599950008","0.456471099983901","0.491400600003544","1","1","1","1","1","1","1","1","1"
"250015","img/neutralC/CFD-WM-015-002-N.jpg","img/neutralC/CFD-MF-305-014-N.jpg","img/neutralC/CFD-MF-303-013-N.jpg","1","1","1","0","1","0","0.491400600003544","0.483741599950008","0.453787399979774","1","1","1","1","1","1","1","1","1"
"250015","img/neutralC/CFD-MF-303-013-N.jpg","img/neutralC/CFD-WM-015-002-N.jpg","img/neutralC/CFD-BF-237-172-N.jpg","1","1","1","0","0","1","0.453787399979774","0.491400600003544","0.398261399997864","1","1","1","1","1","1","1","1","1"
"250015","img/neutralC/CFD-BF-237-172-N.jpg","img/neutralC/CFD-MF-303-013-N.jpg","img/neutralC/CFD-WM-209-038-N.jpg","1","1","1","1","0","0","0.398261399997864","0.453787399979774","0.40388359996723","1","1","1","1","1","1","1","1","1"
"250015","img/neutralC/CFD-WM-209-038-N.jpg","img/neutralC/CFD-BF-237-172-N.jpg","img/neutralC/CFD-WF-030-002-N.jpg","1","1","1","0","1","0","0.40388359996723","0.398261399997864","0.38315990002593","1","1","1","1","1","1","1","1","1"
"250015","img/neutralC/CFD-WF-030-002-N.jpg","img/neutralC/CFD-WM-209-038-N.jpg","img/neutralC/CFD-LF-255-088-N.jpg","1","1","1","0","0","0","0.38315990002593","0.40388359996723","0.428720699972473","1","1","1","1","1","1","1","1","1"
"250015","img/neutralC/CFD-LF-255-088-N.jpg","img/neutralC/CFD-WF-030-002-N.jpg","img/neutralC/CFD-LM-225-130-N.jpg","1","1","1","0","0","0","0.428720699972473","0.38315990002593","0.512307099997997","1","1","1","1","1","1","1","1","1"
"250015","img/neutralC/CFD-LM-225-130-N.jpg","img/neutralC/CFD-LF-255-088-N.jpg","img/neutralC/CFD-IM-702-101-N.jpg","1","1","1","0","0","1","0.512307099997997","0.428720699972473","0.438396400015336","1","1","1","1","1","1","1","1","1"
"250015","img/neutralC/CFD-IM-702-101-N.jpg","img/neutralC/CFD-LM-225-130-N.jpg","img/neutralC/CFD-IM-667-369-N.jpg","1","1","1","1","0","0","0.438396400015336","0.512307099997997","0.368156999989878","1","1","1","1","1","1","1","1","1"
"250015","img/neutralC/CFD-IM-667-369-N.jpg","img/neutralC/CFD-IM-702-101-N.jpg","img/neutralC/CFD-WF-244-163-N.jpg","1","1","1","0","1","1","0.368156999989878","0.438396400015336","0.491267699981108","1","1","1","1","1","1","1","1","1"
"250015","img/neutralC/CFD-WF-244-163-N.jpg","img/neutralC/CFD-IM-667-369-N.jpg","img/neutralC/CFD-MF-343-001-N.jpg","1","1","1","1","0","1","0.491267699981108","0.368156999989878","0.385042699985206","1","1","1","1","1","1","1","1","1"
"250015","img/neutralC/CFD-MF-343-001-N.jpg","img/neutralC/CFD-WF-244-163-N.jpg","img/neutralC/CFD-WF-007-001-N.jpg","1","1","1","1","1","1","0.385042699985206","0.491267699981108","0.422019899997394","1","1","1","1","1","1","1","1","1"
"250015","img/neutralC/CFD-WF-007-001-N.jpg","img/neutralC/CFD-MF-343-001-N.jpg","img/neutralC/CFD-AF-253-130-N.jpg","1","1","1","1","1","1","0.422019899997394","0.385042699985206","0.418166599993128","1","1","1","1","1","1","1","1","1"
"250015","img/neutralC/CFD-AF-253-130-N.jpg","img/neutralC/CFD-WF-007-001-N.jpg","img/neutralC/CFD-AF-233-190-N.jpg","1","1","1","1","1","0","0.418166599993128","0.422019899997394","0.494786499999464","1","1","1","1","1","1","1","1","1"
"250015","img/neutralC/CFD-AF-233-190-N.jpg","img/neutralC/CFD-AF-253-130-N.jpg","img/neutralC/CFD-MF-357-002-N.jpg","1","1","1","0","1","0","0.494786499999464","0.418166599993128","0.44760720001068","1","1","1","1","1","1","1","1","1"
"250015","img/neutralC/CFD-MF-357-002-N.jpg","img/neutralC/CFD-AF-233-190-N.jpg","img/neutralC/CFD-MF-316-001-N.jpg","1","1","1","0","0","0","0.44760720001068","0.494786499999464","0.567234900023323","1","1","1","1","1","1","1","1","1"
"250015","img/neutralC/CFD-MF-316-001-N.jpg","img/neutralC/CFD-MF-357-002-N.jpg","img/neutralC/CFD-IF-660-464-N.jpg","1","1","1","0","0","0","0.567234900023323","0.44760720001068","0.457070900010876","1","1","1","1","1","1","1","1","1"
"250015","img/neutralC/CFD-IF-660-464-N.jpg","img/neutralC/CFD-MF-316-001-N.jpg","img/neutralC/CFD-BM-001-014-N.jpg","1","1","1","0","0","0","0.457070900010876","0.567234900023323","0.389465899963398","1","1","1","1","1","1","1","1","1"
"250015","img/neutralC/CFD-BM-001-014-N.jpg","img/neutralC/CFD-IF-660-464-N.jpg","img/neutralC/CFD-BF-014-002-N.jpg","1","1","1","0","0","1","0.389465899963398","0.457070900010876","0.730912800005171","1","1","1","1","1","1","1","1","1"
"250015","img/neutralC/CFD-BF-014-002-N.jpg","img/neutralC/CFD-BM-001-014-N.jpg","img/neutralC/CFD-WF-222-092-N.jpg","1","1","1","1","0","1","0.730912800005171","0.389465899963398","0.417965699976776","1","1","1","1","1","1","1","1","1"
"250015","img/neutralC/CFD-WF-222-092-N.jpg","img/neutralC/CFD-BF-014-002-N.jpg","img/neutralC/CFD-BM-217-082-N.jpg","1","1","1","1","1","0","0.417965699976776","0.730912800005171","0.61661989998538","1","1","1","1","1","1","1","1","1"
"250015","img/neutralC/CFD-BM-217-082-N.jpg","img/neutralC/CFD-WF-222-092-N.jpg",NA,"1","1",NA,"0","1",NA,"0.61661989998538","0.417965699976776",NA,"1","1",NA,"1","1",NA,"1","1",NA
"250015","img/neutralC/CFD-BF-004-014-N.jpg",NA,"img/neutralC/CFD-IM-738-191-N.jpg","1",NA,"1","1",NA,"0","0.609329700004309",NA,"0.562733500031754","1",NA,"1","1",NA,"1","1",NA,"1"
"250015","img/neutralC/CFD-IM-738-191-N.jpg","img/neutralC/CFD-BF-004-014-N.jpg","img/neutralC/CFD-AF-239-171-N.jpg","1","1","1","0","1","1","0.562733500031754","0.609329700004309","0.479063999955542","1","1","1","1","1","1","1","1","1"
"250015","img/neutralC/CFD-AF-239-171-N.jpg","img/neutralC/CFD-IM-738-191-N.jpg","img/neutralC/CFD-BM-003-003-N.jpg","1","1","1","1","0","0","0.479063999955542","0.562733500031754","0.486624100012705","1","1","1","1","1","1","1","1","1"
"250015","img/neutralC/CFD-BM-003-003-N.jpg","img/neutralC/CFD-AF-239-171-N.jpg","img/neutralC/CFD-IF-744-114-N.jpg","1","1","1","0","1","0","0.486624100012705","0.479063999955542","0.47824829997262","1","1","1","1","1","1","1","1","1"
"250015","img/neutralC/CFD-IF-744-114-N.jpg","img/neutralC/CFD-BM-003-003-N.jpg","img/neutralC/CFD-WM-228-065-N.jpg","1","1","1","0","0","0","0.47824829997262","0.486624100012705","0.408216700016055","1","1","1","1","1","1","1","1","1"
"250015","img/neutralC/CFD-WM-228-065-N.jpg","img/neutralC/CFD-IF-744-114-N.jpg","img/neutralC/CFD-BF-222-240-N.jpg","1","1","1","0","0","0","0.408216700016055","0.47824829997262","0.465747800015379","1","1","1","1","1","1","1","1","1"
"250015","img/neutralC/CFD-BF-222-240-N.jpg","img/neutralC/CFD-WM-228-065-N.jpg","img/neutralC/CFD-WF-006-002-N.jpg","1","1","1","0","0","0","0.465747800015379","0.408216700016055","0.520682700036559","1","1","1","1","1","1","1","1","1"
"250015","img/neutralC/CFD-WF-006-002-N.jpg","img/neutralC/CFD-BF-222-240-N.jpg","img/neutralC/CFD-MF-312-002-N.jpg","1","1","1","0","0","1","0.520682700036559","0.465747800015379","0.406108800030779","1","1","1","1","1","1","1","1","1"
"250015","img/neutralC/CFD-MF-312-002-N.jpg","img/neutralC/CFD-WF-006-002-N.jpg","img/neutralC/CFD-BM-213-134-N.jpg","1","1","1","1","0","1","0.406108800030779","0.520682700036559","0.485143900034018","1","1","1","1","1","1","1","1","1"
"250015","img/neutralC/CFD-BM-213-134-N.jpg","img/neutralC/CFD-MF-312-002-N.jpg","img/neutralC/CFD-WM-202-107-N.jpg","1","1","1","1","1","1","0.485143900034018","0.406108800030779","0.459665199974552","1","1","1","1","1","1","1","1","1"
"250015","img/neutralC/CFD-WM-202-107-N.jpg","img/neutralC/CFD-BM-213-134-N.jpg","img/neutralC/CFD-BM-010-003-N.jpg","1","1","1","1","1","0","0.459665199974552","0.485143900034018","0.813570400001481","1","1","1","1","1","1","1","1","1"
"250015","img/neutralC/CFD-BM-010-003-N.jpg","img/neutralC/CFD-WM-202-107-N.jpg","img/neutralC/CFD-IF-625-225-N.jpg","1","1","1","0","1","0","0.813570400001481","0.459665199974552","0.503154299978632","1","1","1","1","1","1","1","1","1"
"250015","img/neutralC/CFD-IF-625-225-N.jpg","img/neutralC/CFD-BM-010-003-N.jpg","img/neutralC/CFD-WF-033-002-N.jpg","1","1","1","0","0","1","0.503154299978632","0.813570400001481","0.474739999976009","1","1","1","1","1","1","1","1","1"
"250015","img/neutralC/CFD-WF-033-002-N.jpg","img/neutralC/CFD-IF-625-225-N.jpg","img/neutralC/CFD-WM-254-152-N.jpg","1","1","1","1","0","1","0.474739999976009","0.503154299978632","0.510368300019763","1","1","1","1","1","1","1","1","1"
"250015","img/neutralC/CFD-WM-254-152-N.jpg","img/neutralC/CFD-WF-033-002-N.jpg","img/neutralC/CFD-BM-013-002-N.jpg","1","1","1","1","1","1","0.510368300019763","0.474739999976009","0.505015500006266","1","1","1","1","1","1","1","1","1"
"250015","img/neutralC/CFD-BM-013-002-N.jpg","img/neutralC/CFD-WM-254-152-N.jpg","img/neutralC/CFD-LF-225-164-N.jpg","1","1","1","1","1","1","0.505015500006266","0.510368300019763","0.586403099994641","1","1","1","1","1","1","1","1","1"
"250015","img/neutralC/CFD-LF-225-164-N.jpg","img/neutralC/CFD-BM-013-002-N.jpg","img/neutralC/CFD-LM-247-095-N.jpg","1","1","1","1","1","0","0.586403099994641","0.505015500006266","0.562119100010023","1","1","1","1","1","1","1","1","1"
"250015","img/neutralC/CFD-LM-247-095-N.jpg","img/neutralC/CFD-LF-225-164-N.jpg","img/neutralC/CFD-MF-336-016-N.jpg","1","1","1","0","1","1","0.562119100010023","0.586403099994641","0.507707600016147","1","1","1","1","1","1","1","1","1"
"250015","img/neutralC/CFD-MF-336-016-N.jpg","img/neutralC/CFD-LM-247-095-N.jpg","img/neutralC/CFD-LM-238-129-N.jpg","1","1","1","1","0","1","0.507707600016147","0.562119100010023","0.502533500024583","1","1","1","1","1","1","1","1","1"
"250015","img/neutralC/CFD-LM-238-129-N.jpg","img/neutralC/CFD-MF-336-016-N.jpg","img/neutralC/CFD-WF-223-133-N.jpg","1","1","1","1","1","0","0.502533500024583","0.507707600016147","0.500315499957651","1","1","1","1","1","1","1","1","1"
"250015","img/neutralC/CFD-WF-223-133-N.jpg","img/neutralC/CFD-LM-238-129-N.jpg","img/neutralC/CFD-LF-210-220-N.jpg","1","1","1","0","1","1","0.500315499957651","0.502533500024583","0.425369699951261","1","1","1","1","1","1","1","1","1"
"250015","img/neutralC/CFD-LF-210-220-N.jpg","img/neutralC/CFD-WF-223-133-N.jpg","img/neutralC/CFD-IF-673-389-N.jpg","1","1","1","1","0","0","0.425369699951261","0.500315499957651","0.426394100009929","1","1","1","1","1","1","1","1","1"
"250015","img/neutralC/CFD-IF-673-389-N.jpg","img/neutralC/CFD-LF-210-220-N.jpg","img/neutralC/CFD-LF-208-127-N.jpg","1","1","1","0","1","0","0.426394100009929","0.425369699951261","0.505367300007492","1","1","1","1","1","1","1","1","1"
"250015","img/neutralC/CFD-LF-208-127-N.jpg","img/neutralC/CFD-IF-673-389-N.jpg","img/neutralC/CFD-BF-045-003-N.jpg","1","1","1","0","0","0","0.505367300007492","0.426394100009929","0.482433500001207","1","1","1","1","1","1","1","1","1"
"250015","img/neutralC/CFD-BF-045-003-N.jpg","img/neutralC/CFD-LF-208-127-N.jpg","img/neutralC/CFD-LF-241-188-N.jpg","1","1","1","0","0","0","0.482433500001207","0.505367300007492","0.431545299943537","1","1","1","1","1","1","1","1","1"
"250015","img/neutralC/CFD-LF-241-188-N.jpg","img/neutralC/CFD-BF-045-003-N.jpg","img/neutralC/CFD-AF-210-050-N.jpg","1","1","1","0","0","1","0.431545299943537","0.482433500001207","0.447332099953201","1","1","1","1","1","1","1","1","1"
"250015","img/neutralC/CFD-AF-210-050-N.jpg","img/neutralC/CFD-LF-241-188-N.jpg","img/neutralC/CFD-AM-221-184-N.jpg","1","1","1","1","0","1","0.447332099953201","0.431545299943537","0.448200599988922","1","1","1","1","1","1","1","1","1"
"250015","img/neutralC/CFD-AM-221-184-N.jpg","img/neutralC/CFD-AF-210-050-N.jpg","img/neutralC/CFD-AF-227-207-N.jpg","1","1","1","1","1","1","0.448200599988922","0.447332099953201","0.421518999966793","1","1","1","1","1","1","1","1","1"
"250015","img/neutralC/CFD-AF-227-207-N.jpg","img/neutralC/CFD-AM-221-184-N.jpg","img/neutralC/CFD-BM-028-002-N.jpg","1","1","1","1","1","1","0.421518999966793","0.448200599988922","0.501992099976633","1","1","1","1","1","1","1","1","1"
"250015","img/neutralC/CFD-BM-028-002-N.jpg","img/neutralC/CFD-AF-227-207-N.jpg","img/neutralC/CFD-IM-659-359-N.jpg","1","1","1","1","1","0","0.501992099976633","0.421518999966793","0.576232099963818","1","1","1","1","1","1","1","1","1"
"250015","img/neutralC/CFD-IM-659-359-N.jpg","img/neutralC/CFD-BM-028-002-N.jpg","img/neutralC/CFD-IM-701-312-N.jpg","1","1","1","0","1","0","0.576232099963818","0.501992099976633","0.452794800046831","1","1","1","1","1","1","1","1","1"
"250015","img/neutralC/CFD-IM-701-312-N.jpg","img/neutralC/CFD-IM-659-359-N.jpg",NA,"1","1",NA,"0","0",NA,"0.452794800046831","0.576232099963818",NA,"1","1",NA,"1","1",NA,"1","1",NA
"250015","img/neutralC/CFD-WM-040-022-N.jpg",NA,"img/neutralC/CFD-AM-217-085-N.jpg","1",NA,"1","0",NA,"0","0.58125819999259",NA,"0.493200400029309","1",NA,"1","1",NA,"1","1",NA,"1"
"250015","img/neutralC/CFD-AM-217-085-N.jpg","img/neutralC/CFD-WM-040-022-N.jpg","img/neutralC/CFD-IF-718-001-N.jpg","1","1","1","0","0","1","0.493200400029309","0.58125819999259","0.453077499987558","1","1","1","1","1","1","1","1","1"
"250015","img/neutralC/CFD-IF-718-001-N.jpg","img/neutralC/CFD-AM-217-085-N.jpg","img/neutralC/CFD-WM-002-009-N.jpg","1","1","1","1","0","0","0.453077499987558","0.493200400029309","0.460060099954717","1","1","1","1","1","1","1","1","1"
"250015","img/neutralC/CFD-WM-002-009-N.jpg","img/neutralC/CFD-IF-718-001-N.jpg","img/neutralC/CFD-BF-003-003-N.jpg","1","1","1","0","1","0","0.460060099954717","0.453077499987558","0.593661700026132","1","1","1","1","1","1","1","1","1"
"250015","img/neutralC/CFD-BF-003-003-N.jpg","img/neutralC/CFD-WM-002-009-N.jpg","img/neutralC/CFD-IM-728-041-N.jpg","1","1","1","0","0","0","0.593661700026132","0.460060099954717","0.429262700024992","1","1","1","1","1","1","1","1","1"
"250015","img/neutralC/CFD-IM-728-041-N.jpg","img/neutralC/CFD-BF-003-003-N.jpg","img/neutralC/CFD-AM-235-241-N.jpg","1","1","1","0","0","0","0.429262700024992","0.593661700026132","0.596627299964894","1","1","1","1","1","1","1","1","1"
"250015","img/neutralC/CFD-AM-235-241-N.jpg","img/neutralC/CFD-IM-728-041-N.jpg","img/neutralC/CFD-IM-639-263-N.jpg","1","1","1","0","0","1","0.596627299964894","0.429262700024992","0.397604600002524","1","1","1","1","1","1","1","1","1"
"250015","img/neutralC/CFD-IM-639-263-N.jpg","img/neutralC/CFD-AM-235-241-N.jpg","img/neutralC/CFD-BF-208-266-N.jpg","1","1","1","1","0","0","0.397604600002524","0.596627299964894","0.459486899955664","1","1","1","1","1","1","1","1","1"
"250015","img/neutralC/CFD-BF-208-266-N.jpg","img/neutralC/CFD-IM-639-263-N.jpg","img/neutralC/CFD-BF-204-189-N.jpg","1","1","1","0","1","1","0.459486899955664","0.397604600002524","0.45802779996302","1","1","1","1","1","1","1","1","1"
"250015","img/neutralC/CFD-BF-204-189-N.jpg","img/neutralC/CFD-BF-208-266-N.jpg","img/neutralC/CFD-BF-255-140-N.jpg","1","1","1","1","0","1","0.45802779996302","0.459486899955664","0.510531399981119","1","1","1","1","1","1","1","1","1"
"250015","img/neutralC/CFD-BF-255-140-N.jpg","img/neutralC/CFD-BF-204-189-N.jpg","img/neutralC/CFD-WF-002-004-N.jpg","1","1","1","1","1","0","0.510531399981119","0.45802779996302","0.488451599958353","1","1","1","1","1","1","1","1","1"
"250015","img/neutralC/CFD-WF-002-004-N.jpg","img/neutralC/CFD-BF-255-140-N.jpg","img/neutralC/CFD-MM-319-052-N.jpg","1","1","1","0","1","1","0.488451599958353","0.510531399981119","0.453193499997724","1","1","1","1","1","1","1","1","1"
"250015","img/neutralC/CFD-MM-319-052-N.jpg","img/neutralC/CFD-WF-002-004-N.jpg","img/neutralC/CFD-BM-015-015-N.jpg","1","1","1","1","0","0","0.453193499997724","0.488451599958353","0.499383600021247","1","1","1","1","1","1","1","1","1"
"250015","img/neutralC/CFD-BM-015-015-N.jpg","img/neutralC/CFD-MM-319-052-N.jpg","img/neutralC/CFD-WM-225-127-N.jpg","1","1","1","0","1","0","0.499383600021247","0.453193499997724","0.454654200002551","1","1","1","1","1","1","1","1","1"
"250015","img/neutralC/CFD-WM-225-127-N.jpg","img/neutralC/CFD-BM-015-015-N.jpg","img/neutralC/CFD-IF-672-305-N.jpg","1","1","1","0","0","0","0.454654200002551","0.499383600021247","0.53938469995046","1","1","1","1","1","1","1","1","1"
"250015","img/neutralC/CFD-IF-672-305-N.jpg","img/neutralC/CFD-WM-225-127-N.jpg","img/neutralC/CFD-WF-026-002-N.jpg","1","1","1","0","0","1","0.53938469995046","0.454654200002551","0.421417300007306","1","1","1","1","1","1","1","1","1"
"250015","img/neutralC/CFD-WF-026-002-N.jpg","img/neutralC/CFD-IF-672-305-N.jpg","img/neutralC/CFD-BM-247-240-N.jpg","1","1","1","1","0","0","0.421417300007306","0.53938469995046","0.457632099976763","1","1","1","1","1","1","1","1","1"
"250015","img/neutralC/CFD-BM-247-240-N.jpg","img/neutralC/CFD-WF-026-002-N.jpg","img/neutralC/CFD-BF-201-080-N.jpg","1","1","1","0","1","1","0.457632099976763","0.421417300007306","0.442748200031929","1","1","1","1","1","1","1","1","1"
"250015","img/neutralC/CFD-BF-201-080-N.jpg","img/neutralC/CFD-BM-247-240-N.jpg","img/neutralC/CFD-BM-027-001-N.jpg","1","1","1","1","0","0","0.442748200031929","0.457632099976763","0.490406800003257","1","1","1","1","1","1","1","1","1"
"250015","img/neutralC/CFD-BM-027-001-N.jpg","img/neutralC/CFD-BF-201-080-N.jpg","img/neutralC/CFD-WM-257-161-N.jpg","1","1","1","0","1","1","0.490406800003257","0.442748200031929","0.388740600028541","1","1","1","1","1","1","1","1","1"
"250015","img/neutralC/CFD-WM-257-161-N.jpg","img/neutralC/CFD-BM-027-001-N.jpg","img/neutralC/CFD-LF-216-121-N.jpg","1","1","1","1","0","1","0.388740600028541","0.490406800003257","0.449299300031271","1","1","1","1","1","1","1","1","1"
"250015","img/neutralC/CFD-LF-216-121-N.jpg","img/neutralC/CFD-WM-257-161-N.jpg","img/neutralC/CFD-LM-252-076-N.jpg","1","1","1","1","1","1","0.449299300031271","0.388740600028541","0.437562299950514","1","1","1","1","1","1","1","1","1"
"250015","img/neutralC/CFD-LM-252-076-N.jpg","img/neutralC/CFD-LF-216-121-N.jpg","img/neutralC/CFD-BF-023-010-N.jpg","1","1","1","1","1","1","0.437562299950514","0.449299300031271","0.40818179998314","1","1","1","1","1","1","1","1","1"
"250015","img/neutralC/CFD-BF-023-010-N.jpg","img/neutralC/CFD-LM-252-076-N.jpg","img/neutralC/CFD-LF-236-221-N.jpg","1","1","1","1","1","1","0.40818179998314","0.437562299950514","0.376727399998344","1","1","1","1","1","1","1","1","1"
"250015","img/neutralC/CFD-LF-236-221-N.jpg","img/neutralC/CFD-BF-023-010-N.jpg","img/neutralC/CFD-BM-029-024-N.jpg","1","1","1","1","1","1","0.376727399998344","0.40818179998314","0.381681600003503","1","1","1","1","1","1","1","1","1"
"250015","img/neutralC/CFD-BM-029-024-N.jpg","img/neutralC/CFD-LF-236-221-N.jpg","img/neutralC/CFD-WF-022-017-N.jpg","1","1","1","1","1","0","0.381681600003503","0.376727399998344","0.392544200003613","1","1","1","1","1","1","1","1","1"
"250015","img/neutralC/CFD-WF-022-017-N.jpg","img/neutralC/CFD-BM-029-024-N.jpg","img/neutralC/CFD-WM-038-003-N.jpg","1","1","1","0","1","0","0.392544200003613","0.381681600003503","0.440731299982872","1","1","1","1","1","1","1","1","1"
"250015","img/neutralC/CFD-WM-038-003-N.jpg","img/neutralC/CFD-WF-022-017-N.jpg","img/neutralC/CFD-BM-211-174-N.jpg","1","1","1","0","0","0","0.440731299982872","0.392544200003613","0.404924399976153","1","1","1","1","1","1","1","1","1"
"250015","img/neutralC/CFD-BM-211-174-N.jpg","img/neutralC/CFD-WM-038-003-N.jpg","img/neutralC/CFD-BF-028-001-N.jpg","1","1","1","0","0","1","0.404924399976153","0.440731299982872","0.417240599985234","1","1","1","1","1","1","1","1","1"
"250015","img/neutralC/CFD-BF-028-001-N.jpg","img/neutralC/CFD-BM-211-174-N.jpg","img/neutralC/CFD-IM-674-281-N.jpg","1","1","1","1","0","1","0.417240599985234","0.404924399976153","0.512869700032752","1","1","1","1","1","1","1","1","1"
"250015","img/neutralC/CFD-IM-674-281-N.jpg","img/neutralC/CFD-BF-028-001-N.jpg","img/neutralC/CFD-AM-215-120-N.jpg","1","1","1","1","1","1","0.512869700032752","0.417240599985234","0.459943900001235","1","1","1","1","1","1","1","1","1"
"250015","img/neutralC/CFD-AM-215-120-N.jpg","img/neutralC/CFD-IM-674-281-N.jpg",NA,"1","1",NA,"1","1",NA,"0.459943900001235","0.512869700032752",NA,"1","1",NA,"1","1",NA,"1","1",NA
"250015","img/neutralC/CFD-IM-696-001-N.jpg",NA,"img/neutralC/CFD-IM-707-105-N.jpg","1",NA,"1","0",NA,"1","0.460437699977774",NA,"0.458180599962361","1",NA,"1","1",NA,"1","1",NA,"1"
"250015","img/neutralC/CFD-IM-707-105-N.jpg","img/neutralC/CFD-IM-696-001-N.jpg","img/neutralC/CFD-BM-238-242-N.jpg","1","1","1","1","0","0","0.458180599962361","0.460437699977774","0.504235200001858","1","1","1","1","1","1","1","1","1"
"250015","img/neutralC/CFD-BM-238-242-N.jpg","img/neutralC/CFD-IM-707-105-N.jpg","img/neutralC/CFD-IF-729-393-N.jpg","1","1","1","0","1","0","0.504235200001858","0.458180599962361","0.467851599969435","1","1","1","1","1","1","1","1","1"
"250015","img/neutralC/CFD-IF-729-393-N.jpg","img/neutralC/CFD-BM-238-242-N.jpg","img/neutralC/CFD-BM-207-024-N.jpg","1","1","1","0","0","1","0.467851599969435","0.504235200001858","0.422127500001807","1","1","1","1","1","1","1","1","1"
"250015","img/neutralC/CFD-BM-207-024-N.jpg","img/neutralC/CFD-IF-729-393-N.jpg","img/neutralC/CFD-BF-044-034-N.jpg","1","1","1","1","0","0","0.422127500001807","0.467851599969435","0.474030400044285","1","1","1","1","1","1","1","1","1"
"250015","img/neutralC/CFD-BF-044-034-N.jpg","img/neutralC/CFD-BM-207-024-N.jpg","img/neutralC/CFD-AM-230-150-N.jpg","1","1","1","0","1","0","0.474030400044285","0.422127500001807","0.498949699976947","1","1","1","1","1","1","1","1","1"
"250015","img/neutralC/CFD-AM-230-150-N.jpg","img/neutralC/CFD-BF-044-034-N.jpg","img/neutralC/CFD-LF-204-133-N.jpg","1","1","1","0","0","1","0.498949699976947","0.474030400044285","0.47558480000589","1","1","1","1","1","1","1","1","1"
"250015","img/neutralC/CFD-LF-204-133-N.jpg","img/neutralC/CFD-AM-230-150-N.jpg","img/neutralC/CFD-IM-726-248-N.jpg","1","1","1","1","0","0","0.47558480000589","0.498949699976947","0.491966500005219","1","1","1","1","1","1","1","1","1"
"250015","img/neutralC/CFD-IM-726-248-N.jpg","img/neutralC/CFD-LF-204-133-N.jpg","img/neutralC/CFD-BF-247-179-N.jpg","1","1","1","0","1","0","0.491966500005219","0.47558480000589","0.502493700012565","1","1","1","1","1","1","1","1","1"
"250015","img/neutralC/CFD-BF-247-179-N.jpg","img/neutralC/CFD-IM-726-248-N.jpg","img/neutralC/CFD-WF-029-002-N.jpg","1","1","1","0","0","0","0.502493700012565","0.491966500005219","0.450263099977747","1","1","1","1","1","1","1","1","1"
"250015","img/neutralC/CFD-WF-029-002-N.jpg","img/neutralC/CFD-BF-247-179-N.jpg","img/neutralC/CFD-WF-208-068-N.jpg","1","1","1","0","0","1","0.450263099977747","0.502493700012565","0.458830799965654","1","1","1","1","1","1","1","1","1"
"250015","img/neutralC/CFD-WF-208-068-N.jpg","img/neutralC/CFD-WF-029-002-N.jpg","img/neutralC/CFD-BF-207-004-N.jpg","1","1","1","1","0","1","0.458830799965654","0.450263099977747","0.441375200054608","1","1","1","1","1","1","1","1","1"
"250015","img/neutralC/CFD-BF-207-004-N.jpg","img/neutralC/CFD-WF-208-068-N.jpg","img/neutralC/CFD-IF-742-103-N.jpg","1","1","1","1","1","1","0.441375200054608","0.458830799965654","0.401423000032082","1","1","1","1","1","1","1","1","1"
"250015","img/neutralC/CFD-IF-742-103-N.jpg","img/neutralC/CFD-BF-207-004-N.jpg","img/neutralC/CFD-BF-214-308-N.jpg","1","1","1","1","1","1","0.401423000032082","0.441375200054608","0.462229800003115","1","1","1","1","1","1","1","1","1"
"250015","img/neutralC/CFD-BF-214-308-N.jpg","img/neutralC/CFD-IF-742-103-N.jpg","img/neutralC/CFD-IM-721-341-N.jpg","1","1","1","1","1","1","0.462229800003115","0.401423000032082","0.410050100006629","1","1","1","1","1","1","1","1","1"
"250015","img/neutralC/CFD-IM-721-341-N.jpg","img/neutralC/CFD-BF-214-308-N.jpg","img/neutralC/CFD-WM-034-030-N.jpg","1","1","1","1","1","1","0.410050100006629","0.462229800003115","0.48607289994834","1","1","1","1","1","1","1","1","1"
"250015","img/neutralC/CFD-WM-034-030-N.jpg","img/neutralC/CFD-IM-721-341-N.jpg","img/neutralC/CFD-BF-036-027-N.jpg","1","1","1","1","1","0","0.48607289994834","0.410050100006629","0.467918700014707","1","1","1","1","1","1","1","1","1"
"250015","img/neutralC/CFD-BF-036-027-N.jpg","img/neutralC/CFD-WM-034-030-N.jpg","img/neutralC/CFD-WF-234-086-N.jpg","1","1","1","0","1","1","0.467918700014707","0.48607289994834","0.409598600002937","1","1","1","1","1","1","1","1","1"
"250015","img/neutralC/CFD-WF-234-086-N.jpg","img/neutralC/CFD-BF-036-027-N.jpg","img/neutralC/CFD-BF-006-017-N.jpg","1","1","1","1","0","0","0.409598600002937","0.467918700014707","0.46006390004186","1","1","1","1","1","1","1","1","1"
"250015","img/neutralC/CFD-BF-006-017-N.jpg","img/neutralC/CFD-WF-234-086-N.jpg","img/neutralC/CFD-BM-241-235-N.jpg","1","1","1","0","1","0","0.46006390004186","0.409598600002937","0.490455800027121","1","1","1","1","1","1","1","1","1"
"250015","img/neutralC/CFD-BM-241-235-N.jpg","img/neutralC/CFD-BF-006-017-N.jpg","img/neutralC/CFD-IF-677-452-1-N.jpg","1","1","1","0","0","1","0.490455800027121","0.46006390004186","0.38967419997789","1","1","1","1","1","1","1","1","1"
"250015","img/neutralC/CFD-IF-677-452-1-N.jpg","img/neutralC/CFD-BM-241-235-N.jpg","img/neutralC/CFD-BM-036-003-N.jpg","1","1","1","1","0","1","0.38967419997789","0.490455800027121","0.44441180001013","1","1","1","1","1","1","1","1","1"
"250015","img/neutralC/CFD-BM-036-003-N.jpg","img/neutralC/CFD-IF-677-452-1-N.jpg","img/neutralC/CFD-MF-301-024-N.jpg","1","1","1","1","1","0","0.44441180001013","0.38967419997789","0.46011779998662","1","1","1","1","1","1","1","1","1"
"250015","img/neutralC/CFD-MF-301-024-N.jpg","img/neutralC/CFD-BM-036-003-N.jpg","img/neutralC/CFD-LM-213-061-N.jpg","1","1","1","0","1","0","0.46011779998662","0.44441180001013","0.516035000036936","1","1","1","1","1","1","1","1","1"
"250015","img/neutralC/CFD-LM-213-061-N.jpg","img/neutralC/CFD-MF-301-024-N.jpg","img/neutralC/CFD-BF-002-001-N.jpg","1","1","1","0","0","0","0.516035000036936","0.46011779998662","0.470634000026621","1","1","1","1","1","1","1","1","1"
"250015","img/neutralC/CFD-BF-002-001-N.jpg","img/neutralC/CFD-LM-213-061-N.jpg","img/neutralC/CFD-BF-011-002-N.jpg","1","1","1","0","0","1","0.470634000026621","0.516035000036936","0.436737700016238","1","1","1","1","1","1","1","1","1"
"250015","img/neutralC/CFD-BF-011-002-N.jpg","img/neutralC/CFD-BF-002-001-N.jpg","img/neutralC/CFD-BF-236-177-N.jpg","1","1","1","1","0","0","0.436737700016238","0.470634000026621","0.49377000000095","1","1","1","1","1","1","1","1","1"
"250015","img/neutralC/CFD-BF-236-177-N.jpg","img/neutralC/CFD-BF-011-002-N.jpg","img/neutralC/CFD-BF-027-002-N.jpg","1","1","1","0","1","1","0.49377000000095","0.436737700016238","0.462418499984778","1","1","1","1","1","1","1","1","1"
"250015","img/neutralC/CFD-BF-027-002-N.jpg","img/neutralC/CFD-BF-236-177-N.jpg","img/neutralC/CFD-WM-248-036-N.jpg","1","1","1","1","0","1","0.462418499984778","0.49377000000095","0.484102100017481","1","1","1","1","1","1","1","1","1"
"250015","img/neutralC/CFD-WM-248-036-N.jpg","img/neutralC/CFD-BF-027-002-N.jpg","img/neutralC/CFD-WF-233-112-N.jpg","1","1","1","1","1","1","0.484102100017481","0.462418499984778","0.521059999999125","1","1","1","1","1","1","1","1","1"
"250015","img/neutralC/CFD-WF-233-112-N.jpg","img/neutralC/CFD-WM-248-036-N.jpg","img/neutralC/CFD-WM-014-002-N.jpg","1","1","1","1","1","0","0.521059999999125","0.484102100017481","0.502416000002995","1","1","1","1","1","1","1","1","1"
"250015","img/neutralC/CFD-WM-014-002-N.jpg","img/neutralC/CFD-WF-233-112-N.jpg",NA,"1","1",NA,"0","1",NA,"0.502416000002995","0.521059999999125",NA,"1","1",NA,"1","1",NA,"1","1",NA
"250015","img/neutralC/CFD-MF-352-054-N.jpg",NA,"img/neutralC/CFD-IM-671-601-N.jpg","1",NA,"1","0",NA,"0","0.533870299987029",NA,"0.431813900009729","1",NA,"1","1",NA,"1","1",NA,"1"
"250015","img/neutralC/CFD-IM-671-601-N.jpg","img/neutralC/CFD-MF-352-054-N.jpg","img/neutralC/CFD-WF-200-099-N.jpg","1","1","0","0","0","0","0.431813900009729","0.533870299987029","0.413356300035957","1","1","1","1","1","1","1","1","1"
"250015","img/neutralC/CFD-WF-200-099-N.jpg","img/neutralC/CFD-IM-671-601-N.jpg","img/neutralC/CFD-WF-214-122-N.jpg","0","1","1","0","0","1","0.413356300035957","0.431813900009729","0.458587700035423","1","1","1","1","1","1","1","1","1"
"250015","img/neutralC/CFD-WF-214-122-N.jpg","img/neutralC/CFD-WF-200-099-N.jpg","img/neutralC/CFD-LM-237-264-N.jpg","1","0","1","1","0","0","0.458587700035423","0.413356300035957","0.471198700019158","1","1","1","1","1","1","1","1","1"
"250015","img/neutralC/CFD-LM-237-264-N.jpg","img/neutralC/CFD-WF-214-122-N.jpg","img/neutralC/CFD-BF-226-119-N.jpg","1","1","1","0","1","1","0.471198700019158","0.458587700035423","0.516851400025189","1","1","1","1","1","1","1","1","1"
"250015","img/neutralC/CFD-BF-226-119-N.jpg","img/neutralC/CFD-LM-237-264-N.jpg","img/neutralC/CFD-MF-359-019-N.jpg","1","1","1","1","0","0","0.516851400025189","0.471198700019158","0.536414799978957","1","1","1","1","1","1","1","1","1"
"250015","img/neutralC/CFD-MF-359-019-N.jpg","img/neutralC/CFD-BF-226-119-N.jpg","img/neutralC/CFD-MF-333-012-N.jpg","1","1","1","0","1","0","0.536414799978957","0.516851400025189","0.552472999959718","1","1","1","1","1","1","1","1","1"
"250015","img/neutralC/CFD-MF-333-012-N.jpg","img/neutralC/CFD-MF-359-019-N.jpg","img/neutralC/CFD-IM-743-006-N.jpg","1","1","1","0","0","1","0.552472999959718","0.536414799978957","0.480135100020561","1","1","1","1","1","1","1","1","1"
"250015","img/neutralC/CFD-IM-743-006-N.jpg","img/neutralC/CFD-MF-333-012-N.jpg","img/neutralC/CFD-IM-703-182-N.jpg","1","1","1","1","0","1","0.480135100020561","0.552472999959718","0.594298899988644","1","1","1","1","1","1","1","1","1"
"250015","img/neutralC/CFD-IM-703-182-N.jpg","img/neutralC/CFD-IM-743-006-N.jpg","img/neutralC/CFD-AM-242-176-N.jpg","1","1","1","1","1","1","0.594298899988644","0.480135100020561","0.458078399999067","1","1","1","1","1","1","1","1","1"
"250015","img/neutralC/CFD-AM-242-176-N.jpg","img/neutralC/CFD-IM-703-182-N.jpg","img/neutralC/CFD-WF-001-003-N.jpg","1","1","1","1","1","1","0.458078399999067","0.594298899988644","0.478820899967104","1","1","1","1","1","1","1","1","1"
"250015","img/neutralC/CFD-WF-001-003-N.jpg","img/neutralC/CFD-AM-242-176-N.jpg","img/neutralC/CFD-AM-211-052-N.jpg","1","1","1","1","1","1","0.478820899967104","0.458078399999067","0.455916100007016","1","1","1","1","1","1","1","1","1"
"250015","img/neutralC/CFD-AM-211-052-N.jpg","img/neutralC/CFD-WF-001-003-N.jpg","img/neutralC/CFD-WM-033-025-N.jpg","1","1","1","1","1","1","0.455916100007016","0.478820899967104","0.476885700016282","1","1","1","1","1","1","1","1","1"
"250015","img/neutralC/CFD-WM-033-025-N.jpg","img/neutralC/CFD-AM-211-052-N.jpg","img/neutralC/CFD-IM-645-001-N.jpg","1","1","1","1","1","0","0.476885700016282","0.455916100007016","0.422244600020349","1","1","1","1","1","1","1","1","1"
"250015","img/neutralC/CFD-IM-645-001-N.jpg","img/neutralC/CFD-WM-033-025-N.jpg","img/neutralC/CFD-LF-220-120-N.jpg","1","1","1","0","1","1","0.422244600020349","0.476885700016282","0.416328499966767","1","1","1","1","1","1","1","1","1"
"250015","img/neutralC/CFD-LF-220-120-N.jpg","img/neutralC/CFD-IM-645-001-N.jpg","img/neutralC/CFD-LM-228-188-N.jpg","1","1","1","1","0","1","0.416328499966767","0.422244600020349","0.464335099968594","1","1","1","1","1","1","1","1","1"
"250015","img/neutralC/CFD-LM-228-188-N.jpg","img/neutralC/CFD-LF-220-120-N.jpg","img/neutralC/CFD-BF-229-179-N.jpg","1","1","1","1","1","0","0.464335099968594","0.416328499966767","0.46001709997654","1","1","1","1","1","1","1","1","1"
"250015","img/neutralC/CFD-BF-229-179-N.jpg","img/neutralC/CFD-LM-228-188-N.jpg","img/neutralC/CFD-BM-225-154-N.jpg","1","1","1","0","1","1","0.46001709997654","0.464335099968594","0.400382299965713","1","1","1","1","1","1","1","1","1"
"250015","img/neutralC/CFD-BM-225-154-N.jpg","img/neutralC/CFD-BF-229-179-N.jpg","img/neutralC/CFD-LF-218-072-N.jpg","1","1","1","1","0","0","0.400382299965713","0.46001709997654","0.59368180000456","1","1","1","1","1","1","1","1","1"
"250015","img/neutralC/CFD-LF-218-072-N.jpg","img/neutralC/CFD-BM-225-154-N.jpg","img/neutralC/CFD-WM-004-010-N.jpg","1","1","1","0","1","0","0.59368180000456","0.400382299965713","0.411904299980961","1","1","1","1","1","1","1","1","1"
"250015","img/neutralC/CFD-WM-004-010-N.jpg","img/neutralC/CFD-LF-218-072-N.jpg","img/neutralC/CFD-WF-036-023-N.jpg","1","1","1","0","0","0","0.411904299980961","0.59368180000456","0.430072500021197","1","1","1","1","1","1","1","1","1"
"250015","img/neutralC/CFD-WF-036-023-N.jpg","img/neutralC/CFD-WM-004-010-N.jpg","img/neutralC/CFD-BM-253-004-N.jpg","1","1","1","0","0","1","0.430072500021197","0.411904299980961","0.446025800018106","1","1","1","1","1","1","1","1","1"
"250015","img/neutralC/CFD-BM-253-004-N.jpg","img/neutralC/CFD-WF-036-023-N.jpg","img/neutralC/CFD-WM-235-147-N.jpg","1","1","1","1","0","0","0.446025800018106","0.430072500021197","0.478934200014919","1","1","1","1","1","1","1","1","1"
"250015","img/neutralC/CFD-WM-235-147-N.jpg","img/neutralC/CFD-BM-253-004-N.jpg","img/neutralC/CFD-AM-251-124-N.jpg","1","1","1","0","1","0","0.478934200014919","0.446025800018106","0.412902900017798","1","1","1","1","1","1","1","1","1"
"250015","img/neutralC/CFD-AM-251-124-N.jpg","img/neutralC/CFD-WM-235-147-N.jpg","img/neutralC/CFD-WM-020-001-N.jpg","1","1","1","0","0","1","0.412902900017798","0.478934200014919","0.454560900048818","1","1","1","1","1","1","1","1","1"
"250015","img/neutralC/CFD-WM-020-001-N.jpg","img/neutralC/CFD-AM-251-124-N.jpg","img/neutralC/CFD-WM-219-008-N.jpg","1","1","1","1","0","0","0.454560900048818","0.412902900017798","0.512983100023121","1","1","1","1","1","1","1","1","1"
"250015","img/neutralC/CFD-WM-219-008-N.jpg","img/neutralC/CFD-WM-020-001-N.jpg","img/neutralC/CFD-BF-232-187-N.jpg","1","1","0","0","1","1","0.512983100023121","0.454560900048818","0.86495170003036","1","1","1","1","1","1","1","1","1"
"250015","img/neutralC/CFD-BF-232-187-N.jpg","img/neutralC/CFD-WM-219-008-N.jpg","img/neutralC/CFD-IM-616-214-N.jpg","0","1","1","1","0","0","0.86495170003036","0.512983100023121","0.555905399960466","1","1","1","1","1","1","1","1","1"
"250015","img/neutralC/CFD-IM-616-214-N.jpg","img/neutralC/CFD-BF-232-187-N.jpg","img/neutralC/CFD-IF-623-129-N.jpg","1","0","1","0","1","1","0.555905399960466","0.86495170003036","0.566110499959905","1","1","1","1","1","1","1","1","1"
"250015","img/neutralC/CFD-IF-623-129-N.jpg","img/neutralC/CFD-IM-616-214-N.jpg","img/neutralC/CFD-BF-038-037-N.jpg","1","1","1","1","0","1","0.566110499959905","0.555905399960466","0.527047600015067","1","1","1","1","1","1","1","1","1"
"250015","img/neutralC/CFD-BF-038-037-N.jpg","img/neutralC/CFD-IF-623-129-N.jpg","img/neutralC/CFD-IF-650-315-N.jpg","1","1","1","1","1","0","0.527047600015067","0.566110499959905","0.573334700020496","1","1","1","1","1","1","1","1","1"
"250015","img/neutralC/CFD-IF-650-315-N.jpg","img/neutralC/CFD-BF-038-037-N.jpg",NA,"1","1",NA,"0","1",NA,"0.573334700020496","0.527047600015067",NA,"1","1",NA,"1","1",NA,"1","1",NA
"250015","img/neutralC/CFD-LM-204-001-N.jpg",NA,"img/neutralC/CFD-WF-210-086-N.jpg","0",NA,"1","0",NA,"0","0.691746299969964",NA,"0.454315699986182","1",NA,"1","1",NA,"1","1",NA,"1"
"250015","img/neutralC/CFD-WF-210-086-N.jpg","img/neutralC/CFD-LM-204-001-N.jpg","img/neutralC/CFD-AM-233-236-N.jpg","1","0","1","0","0","1","0.454315699986182","0.691746299969964","0.5213219000143","1","1","1","1","1","1","1","1","1"
"250015","img/neutralC/CFD-AM-233-236-N.jpg","img/neutralC/CFD-WF-210-086-N.jpg","img/neutralC/CFD-IM-632-097-N.jpg","1","1","1","1","0","0","0.5213219000143","0.454315699986182","0.478101500018966","1","1","1","1","1","1","1","1","1"
"250015","img/neutralC/CFD-IM-632-097-N.jpg","img/neutralC/CFD-AM-233-236-N.jpg","img/neutralC/CFD-AF-234-208-N.jpg","1","1","1","0","1","1","0.478101500018966","0.5213219000143","0.447319800034165","1","1","1","1","1","1","1","1","1"
"250015","img/neutralC/CFD-AF-234-208-N.jpg","img/neutralC/CFD-IM-632-097-N.jpg","img/neutralC/CFD-AF-205-155-N.jpg","1","1","1","1","0","0","0.447319800034165","0.478101500018966","0.469969899975695","1","1","1","1","1","1","1","1","1"
"250015","img/neutralC/CFD-AF-205-155-N.jpg","img/neutralC/CFD-AF-234-208-N.jpg","img/neutralC/CFD-IM-669-111-N.jpg","1","1","1","0","1","1","0.469969899975695","0.447319800034165","0.549962899996899","1","1","1","1","1","1","1","1","1"
"250015","img/neutralC/CFD-IM-669-111-N.jpg","img/neutralC/CFD-AF-205-155-N.jpg","img/neutralC/CFD-AF-244-168-N.jpg","1","1","1","1","0","0","0.549962899996899","0.469969899975695","0.495249300030991","1","1","1","1","1","1","1","1","1"
"250015","img/neutralC/CFD-AF-244-168-N.jpg","img/neutralC/CFD-IM-669-111-N.jpg","img/neutralC/CFD-BF-040-003-N.jpg","1","1","1","0","1","1","0.495249300030991","0.549962899996899","0.440891199978068","1","1","1","1","1","1","1","1","1"
"250015","img/neutralC/CFD-BF-040-003-N.jpg","img/neutralC/CFD-AF-244-168-N.jpg","img/neutralC/CFD-IF-732-260-N.jpg","1","1","1","1","0","0","0.440891199978068","0.495249300030991","0.481739000009838","1","1","1","1","1","1","1","1","1"
"250015","img/neutralC/CFD-IF-732-260-N.jpg","img/neutralC/CFD-BF-040-003-N.jpg","img/neutralC/CFD-LM-241-125-N.jpg","1","1","1","0","1","1","0.481739000009838","0.440891199978068","0.663374900002964","1","1","1","1","1","1","1","1","1"
"250015","img/neutralC/CFD-LM-241-125-N.jpg","img/neutralC/CFD-IF-732-260-N.jpg","img/neutralC/CFD-BF-206-143-N.jpg","1","1","1","1","0","1","0.663374900002964","0.481739000009838","0.567886400036514","1","1","1","1","1","1","1","1","1"
"250015","img/neutralC/CFD-BF-206-143-N.jpg","img/neutralC/CFD-LM-241-125-N.jpg","img/neutralC/CFD-BF-042-026-N.jpg","1","1","1","1","1","1","0.567886400036514","0.663374900002964","0.574832699960098","1","1","1","1","1","1","1","1","1"
"250015","img/neutralC/CFD-BF-042-026-N.jpg","img/neutralC/CFD-BF-206-143-N.jpg","img/neutralC/CFD-LF-239-148-N.jpg","1","1","1","1","1","0","0.574832699960098","0.567886400036514","0.457424700027332","1","1","1","1","1","1","1","1","1"
"250015","img/neutralC/CFD-LF-239-148-N.jpg","img/neutralC/CFD-BF-042-026-N.jpg","img/neutralC/CFD-AF-250-200-N.jpg","1","1","1","0","1","1","0.457424700027332","0.574832699960098","0.476100100029726","1","1","1","1","1","1","1","1","1"
"250015","img/neutralC/CFD-AF-250-200-N.jpg","img/neutralC/CFD-LF-239-148-N.jpg","img/neutralC/CFD-BF-217-189-N.jpg","1","1","1","1","0","0","0.476100100029726","0.457424700027332","0.517594400036614","1","1","1","1","1","1","1","1","1"
"250015","img/neutralC/CFD-BF-217-189-N.jpg","img/neutralC/CFD-AF-250-200-N.jpg","img/neutralC/CFD-MF-302-027-N.jpg","1","1","1","0","1","0","0.517594400036614","0.476100100029726","0.616908199968748","1","1","1","1","1","1","1","1","1"
"250015","img/neutralC/CFD-MF-302-027-N.jpg","img/neutralC/CFD-BF-217-189-N.jpg","img/neutralC/CFD-AF-246-242-N.jpg","1","1","1","0","0","0","0.616908199968748","0.517594400036614","0.466109899978619","1","1","1","1","1","1","1","1","1"
"250015","img/neutralC/CFD-AF-246-242-N.jpg","img/neutralC/CFD-MF-302-027-N.jpg","img/neutralC/CFD-AM-245-111-N.jpg","1","1","1","0","0","1","0.466109899978619","0.616908199968748","0.534510100027546","1","1","1","1","1","1","1","1","1"
"250015","img/neutralC/CFD-AM-245-111-N.jpg","img/neutralC/CFD-AF-246-242-N.jpg","img/neutralC/CFD-AF-213-126-N.jpg","1","1","1","1","0","1","0.534510100027546","0.466109899978619","0.532570300041698","1","1","1","1","1","1","1","1","1"
"250015","img/neutralC/CFD-AF-213-126-N.jpg","img/neutralC/CFD-AM-245-111-N.jpg","img/neutralC/CFD-IF-636-011-N.jpg","1","1","1","1","1","1","0.532570300041698","0.534510100027546","0.571356800035574","1","1","1","1","1","1","1","1","1"
"250015","img/neutralC/CFD-IF-636-011-N.jpg","img/neutralC/CFD-AF-213-126-N.jpg","img/neutralC/CFD-IM-635-010-N.jpg","1","1","1","1","1","1","0.571356800035574","0.532570300041698","0.595260399975814","1","1","1","1","1","1","1","1","1"
"250015","img/neutralC/CFD-IM-635-010-N.jpg","img/neutralC/CFD-IF-636-011-N.jpg","img/neutralC/CFD-BF-020-002-N.jpg","1","1","1","1","1","1","0.595260399975814","0.571356800035574","0.552268299972638","1","1","1","1","1","1","1","1","1"
"250015","img/neutralC/CFD-BF-020-002-N.jpg","img/neutralC/CFD-IM-635-010-N.jpg","img/neutralC/CFD-AM-225-102-N.jpg","1","1","1","1","1","0","0.552268299972638","0.595260399975814","0.555806900025345","1","1","1","1","1","1","1","1","1"
"250015","img/neutralC/CFD-AM-225-102-N.jpg","img/neutralC/CFD-BF-020-002-N.jpg","img/neutralC/CFD-IM-678-482-N.jpg","1","1","1","0","1","0","0.555806900025345","0.552268299972638","0.557241400005296","1","1","1","1","1","1","1","1","1"
"250015","img/neutralC/CFD-IM-678-482-N.jpg","img/neutralC/CFD-AM-225-102-N.jpg","img/neutralC/CFD-WM-018-002-N.jpg","1","1","1","0","0","0","0.557241400005296","0.555806900025345","0.538658200006466","1","1","1","1","1","1","1","1","1"
"250015","img/neutralC/CFD-WM-018-002-N.jpg","img/neutralC/CFD-IM-678-482-N.jpg","img/neutralC/CFD-BF-235-168-N.jpg","1","1","1","0","0","1","0.538658200006466","0.557241400005296","0.472021599998698","1","1","1","1","1","1","1","1","1"
"250015","img/neutralC/CFD-BF-235-168-N.jpg","img/neutralC/CFD-WM-018-002-N.jpg","img/neutralC/CFD-MF-307-002-N.jpg","1","1","1","1","0","1","0.472021599998698","0.538658200006466","0.461717099999078","1","1","1","1","1","1","1","1","1"
"250015","img/neutralC/CFD-MF-307-002-N.jpg","img/neutralC/CFD-BF-235-168-N.jpg","img/neutralC/CFD-BM-215-155-N.jpg","1","1","1","1","1","0","0.461717099999078","0.472021599998698","0.462044599989895","1","1","1","1","1","1","1","1","1"
"250015","img/neutralC/CFD-BM-215-155-N.jpg","img/neutralC/CFD-MF-307-002-N.jpg","img/neutralC/CFD-BM-004-002-N.jpg","1","1","1","0","1","0","0.462044599989895","0.461717099999078","0.446634899999481","1","1","1","1","1","1","1","1","1"
"250015","img/neutralC/CFD-BM-004-002-N.jpg","img/neutralC/CFD-BM-215-155-N.jpg","img/neutralC/CFD-WF-235-121-N.jpg","1","1","1","0","0","0","0.446634899999481","0.462044599989895","0.498074000002816","1","1","1","1","1","1","1","1","1"
"250015","img/neutralC/CFD-WF-235-121-N.jpg","img/neutralC/CFD-BM-004-002-N.jpg","img/neutralC/CFD-WM-253-119-N.jpg","1","1","1","0","0","1","0.498074000002816","0.446634899999481","0.667867600044701","1","1","1","1","1","1","1","1","1"
"250015","img/neutralC/CFD-WM-253-119-N.jpg","img/neutralC/CFD-WF-235-121-N.jpg",NA,"1","1",NA,"1","0",NA,"0.667867600044701","0.498074000002816",NA,"1","1",NA,"1","1",NA,"1","1",NA
"250015","img/neutralC/CFD-LM-219-295-N.jpg",NA,"img/neutralC/CFD-BF-033-028-N.jpg","1",NA,"1","1",NA,"0","0.566754599974956",NA,"0.490020700031891","1",NA,"1","1",NA,"1","1",NA,"1"
"250015","img/neutralC/CFD-BF-033-028-N.jpg","img/neutralC/CFD-LM-219-295-N.jpg","img/neutralC/CFD-BM-005-003-N.jpg","1","1","1","0","1","1","0.490020700031891","0.566754599974956","0.480951000005007","1","1","1","1","1","1","1","1","1"
"250015","img/neutralC/CFD-BM-005-003-N.jpg","img/neutralC/CFD-BF-033-028-N.jpg","img/neutralC/CFD-IM-617-174-N.jpg","1","1","1","1","0","0","0.480951000005007","0.490020700031891","0.522322000004351","1","1","1","1","1","1","1","1","1"
"250015","img/neutralC/CFD-IM-617-174-N.jpg","img/neutralC/CFD-BM-005-003-N.jpg","img/neutralC/CFD-AF-241-141-N.jpg","1","1","1","0","1","1","0.522322000004351","0.480951000005007","0.45832460001111","1","1","1","1","1","1","1","1","1"
"250015","img/neutralC/CFD-AF-241-141-N.jpg","img/neutralC/CFD-IM-617-174-N.jpg","img/neutralC/CFD-IM-727-195-N.jpg","1","1","1","1","0","1","0.45832460001111","0.522322000004351","0.459172400005627","1","1","1","1","1","1","1","1","1"
"250015","img/neutralC/CFD-IM-727-195-N.jpg","img/neutralC/CFD-AF-241-141-N.jpg","img/neutralC/CFD-IM-657-308-N.jpg","1","1","1","1","1","0","0.459172400005627","0.45832460001111","0.577352099993732","1","1","1","1","1","1","1","1","1"
"250015","img/neutralC/CFD-IM-657-308-N.jpg","img/neutralC/CFD-IM-727-195-N.jpg","img/neutralC/CFD-AF-206-079-N.jpg","1","1","1","0","1","1","0.577352099993732","0.459172400005627","0.514401499996893","1","1","1","1","1","1","1","1","1"
"250015","img/neutralC/CFD-AF-206-079-N.jpg","img/neutralC/CFD-IM-657-308-N.jpg","img/neutralC/CFD-MF-313-002-N.jpg","1","1","1","1","0","0","0.514401499996893","0.577352099993732","0.640115499962121","1","1","1","1","1","1","1","1","1"
"250015","img/neutralC/CFD-MF-313-002-N.jpg","img/neutralC/CFD-AF-206-079-N.jpg","img/neutralC/CFD-AF-202-122-N.jpg","1","1","1","0","1","1","0.640115499962121","0.514401499996893","0.501418499974534","1","1","1","1","1","1","1","1","1"
"250015","img/neutralC/CFD-AF-202-122-N.jpg","img/neutralC/CFD-MF-313-002-N.jpg","img/neutralC/CFD-WM-017-002-N.jpg","1","1","1","1","0","0","0.501418499974534","0.640115499962121","0.481909500027541","1","1","1","1","1","1","1","1","1"
"250015","img/neutralC/CFD-WM-017-002-N.jpg","img/neutralC/CFD-AF-202-122-N.jpg","img/neutralC/CFD-LF-247-051-N.jpg","1","1","1","0","1","1","0.481909500027541","0.501418499974534","0.542225899989717","1","1","1","1","1","1","1","1","1"
"250015","img/neutralC/CFD-LF-247-051-N.jpg","img/neutralC/CFD-WM-017-002-N.jpg","img/neutralC/CFD-BM-212-117-N.jpg","1","1","1","1","0","0","0.542225899989717","0.481909500027541","0.563080699997954","1","1","1","1","1","1","1","1","1"
"250015","img/neutralC/CFD-BM-212-117-N.jpg","img/neutralC/CFD-LF-247-051-N.jpg","img/neutralC/CFD-LF-250-169-N.jpg","1","1","1","0","1","1","0.563080699997954","0.542225899989717","0.557761900010519","1","1","1","1","1","1","1","1","1"
"250015","img/neutralC/CFD-LF-250-169-N.jpg","img/neutralC/CFD-BM-212-117-N.jpg","img/neutralC/CFD-BF-010-001-N.jpg","1","1","1","1","0","1","0.557761900010519","0.563080699997954","0.450461399974302","1","1","1","1","1","1","1","1","1"
"250015","img/neutralC/CFD-BF-010-001-N.jpg","img/neutralC/CFD-LF-250-169-N.jpg","img/neutralC/CFD-LM-226-175-N.jpg","1","1","1","1","1","0","0.450461399974302","0.557761900010519","0.473962699994445","1","1","1","1","1","1","1","1","1"
"250015","img/neutralC/CFD-LM-226-175-N.jpg","img/neutralC/CFD-BF-010-001-N.jpg","img/neutralC/CFD-BF-238-190-N.jpg","1","1","1","0","1","1","0.473962699994445","0.450461399974302","0.441393900022376","1","1","1","1","1","1","1","1","1"
"250015","img/neutralC/CFD-BF-238-190-N.jpg","img/neutralC/CFD-LM-226-175-N.jpg","img/neutralC/CFD-LF-245-166-N.jpg","1","1","1","1","0","1","0.441393900022376","0.473962699994445","0.559770499996375","1","1","1","1","1","1","1","1","1"
"250015","img/neutralC/CFD-LF-245-166-N.jpg","img/neutralC/CFD-BF-238-190-N.jpg","img/neutralC/CFD-WM-227-099-N.jpg","1","1","1","1","1","1","0.559770499996375","0.441393900022376","0.470258100016508","1","1","1","1","1","1","1","1","1"
"250015","img/neutralC/CFD-WM-227-099-N.jpg","img/neutralC/CFD-LF-245-166-N.jpg","img/neutralC/CFD-WM-242-011-N.jpg","1","1","1","1","1","0","0.470258100016508","0.559770499996375","0.546575099986512","1","1","1","1","1","1","1","1","1"
"250015","img/neutralC/CFD-WM-242-011-N.jpg","img/neutralC/CFD-WM-227-099-N.jpg","img/neutralC/CFD-IF-665-015-N.jpg","1","1","1","0","1","0","0.546575099986512","0.470258100016508","0.398508100013714","1","1","1","1","1","1","1","1","1"
"250015","img/neutralC/CFD-IF-665-015-N.jpg","img/neutralC/CFD-WM-242-011-N.jpg","img/neutralC/CFD-IM-686-097-N.jpg","1","1","1","0","0","0","0.398508100013714","0.546575099986512","0.481001199979801","1","1","1","1","1","1","1","1","1"
"250015","img/neutralC/CFD-IM-686-097-N.jpg","img/neutralC/CFD-IF-665-015-N.jpg","img/neutralC/CFD-IM-638-250-1-N.jpg","1","1","1","0","0","1","0.481001199979801","0.398508100013714","0.514551200030837","1","1","1","1","1","1","1","1","1"
"250015","img/neutralC/CFD-IM-638-250-1-N.jpg","img/neutralC/CFD-IM-686-097-N.jpg","img/neutralC/CFD-IM-653-008-N.jpg","1","1","1","1","0","0","0.514551200030837","0.481001199979801","0.504651000024751","1","1","1","1","1","1","1","1","1"
"250015","img/neutralC/CFD-IM-653-008-N.jpg","img/neutralC/CFD-IM-638-250-1-N.jpg","img/neutralC/CFD-BM-018-001-N.jpg","1","1","1","0","1","1","0.504651000024751","0.514551200030837","0.509207600029185","1","1","1","1","1","1","1","1","1"
"250015","img/neutralC/CFD-BM-018-001-N.jpg","img/neutralC/CFD-IM-653-008-N.jpg","img/neutralC/CFD-LM-233-171-N.jpg","1","1","1","1","0","0","0.509207600029185","0.504651000024751","0.531439699989278","1","1","1","1","1","1","1","1","1"
"250015","img/neutralC/CFD-LM-233-171-N.jpg","img/neutralC/CFD-BM-018-001-N.jpg","img/neutralC/CFD-BM-231-155-N.jpg","1","1","1","0","1","1","0.531439699989278","0.509207600029185","0.520912599982694","1","1","1","1","1","1","1","1","1"
"250015","img/neutralC/CFD-BM-231-155-N.jpg","img/neutralC/CFD-LM-233-171-N.jpg","img/neutralC/CFD-WF-209-052-N.jpg","1","1","1","1","0","1","0.520912599982694","0.531439699989278","0.477483500028029","1","1","1","1","1","1","1","1","1"
"250015","img/neutralC/CFD-WF-209-052-N.jpg","img/neutralC/CFD-BM-231-155-N.jpg","img/neutralC/CFD-BM-026-002-N.jpg","1","1","1","1","1","0","0.477483500028029","0.520912599982694","0.463683200010564","1","1","1","1","1","1","1","1","1"
"250015","img/neutralC/CFD-BM-026-002-N.jpg","img/neutralC/CFD-WF-209-052-N.jpg","img/neutralC/CFD-WM-258-125-N.jpg","1","1","1","0","1","0","0.463683200010564","0.477483500028029","0.474782500008587","1","1","1","1","1","1","1","1","1"
"250015","img/neutralC/CFD-WM-258-125-N.jpg","img/neutralC/CFD-BM-026-002-N.jpg","img/neutralC/CFD-IF-620-218-N.jpg","1","1","1","0","0","0","0.474782500008587","0.463683200010564","0.645597799972165","1","1","1","1","1","1","1","1","1"
"250015","img/neutralC/CFD-IF-620-218-N.jpg","img/neutralC/CFD-WM-258-125-N.jpg","img/neutralC/CFD-LF-242-121-N.jpg","1","1","1","0","0","0","0.645597799972165","0.474782500008587","0.476478399999905","1","1","1","1","1","1","1","1","1"
"250015","img/neutralC/CFD-LF-242-121-N.jpg","img/neutralC/CFD-IF-620-218-N.jpg",NA,"1","1",NA,"0","0",NA,"0.476478399999905","0.645597799972165",NA,"1","1",NA,"1","1",NA,"1","1",NA
"250015","img/neutralC/CFD-WM-213-076-N.jpg",NA,"img/neutralC/CFD-AM-236-090-N.jpg","1",NA,"1","1",NA,"1","0.468469800020102",NA,"0.51312279998092","1",NA,"1","1",NA,"1","1",NA,"1"
"250015","img/neutralC/CFD-AM-236-090-N.jpg","img/neutralC/CFD-WM-213-076-N.jpg","img/neutralC/CFD-AF-229-160-N.jpg","1","1","1","1","1","0","0.51312279998092","0.468469800020102","0.449674400035292","1","1","1","1","1","1","1","1","1"
"250015","img/neutralC/CFD-AF-229-160-N.jpg","img/neutralC/CFD-AM-236-090-N.jpg","img/neutralC/CFD-WF-248-129-N.jpg","1","1","1","0","1","0","0.449674400035292","0.51312279998092","0.443406699982006","1","1","1","1","1","1","1","1","1"
"250015","img/neutralC/CFD-WF-248-129-N.jpg","img/neutralC/CFD-AF-229-160-N.jpg","img/neutralC/CFD-IM-685-004-N.jpg","1","1","1","0","0","1","0.443406699982006","0.449674400035292","0.490760400018189","1","1","1","1","1","1","1","1","1"
"250015","img/neutralC/CFD-IM-685-004-N.jpg","img/neutralC/CFD-WF-248-129-N.jpg","img/neutralC/CFD-IM-709-103-N.jpg","1","1","1","1","0","0","0.490760400018189","0.443406699982006","0.404305699979886","1","1","1","1","1","1","1","1","1"
"250015","img/neutralC/CFD-IM-709-103-N.jpg","img/neutralC/CFD-IM-685-004-N.jpg","img/neutralC/CFD-MM-304-002-N.jpg","1","1","1","0","1","1","0.404305699979886","0.490760400018189","0.554717599996366","1","1","1","1","1","1","1","1","1"
"250015","img/neutralC/CFD-MM-304-002-N.jpg","img/neutralC/CFD-IM-709-103-N.jpg","img/neutralC/CFD-AF-215-70-N.jpg","1","1","1","1","0","0","0.554717599996366","0.404305699979886","0.490372300031595","1","1","1","1","1","1","1","1","1"
"250015","img/neutralC/CFD-AF-215-70-N.jpg","img/neutralC/CFD-MM-304-002-N.jpg","img/neutralC/CFD-AF-254-167-N.jpg","1","1","1","0","1","1","0.490372300031595","0.554717599996366","0.497475299984217","1","1","1","1","1","1","1","1","1"
"250015","img/neutralC/CFD-AF-254-167-N.jpg","img/neutralC/CFD-AF-215-70-N.jpg","img/neutralC/CFD-WF-217-085-N.jpg","1","1","1","1","0","1","0.497475299984217","0.490372300031595","0.437552599993069","1","1","1","1","1","1","1","1","1"
"250015","img/neutralC/CFD-WF-217-085-N.jpg","img/neutralC/CFD-AF-254-167-N.jpg","img/neutralC/CFD-IM-675-015-N.jpg","1","1","1","1","1","1","0.437552599993069","0.497475299984217","0.505037099996116","1","1","1","1","1","1","1","1","1"
"250015","img/neutralC/CFD-IM-675-015-N.jpg","img/neutralC/CFD-WF-217-085-N.jpg","img/neutralC/CFD-LF-226-174-N.jpg","1","1","1","1","1","0","0.505037099996116","0.437552599993069","0.465135200007353","1","1","1","1","1","1","1","1","1"
"250015","img/neutralC/CFD-LF-226-174-N.jpg","img/neutralC/CFD-IM-675-015-N.jpg","img/neutralC/CFD-BM-039-029-N.jpg","1","1","1","0","1","1","0.465135200007353","0.505037099996116","0.46078550000675","1","1","1","1","1","1","1","1","1"
"250015","img/neutralC/CFD-BM-039-029-N.jpg","img/neutralC/CFD-LF-226-174-N.jpg","img/neutralC/CFD-IM-604-014-N.jpg","1","1","1","1","0","0","0.46078550000675","0.465135200007353","0.452847799984738","1","1","1","1","1","1","1","1","1"
"250015","img/neutralC/CFD-IM-604-014-N.jpg","img/neutralC/CFD-BM-039-029-N.jpg","img/neutralC/CFD-WF-212-050-N.jpg","1","1","1","0","1","0","0.452847799984738","0.46078550000675","0.44654850004008","1","1","1","1","1","1","1","1","1"
"250015","img/neutralC/CFD-WF-212-050-N.jpg","img/neutralC/CFD-IM-604-014-N.jpg","img/neutralC/CFD-MF-329-001-N.jpg","1","1","1","0","0","0","0.44654850004008","0.452847799984738","0.476937200000975","1","1","1","1","1","1","1","1","1"
"250015","img/neutralC/CFD-MF-329-001-N.jpg","img/neutralC/CFD-WF-212-050-N.jpg","img/neutralC/CFD-MF-327-002-N.jpg","1","1","1","0","0","0","0.476937200000975","0.44654850004008","0.52806529996451","1","1","1","1","1","1","1","1","1"
"250015","img/neutralC/CFD-MF-327-002-N.jpg","img/neutralC/CFD-MF-329-001-N.jpg","img/neutralC/CFD-BF-043-003-N.jpg","1","1","1","0","0","0","0.52806529996451","0.476937200000975","0.396668499975931","1","1","1","1","1","1","1","1","1"
"250015","img/neutralC/CFD-BF-043-003-N.jpg","img/neutralC/CFD-MF-327-002-N.jpg","img/neutralC/CFD-BF-051-035-N.jpg","1","1","1","0","0","0","0.396668499975931","0.52806529996451","0.433796199969947","1","1","1","1","1","1","1","1","1"
"250015","img/neutralC/CFD-BF-051-035-N.jpg","img/neutralC/CFD-BF-043-003-N.jpg","img/neutralC/CFD-MF-300-002-N.jpg","1","1","1","0","0","0","0.433796199969947","0.396668499975931","0.438045699964278","1","1","1","1","1","1","1","1","1"
"250015","img/neutralC/CFD-MF-300-002-N.jpg","img/neutralC/CFD-BF-051-035-N.jpg","img/neutralC/CFD-IM-637-007-N.jpg","1","1","1","0","0","0","0.438045699964278","0.433796199969947","0.497253699984867","1","1","1","1","1","1","1","1","1"
"250015","img/neutralC/CFD-IM-637-007-N.jpg","img/neutralC/CFD-MF-300-002-N.jpg","img/neutralC/CFD-BM-243-218-N.jpg","1","1","1","0","0","1","0.497253699984867","0.438045699964278","0.467121900001075","1","1","1","1","1","1","1","1","1"
"250015","img/neutralC/CFD-BM-243-218-N.jpg","img/neutralC/CFD-IM-637-007-N.jpg","img/neutralC/CFD-WF-008-002-N.jpg","1","1","1","1","0","1","0.467121900001075","0.497253699984867","0.509175499959383","1","1","1","1","1","1","1","1","1"
"250015","img/neutralC/CFD-WF-008-002-N.jpg","img/neutralC/CFD-BM-243-218-N.jpg","img/neutralC/CFD-WM-232-070-N.jpg","1","1","1","1","1","0","0.509175499959383","0.467121900001075","0.582357800041791","1","1","1","1","1","1","1","1","1"
"250015","img/neutralC/CFD-WM-232-070-N.jpg","img/neutralC/CFD-WF-008-002-N.jpg","img/neutralC/CFD-LM-217-162-N.jpg","1","1","1","0","1","0","0.582357800041791","0.509175499959383","0.705274100007955","1","1","1","1","1","1","1","1","1"
"250015","img/neutralC/CFD-LM-217-162-N.jpg","img/neutralC/CFD-WM-232-070-N.jpg","img/neutralC/CFD-MF-340-026-N.jpg","1","1","1","0","0","1","0.705274100007955","0.582357800041791","0.518585999961942","1","1","1","1","1","1","1","1","1"
"250015","img/neutralC/CFD-MF-340-026-N.jpg","img/neutralC/CFD-LM-217-162-N.jpg","img/neutralC/CFD-WM-024-015-N.jpg","1","1","1","1","0","1","0.518585999961942","0.705274100007955","0.506279100023676","1","1","1","1","1","1","1","1","1"
"250015","img/neutralC/CFD-WM-024-015-N.jpg","img/neutralC/CFD-MF-340-026-N.jpg","img/neutralC/CFD-LF-201-035-N.jpg","1","1","1","1","1","1","0.506279100023676","0.518585999961942","0.481132699991576","1","1","1","1","1","1","1","1","1"
"250015","img/neutralC/CFD-LF-201-035-N.jpg","img/neutralC/CFD-WM-024-015-N.jpg","img/neutralC/CFD-BF-224-002-N.jpg","1","1","1","1","1","1","0.481132699991576","0.506279100023676","0.489019400032703","1","1","1","1","1","1","1","1","1"
"250015","img/neutralC/CFD-BF-224-002-N.jpg","img/neutralC/CFD-LF-201-035-N.jpg","img/neutralC/CFD-WF-012-002-N.jpg","1","1","1","1","1","1","0.489019400032703","0.481132699991576","0.447278300009202","1","1","1","1","1","1","1","1","1"
"250015","img/neutralC/CFD-WF-012-002-N.jpg","img/neutralC/CFD-BF-224-002-N.jpg","img/neutralC/CFD-IF-608-390-N.jpg","1","1","1","1","1","1","0.447278300009202","0.489019400032703","0.372134200006258","1","1","1","1","1","1","1","1","1"
"250015","img/neutralC/CFD-IF-608-390-N.jpg","img/neutralC/CFD-WF-012-002-N.jpg","img/neutralC/CFD-IF-619-197-N.jpg","1","1","1","1","1","0","0.372134200006258","0.447278300009202","0.545023199985735","1","1","1","1","1","1","1","1","1"
"250015","img/neutralC/CFD-IF-619-197-N.jpg","img/neutralC/CFD-IF-608-390-N.jpg",NA,"1","1",NA,"0","1",NA,"0.545023199985735","0.372134200006258",NA,"1","1",NA,"1","1",NA,"1","1",NA
