"participant_id","face","surpAcc","memory_surp_responses","memory_surp_rt","keep_surp_memory_trial_based_on_rt","surp_block_num","exclude_block","number_of_surp_resp_items_used","num_blocks_excluded"
"250025","img/neutralC/CFD-AM-233-236-N.jpg","1","s","3.4546127999929",1,1,0,2,0
"250025","img/neutralC/CFD-BM-009-002-N.jpg","0","k","1.73510609999357",1,1,0,2,0
"250025","img/neutralC/CFD-IM-671-601-N.jpg","1","s","2.47810109998682",1,1,0,2,0
"250025","img/neutralC/CFD-WF-001-003-N.jpg","1","s","4.40307599998778",1,1,0,2,0
"250025","img/neutralC/CFD-MF-300-002-N.jpg","1","k","1.56634379999014",1,1,0,2,0
"250025","img/neutralC/CFD-MM-304-002-N.jpg","0","k","2.97961679998843",1,1,0,2,0
"250025","img/neutralC/CFD-BM-004-002-N.jpg","0","s","1.19035609999264",1,1,0,2,0
"250025","img/neutralC/CFD-IM-657-308-N.jpg","1","s","2.39379830000689",1,1,0,2,0
"250025","img/neutralC/CFD-WF-213-031-N.jpg","1","s","1.66250619999482",1,1,0,2,0
"250025","img/neutralC/CFD-WM-215-041-N.jpg","1","k","1.62509929998487",1,1,0,2,0
"250025","img/neutralC/CFD-WM-023-001-N.jpg","0","s","4.72631629998796",1,1,0,2,0
"250025","img/neutralC/CFD-WM-012-001-N.jpg","1","s","1.94774940000207",1,1,0,2,0
"250025","img/neutralC/CFD-BM-227-191-N.jpg","1","s","1.40867309999885",1,1,0,2,0
"250025","img/neutralC/CFD-WM-227-099-N.jpg","1","k","2.5773601999972",1,1,0,2,0
"250025","img/neutralC/CFD-IM-617-174-N.jpg","0","k","1.16215849999571",1,1,0,2,0
"250025","img/neutralC/CFD-WM-034-030-N.jpg","1","s","1.67830449999019",1,1,0,2,0
"250025","img/neutralC/CFD-IM-632-097-N.jpg","0","k","2.65454709999904",1,1,0,2,0
"250025","img/neutralC/CFD-MF-307-002-N.jpg","0","k","1.66802339999413",1,1,0,2,0
"250025","img/neutralC/CFD-LF-204-133-N.jpg","1","s","1.82501149999734",1,1,0,2,0
"250025","img/neutralC/CFD-AF-253-130-N.jpg","1","k","3.12266919999092",1,1,0,2,0
"250025","img/neutralC/CFD-BM-020-001-N.jpg","1","s","2.3829393999913",1,1,0,2,0
"250025","img/neutralC/CFD-WM-028-003-N.jpg","1","k","2.27752379998856",1,1,0,2,0
"250025","img/neutralC/CFD-AM-219-101-N.jpg","1","k","2.82535539999662",1,1,0,2,0
"250025","img/neutralC/CFD-WF-234-086-N.jpg","0","s","1.62608180000097",1,1,0,2,0
"250025","img/neutralC/CFD-AF-246-242-N.jpg","0","s","3.22357699999702",1,1,0,2,0
"250025","img/neutralC/CFD-WM-004-010-N.jpg","0","k","1.35814769999706",1,1,0,2,0
"250025","img/neutralC/CFD-WM-033-025-N.jpg","0","k","2.536128799984",1,1,0,2,0
"250025","img/neutralC/CFD-IF-660-464-N.jpg","1","k","3.62555939999584",1,1,0,2,0
"250025","img/neutralC/CFD-WF-030-002-N.jpg","1","s","1.74037289999251",1,1,0,2,0
"250025","img/neutralC/CFD-BF-205-141-N.jpg","0","k","1.73369849998562",1,1,0,2,0
"250025","img/neutralC/CFD-BM-238-242-N.jpg","0","s","2.24337849998847",1,1,0,2,0
"250025","img/neutralC/CFD-WM-020-001-N.jpg","1","s","3.3808713999897",1,1,0,2,0
"250025","img/neutralC/CFD-LF-245-166-N.jpg","0","s","2.78039279999211",1,1,0,2,0
"250025","img/neutralC/CFD-IF-744-114-N.jpg","1","s","1.34569309999642",1,1,0,2,0
"250025","img/neutralC/CFD-WF-244-163-N.jpg","0","k","1.40894280000066",1,1,0,2,0
"250025","img/neutralC/CFD-WF-233-112-N.jpg","1","k","2.16237759999058",1,1,0,2,0
"250025","img/neutralC/CFD-BM-213-134-N.jpg","0","s","2.06020300000091",1,1,0,2,0
"250025","img/neutralC/CFD-LM-247-095-N.jpg","1","s","1.5107399999979",1,1,0,2,0
"250025","img/neutralC/CFD-BM-239-136-N.jpg","0","k","1.65062999998918",1,1,0,2,0
"250025","img/neutralC/CFD-WM-212-097-N.jpg","0","s","2.98997870000312",1,1,0,2,0
"250025","img/neutralC/CFD-IM-674-281-N.jpg","0","k","1.21895110000332",1,1,0,2,0
"250025","img/neutralC/CFD-BM-253-004-N.jpg","0","k","2.02326760000142",1,1,0,2,0
"250025","img/neutralC/CFD-BF-012-001-N.jpg","0","k","1.25282400001015",1,1,0,2,0
"250025","img/neutralC/CFD-WF-250-167-N.jpg","0","k","1.26684959999693",1,1,0,2,0
"250025","img/neutralC/CFD-MF-305-014-N.jpg","1","k","1.33128399999987",1,1,0,2,0
"250025","img/neutralC/CFD-LF-225-164-N.jpg","1","k","4.87129399999685",1,1,0,2,0
"250025","img/neutralC/CFD-IM-707-105-N.jpg","1","k","1.3600410999934",1,1,0,2,0
"250025","img/neutralC/CFD-IM-700-009-N.jpg","0","s","1.45865030000277",1,1,0,2,0
"250025","img/neutralC/CFD-IM-664-651-N.jpg","1","k","3.49778589999187",1,2,0,2,0
"250025","img/neutralC/CFD-LF-224-176-N.jpg","0","k","1.13822809999692",1,2,0,2,0
"250025","img/neutralC/CFD-WF-200-099-N.jpg","0","k","3.08311569999205",1,2,0,2,0
"250025","img/neutralC/CFD-BF-218-207-N.jpg","1","s","1.64888370000699",1,2,0,2,0
"250025","img/neutralC/CFD-LM-213-061-N.jpg","1","k","4.82644949998939",1,2,0,2,0
"250025","img/neutralC/CFD-BM-003-003-N.jpg","0","s","1.65284650000103",1,2,0,2,0
"250025","img/neutralC/CFD-IF-634-382-N.jpg","1","k","3.20459159999155",1,2,0,2,0
"250025","img/neutralC/CFD-WF-023-003-N.jpg","0","s","0.679739099985454",1,2,0,2,0
"250025","img/neutralC/CFD-BM-207-024-N.jpg","1","s","2.55316749999474",1,2,0,2,0
"250025","img/neutralC/CFD-WM-219-008-N.jpg","1","s","2.42808319999313",1,2,0,2,0
"250025","img/neutralC/CFD-BF-043-003-N.jpg","0","s","1.41231349999725",1,2,0,2,0
"250025","img/neutralC/CFD-IM-627-178-N.jpg","1","s","3.19454409999889",1,2,0,2,0
"250025","img/neutralC/CFD-IF-665-015-N.jpg","1","k","1.5970665999921",1,2,0,2,0
"250025","img/neutralC/CFD-BM-023-029-N.jpg","0","k","1.34694509999827",1,2,0,2,0
"250025","img/neutralC/CFD-WM-015-002-N.jpg","0","s","1.6040542999981",1,2,0,2,0
"250025","img/neutralC/CFD-BF-044-034-N.jpg","0","k","2.14755299998797",1,2,0,2,0
"250025","img/neutralC/CFD-BM-217-082-N.jpg","0","k","1.19363229999726",1,2,0,2,0
"250025","img/neutralC/CFD-WM-248-036-N.jpg","0","k","1.30590479999955",1,2,0,2,0
"250025","img/neutralC/CFD-BM-015-015-N.jpg","0","s","1.37098520000291",1,2,0,2,0
"250025","img/neutralC/CFD-WM-017-002-N.jpg","0","k","2.29129200000898",1,2,0,2,0
"250025","img/neutralC/CFD-IM-669-111-N.jpg","0","s","1.73771259999194",1,2,0,2,0
"250025","img/neutralC/CFD-IF-710-016-N.jpg","0","k","1.60144099999161",1,2,0,2,0
"250025","img/neutralC/CFD-WF-033-002-N.jpg","1","k","1.86223999998765",1,2,0,2,0
"250025","img/neutralC/CFD-WF-208-068-N.jpg","1","s","2.38433479999367",1,2,0,2,0
"250025","img/neutralC/CFD-IM-651-308-N.jpg","0","k","2.50737649998337",1,2,0,2,0
"250025","img/neutralC/CFD-LM-241-125-N.jpg","0","s","0.995226700004423",1,2,0,2,0
"250025","img/neutralC/CFD-MF-321-003-N.jpg","1","s","2.16653029998997",1,2,0,2,0
"250025","img/neutralC/CFD-MM-319-052-N.jpg","1","k","1.36550049998914",1,2,0,2,0
"250025","img/neutralC/CFD-LM-237-264-N.jpg","0","k","2.09958009999536",1,2,0,2,0
"250025","img/neutralC/CFD-IM-689-263-N.jpg","1","k","2.43857379999827",1,2,0,2,0
"250025","img/neutralC/CFD-WM-009-002-N.jpg","0","k","4.55072610000207",1,2,0,2,0
"250025","img/neutralC/CFD-AF-239-171-N.jpg","1","s","2.85567289999744",1,2,0,2,0
"250025","img/neutralC/CFD-WF-240-083-N.jpg","0","k","3.78605850000167",1,2,0,2,0
"250025","img/neutralC/CFD-IF-693-172-N.jpg","0","k","1.73558530000446",1,2,0,2,0
"250025","img/neutralC/CFD-BM-036-003-N.jpg","0","k","3.49549669999396",1,2,0,2,0
"250025","img/neutralC/CFD-AM-211-052-N.jpg","0","k","2.57641299998795",1,2,0,2,0
"250025","img/neutralC/CFD-WM-242-011-N.jpg","0","k","1.50628790000337",1,2,0,2,0
"250025","img/neutralC/CFD-AF-250-200-N.jpg","0","s","1.08153039998433",1,2,0,2,0
"250025","img/neutralC/CFD-MF-313-002-N.jpg","0","s","1.72138429999177",1,2,0,2,0
"250025","img/neutralC/CFD-IM-667-369-N.jpg","0","s","4.91339319999679",1,2,0,2,0
"250025","img/neutralC/CFD-IF-672-305-N.jpg","0","k","4.00705010000092",1,2,0,2,0
"250025","img/neutralC/CFD-WM-019-003-N.jpg","0","s","1.56434019998414",1,2,0,2,0
"250025","img/neutralC/CFD-BF-051-035-N.jpg","1","s","1.77613459998975",1,2,0,2,0
"250025","img/neutralC/CFD-MM-306-010-N.jpg","1","k","1.54015639999125",1,2,0,2,0
"250025","img/neutralC/CFD-IF-718-001-N.jpg","1","k","1.34963609999977",1,2,0,2,0
"250025","img/neutralC/CFD-BM-030-003-N.jpg","0","s","1.4932884999871",1,2,0,2,0
"250025","img/neutralC/CFD-WM-228-065-N.jpg","0","k","0.998551900003804",1,2,0,2,0
"250025","img/neutralC/CFD-BM-026-002-N.jpg","1","k","1.43577270000242",1,2,0,2,0
"250025","img/neutralC/CFD-WF-008-002-N.jpg","1","s","2.56764540000586",1,3,0,2,0
"250025","img/neutralC/CFD-BF-038-037-N.jpg","0","s","1.50348349999695",1,3,0,2,0
"250025","img/neutralC/CFD-BF-025-002-N.jpg","1","k","1.27961789999972",1,3,0,2,0
"250025","img/neutralC/CFD-BF-045-003-N.jpg","1","k","2.66818639999838",1,3,0,2,0
"250025","img/neutralC/CFD-LM-217-162-N.jpg","1","s","2.08985959998972",1,3,0,2,0
"250025","img/neutralC/CFD-WM-255-219-N.jpg","1","k","2.15687780000735",1,3,0,2,0
"250025","img/neutralC/CFD-BF-003-003-N.jpg","1","s","2.24684669999988",1,3,0,2,0
"250025","img/neutralC/CFD-WF-036-023-N.jpg","1","k","1.88873129998683",1,3,0,2,0
"250025","img/neutralC/CFD-AF-244-168-N.jpg","1","k","2.53772329998901",1,3,0,2,0
"250025","img/neutralC/CFD-AM-212-050-N.jpg","0","s","1.02193319999787",1,3,0,2,0
"250025","img/neutralC/CFD-BF-018-039-N.jpg","1","s","0.94369819998974",1,3,0,2,0
"250025","img/neutralC/CFD-IF-677-452-1-N.jpg","1","s","3.15090299998701",1,3,0,2,0
"250025","img/neutralC/CFD-AF-227-207-N.jpg","0","k","1.53321930000675",1,3,0,2,0
"250025","img/neutralC/CFD-WM-258-125-N.jpg","1","k","1.71604329999536",1,3,0,2,0
"250025","img/neutralC/CFD-IM-639-263-N.jpg","1","k","1.46152529999381",1,3,0,2,0
"250025","img/neutralC/CFD-LM-204-001-N.jpg","0","k","0.757341599994106",1,3,0,2,0
"250025","img/neutralC/CFD-IM-680-369-N.jpg","0","s","0.501835500006564",1,3,0,2,0
"250025","img/neutralC/CFD-AM-251-124-N.jpg","1","k","1.05187959999603",1,3,0,2,0
"250025","img/neutralC/CFD-AF-232-078-N.jpg","0","k","1.40989119998994",1,3,0,2,0
"250025","img/neutralC/CFD-LF-206-078-N.jpg","1","k","1.9629724999977",1,3,0,2,0
"250025","img/neutralC/CFD-BM-251-013-N.jpg","1","k","1.50529839999217",1,3,0,2,0
"250025","img/neutralC/CFD-IM-701-312-N.jpg","1","s","1.92837400001008",1,3,0,2,0
"250025","img/neutralC/CFD-BF-027-002-N.jpg","1","s","2.46934250000049",1,3,0,2,0
"250025","img/neutralC/CFD-WM-213-076-N.jpg","0","s","3.86496610000904",1,3,0,2,0
"250025","img/neutralC/CFD-WM-038-003-N.jpg","1","s","2.35320499999216",1,3,0,2,0
"250025","img/neutralC/CFD-WM-014-002-N.jpg","1","k","2.87889389999327",1,3,0,2,0
"250025","img/neutralC/CFD-AM-242-176-N.jpg","0","k","2.66304189999937",1,3,0,2,0
"250025","img/neutralC/CFD-BF-004-014-N.jpg","1","s","2.27566630000365",1,3,0,2,0
"250025","img/neutralC/CFD-BF-033-028-N.jpg","1","k","1.21083679998992",1,3,0,2,0
"250025","img/neutralC/CFD-BM-039-029-N.jpg","1","k","2.89100419999158",1,3,0,2,0
"250025","img/neutralC/CFD-MM-316-156-N.jpg","0","k","1.85663969999587",1,3,0,2,0
"250025","img/neutralC/CFD-BF-238-190-N.jpg","1","k","1.2461965999828",1,3,0,2,0
"250025","img/neutralC/CFD-WF-026-002-N.jpg","1","s","0.832668299990473",1,3,0,2,0
"250025","img/neutralC/CFD-BM-005-003-N.jpg","1","k","1.12034400000994",1,3,0,2,0
"250025","img/neutralC/CFD-IM-659-359-N.jpg","1","s","1.78573699999833",1,3,0,2,0
"250025","img/neutralC/CFD-WM-209-038-N.jpg","1","k","5.60888970000087",1,3,0,2,0
"250025","img/neutralC/CFD-AM-225-102-N.jpg","0","k","2.40860070000053",1,3,0,2,0
"250025","img/neutralC/CFD-WM-202-107-N.jpg","1","s","2.43514899999718",1,3,0,2,0
"250025","img/neutralC/CFD-MM-321-021-N.jpg","0","k","1.51511899998877",1,3,0,2,0
"250025","img/neutralC/CFD-LF-241-188-N.jpg","1","s","1.02462649998779",1,3,0,2,0
"250025","img/neutralC/CFD-BF-255-140-N.jpg","1","k","1.39436939998996",1,3,0,2,0
"250025","img/neutralC/CFD-LF-255-088-N.jpg","1","s","1.95034779999696",1,3,0,2,0
"250025","img/neutralC/CFD-WM-254-152-N.jpg","1","k","1.44714489999751",1,3,0,2,0
"250025","img/neutralC/CFD-BF-208-266-N.jpg","1","k","1.16587619998609",1,3,0,2,0
"250025","img/neutralC/CFD-IF-673-389-N.jpg","0","k","1.47167290000652",1,3,0,2,0
"250025","img/neutralC/CFD-IM-738-191-N.jpg","0","k","0.999245300001348",1,3,0,2,0
"250025","img/neutralC/CFD-LM-216-082-N.jpg","0","k","1.45498249999946",1,3,0,2,0
"250025","img/neutralC/CFD-AF-213-126-N.jpg","0","s","1.95014570000058",1,3,0,2,0
"250025","img/neutralC/CFD-WF-238-023-N.jpg","1","s","5.33303799999703",1,4,0,2,0
"250025","img/neutralC/CFD-AF-215-70-N.jpg","1","k","1.78119370000786",1,4,0,2,0
"250025","img/neutralC/CFD-LF-208-127-N.jpg","0","k","1.28985990000365",1,4,0,2,0
"250025","img/neutralC/CFD-BF-212-315-N.jpg","0","s","0.925458499987144",1,4,0,2,0
"250025","img/neutralC/CFD-LM-200-045-N.jpg","0","s","1.38421119999839",1,4,0,2,0
"250025","img/neutralC/CFD-AM-235-241-N.jpg","0","k","1.67452830000548",1,4,0,2,0
"250025","img/neutralC/CFD-BM-247-240-N.jpg","0","k","2.12243059999309",1,4,0,2,0
"250025","img/neutralC/CFD-WM-006-002-N.jpg","0","s","1.72521689999849",1,4,0,2,0
"250025","img/neutralC/CFD-MF-301-024-N.jpg","0","s","1.74766329998965",1,4,0,2,0
"250025","img/neutralC/CFD-WM-253-119-N.jpg","1","k","1.36106979999749",1,4,0,2,0
"250025","img/neutralC/CFD-LF-214-090-N.jpg","1","s","1.38113530000555",1,4,0,2,0
"250025","img/neutralC/CFD-LM-238-129-N.jpg","0","s","1.31015020000632",1,4,0,2,0
"250025","img/neutralC/CFD-AM-247-165-N.jpg","0","s","2.98824199999217",1,4,0,2,0
"250025","img/neutralC/CFD-BF-232-187-N.jpg","0","k","5.43958849999763",1,4,0,2,0
"250025","img/neutralC/CFD-BF-020-002-N.jpg","1","s","3.34329960000468",1,4,0,2,0
"250025","img/neutralC/CFD-WM-024-015-N.jpg","1","k","3.25829910000903",1,4,0,2,0
"250025","img/neutralC/CFD-BF-002-001-N.jpg","1","s","1.85627400000521",1,4,0,2,0
"250025","img/neutralC/CFD-WM-018-002-N.jpg","1","k","3.77806700000656",1,4,0,2,0
"250025","img/neutralC/CFD-MF-309-002-N.jpg","0","k","1.3022956999921",1,4,0,2,0
"250025","img/neutralC/CFD-WF-226-095-N.jpg","1","s","1.04736609999964",1,4,0,2,0
"250025","img/neutralC/CFD-MF-335-002-N.jpg","1","s","2.04016749998846",1,4,0,2,0
"250025","img/neutralC/CFD-IM-703-182-N.jpg","1","k","1.44156010000734",1,4,0,2,0
"250025","img/neutralC/CFD-BF-226-119-N.jpg","1","s","1.22031859999697",1,4,0,2,0
"250025","img/neutralC/CFD-LM-219-295-N.jpg","0","k","1.41477119999763",1,4,0,2,0
"250025","img/neutralC/CFD-LF-222-147-N.jpg","1","k","0.985044999993988",1,4,0,2,0
"250025","img/neutralC/CFD-LM-226-175-N.jpg","1","s","1.15940729998692",1,4,0,2,0
"250025","img/neutralC/CFD-BM-001-014-N.jpg","0","k","0.698828399996273",1,4,0,2,0
"250025","img/neutralC/CFD-MF-318-022-N.jpg","1","s","0.964068900007987",1,4,0,2,0
"250025","img/neutralC/CFD-WF-235-121-N.jpg","0","s","0.875613800002611",1,4,0,2,0
"250025","img/neutralC/CFD-BF-039-031-N.jpg","0","k","0.728183300001547",1,4,0,2,0
"250025","img/neutralC/CFD-AF-221-147-N.jpg","0","s","0.924329699992086",1,4,0,2,0
"250025","img/neutralC/CFD-LM-243-075-N.jpg","0","s","0.833664499994484",1,4,0,2,0
"250025","img/neutralC/CFD-AM-245-111-N.jpg","1","k","1.29787189999479",1,4,0,2,0
"250025","img/neutralC/CFD-BF-010-001-N.jpg","0","s","0.689308700006222",1,4,0,2,0
"250025","img/neutralC/CFD-WF-007-001-N.jpg","0","k","1.16149290000612",1,4,0,2,0
"250025","img/neutralC/CFD-WF-006-002-N.jpg","0","s","1.30761319999874",1,4,0,2,0
"250025","img/neutralC/CFD-IM-696-001-N.jpg","1","k","1.21585969999433",1,4,0,2,0
"250025","img/neutralC/CFD-LF-212-066-N.jpg","1","k","2.33082539998577",1,4,0,2,0
"250025","img/neutralC/CFD-AM-230-150-N.jpg","0","k","2.65973939999822",1,4,0,2,0
"250025","img/neutralC/CFD-AF-237-223-N.jpg","0","s","3.04760229999374",1,4,0,2,0
"250025","img/neutralC/CFD-BF-028-001-N.jpg","1","s","2.14976649999153",1,4,0,2,0
"250025","img/neutralC/CFD-BM-013-002-N.jpg","0","s","1.42585220000183",1,4,0,2,0
"250025","img/neutralC/CFD-LM-218-183-N.jpg","1","s","2.7012917999964",1,4,0,2,0
"250025","img/neutralC/CFD-AF-229-160-N.jpg","1","s","1.98454240000865",1,4,0,2,0
"250025","img/neutralC/CFD-IM-675-015-N.jpg","1","k","1.24405660000048",1,4,0,2,0
"250025","img/neutralC/CFD-BM-250-170-N.jpg","0","k","2.0189393999899",1,4,0,2,0
"250025","img/neutralC/CFD-BM-018-001-N.jpg","1","k","1.41064299999562",1,4,0,2,0
"250025","img/neutralC/CFD-WF-209-052-N.jpg","0","k","1.30535070000042",1,4,0,2,0
"250025","img/neutralC/CFD-BF-014-002-N.jpg","1","k","2.5006463000027",1,5,0,2,0
"250025","img/neutralC/CFD-BM-027-001-N.jpg","0","s","0.94948409999779",1,5,0,2,0
"250025","img/neutralC/CFD-IM-743-006-N.jpg","1","k","0.78616149998561",1,5,0,2,0
"250025","img/neutralC/CFD-BF-041-001-N.jpg","1","s","0.731804600000032",1,5,0,2,0
"250025","img/neutralC/CFD-AM-236-090-N.jpg","0","k","0.852983899996616",1,5,0,2,0
"250025","img/neutralC/CFD-BF-201-080-N.jpg","1","k","1.04470759999822",1,5,0,2,0
"250025","img/neutralC/CFD-BF-217-189-N.jpg","1","k","0.75373430000036",1,5,0,2,0
"250025","img/neutralC/CFD-IM-638-250-1-N.jpg","0","s","0.800456199998735",1,5,0,2,0
"250025","img/neutralC/CFD-MF-336-016-N.jpg","1","s","0.986124299990479",1,5,0,2,0
"250025","img/neutralC/CFD-BF-236-177-N.jpg","0","s","1.64347719999205",1,5,0,2,0
"250025","img/neutralC/CFD-WM-021-001-N.jpg","0","k","0.850988199992571",1,5,0,2,0
"250025","img/neutralC/CFD-AF-205-155-N.jpg","0","k","0.691822699998738",1,5,0,2,0
"250025","img/neutralC/CFD-WF-224-099-N.jpg","1","k","1.50557229999686",1,5,0,2,0
"250025","img/neutralC/CFD-BF-207-004-N.jpg","1","s","0.724695999990217",1,5,0,2,0
"250025","img/neutralC/CFD-BF-202-109-N.jpg","1","k","0.926216299994849",1,5,0,2,0
"250025","img/neutralC/CFD-LF-242-121-N.jpg","0","k","1.56917329999851",1,5,0,2,0
"250025","img/neutralC/CFD-BM-010-003-N.jpg","0","k","3.59941539999272",1,5,0,2,0
"250025","img/neutralC/CFD-IF-625-225-N.jpg","0","k","1.66937930000131",1,5,0,2,0
"250025","img/neutralC/CFD-AF-240-206-N.jpg","1","s","1.96275039999455",1,5,0,2,0
"250025","img/neutralC/CFD-WM-225-127-N.jpg","0","k","1.24351729999762",1,5,0,2,0
"250025","img/neutralC/CFD-BM-029-024-N.jpg","0","k","1.18336429999908",1,5,0,2,0
"250025","img/neutralC/CFD-AF-254-167-N.jpg","1","s","1.4888171999919",1,5,0,2,0
"250025","img/neutralC/CFD-BF-237-172-N.jpg","1","s","1.12519949999114",1,5,0,2,0
"250025","img/neutralC/CFD-LF-203-066-N.jpg","1","s","2.2487914999947",1,5,0,2,0
"250025","img/neutralC/CFD-WF-207-014-N.jpg","1","k","1.93192999999155",1,5,0,2,0
"250025","img/neutralC/CFD-WF-245-084-N.jpg","1","k","1.61062479999964",1,5,0,2,0
"250025","img/neutralC/CFD-WF-029-002-N.jpg","0","k","1.21087359999365",1,5,0,2,0
"250025","img/neutralC/CFD-WF-002-004-N.jpg","0","s","1.09250220000104",1,5,0,2,0
"250025","img/neutralC/CFD-MF-340-026-N.jpg","1","s","1.73908510000911",1,5,0,2,0
"250025","img/neutralC/CFD-LF-211-003-N.jpg","0","s","0.598796899997978",1,5,0,2,0
"250025","img/neutralC/CFD-LF-239-148-N.jpg","0","s","0.57126659998903",1,5,0,2,0
"250025","img/neutralC/CFD-AM-220-134-N.jpg","0","k","0.795197400002507",1,5,0,2,0
"250025","img/neutralC/CFD-MF-328-020-N.jpg","1","s","0.790382999999565",1,5,0,2,0
"250025","img/neutralC/CFD-IM-635-010-N.jpg","0","k","1.59563609999896",1,5,0,2,0
"250025","img/neutralC/CFD-WF-027-003-N.jpg","0","s","1.91700760000094",1,5,0,2,0
"250025","img/neutralC/CFD-WF-243-148-N.jpg","1","k","1.41229869998642",1,5,0,2,0
"250025","img/neutralC/CFD-WF-221-005-N.jpg","0","k","1.98916889999236",1,5,0,2,0
"250025","img/neutralC/CFD-IM-606-008-N.jpg","0","s","1.12145449999662",1,5,0,2,0
"250025","img/neutralC/CFD-AF-233-190-N.jpg","1","s","2.03428589999385",1,5,0,2,0
"250025","img/neutralC/CFD-AM-221-184-N.jpg","0","s","1.1957429000031",1,5,0,2,0
"250025","img/neutralC/CFD-IF-642-295-N.jpg","0","s","1.25720239999646",1,5,0,2,0
"250025","img/neutralC/CFD-LM-244-068-N.jpg","0","s","1.5586384999915",1,5,0,2,0
"250025","img/neutralC/CFD-LM-252-076-N.jpg","0","s","0.924586499997531",1,5,0,2,0
"250025","img/neutralC/CFD-WM-249-239-N.jpg","0","k","1.01891879999312",1,5,0,2,0
"250025","img/neutralC/CFD-WF-005-010-N.jpg","0","s","2.10130270000082",1,5,0,2,0
"250025","img/neutralC/CFD-IM-684-008-N.jpg","1","s","1.29292249999708",1,5,0,2,0
"250025","img/neutralC/CFD-WM-221-091-N.jpg","1","k","1.37998369999696",1,5,0,2,0
"250025","img/neutralC/CFD-WF-228-196-N.jpg","0","k","1.07294179999735",1,5,0,2,0
"250025","img/neutralC/CFD-IM-615-167-N.jpg","1","k","1.42058189999079",1,6,0,2,0
"250025","img/neutralC/CFD-LM-233-171-N.jpg","0","s","0.772952999992413",1,6,0,2,0
"250025","img/neutralC/CFD-WF-241-210-N.jpg","0","k","1.40015249999124",1,6,0,2,0
"250025","img/neutralC/CFD-LF-238-154-N.jpg","0","k","1.48361969999678",1,6,0,2,0
"250025","img/neutralC/CFD-IM-646-023-N.jpg","1","k","1.40070299999206",1,6,0,2,0
"250025","img/neutralC/CFD-IM-719-221-N.jpg","0","s","1.14029999999912",1,6,0,2,0
"250025","img/neutralC/CFD-WF-018-017-N.jpg","0","s","1.71434289999888",1,6,0,2,0
"250025","img/neutralC/CFD-BM-215-155-N.jpg","1","s","1.46789719999651",1,6,0,2,0
"250025","img/neutralC/CFD-AM-244-222-N.jpg","0","s","1.28364140000485",1,6,0,2,0
"250025","img/neutralC/CFD-AF-202-122-N.jpg","1","s","1.67511079998803",1,6,0,2,0
"250025","img/neutralC/CFD-WF-222-092-N.jpg","0","k","1.34944769999129",1,6,0,2,0
"250025","img/neutralC/CFD-LF-230-203-N.jpg","0","s","2.53520240000216",1,6,0,2,0
"250025","img/neutralC/CFD-IF-620-218-N.jpg","0","s","0.981013299999176",1,6,0,2,0
"250025","img/neutralC/CFD-IF-629-234-N.jpg","1","s","1.20209569999133",1,6,0,2,0
"250025","img/neutralC/CFD-WF-223-133-N.jpg","0","s","1.78088720000233",1,6,0,2,0
"250025","img/neutralC/CFD-LM-215-247-N.jpg","0","s","1.58710710000014",1,6,0,2,0
"250025","img/neutralC/CFD-BM-243-218-N.jpg","1","s","1.46817160000501",1,6,0,2,0
"250025","img/neutralC/CFD-MF-343-001-N.jpg","1","k","1.20236559999466",1,6,0,2,0
"250025","img/neutralC/CFD-LF-218-072-N.jpg","0","s","0.70182560000103",1,6,0,2,0
"250025","img/neutralC/CFD-WM-002-009-N.jpg","0","k","0.705779099997017",1,6,0,2,0
"250025","img/neutralC/CFD-LM-214-165-N.jpg","1","s","1.52353399999265",1,6,0,2,0
"250025","img/neutralC/CFD-IM-702-101-N.jpg","0","k","1.52020559999801",1,6,0,2,0
"250025","img/neutralC/CFD-LF-210-220-N.jpg","0","s","1.49495749999187",1,6,0,2,0
"250025","img/neutralC/CFD-WM-237-052-N.jpg","0","s","1.51256989999092",1,6,0,2,0
"250025","img/neutralC/CFD-MF-337-026-N.jpg","0","k","2.6201252000028",1,6,0,2,0
"250025","img/neutralC/CFD-LF-236-221-N.jpg","1","s","2.56619209999917",1,6,0,2,0
"250025","img/neutralC/CFD-BM-019-002-N.jpg","1","k","1.70821230000001",1,6,0,2,0
"250025","img/neutralC/CFD-BM-241-235-N.jpg","1","s","1.68649399999413",1,6,0,2,0
"250025","img/neutralC/CFD-IM-637-007-N.jpg","1","k","1.8244171999977",1,6,0,2,0
"250025","img/neutralC/CFD-BF-006-017-N.jpg","1","s","1.24519349998445",1,6,0,2,0
"250025","img/neutralC/CFD-IF-608-390-N.jpg","0","k","3.49285300000338",1,6,0,2,0
"250025","img/neutralC/CFD-LF-250-169-N.jpg","0","s","1.58565049999743",1,6,0,2,0
"250025","img/neutralC/CFD-BM-225-154-N.jpg","1","k","1.09433290000015",1,6,0,2,0
"250025","img/neutralC/CFD-IM-616-214-N.jpg","0","s","1.63806509999267",1,6,0,2,0
"250025","img/neutralC/CFD-LF-247-051-N.jpg","1","s","2.8044716000004",1,6,0,2,0
"250025","img/neutralC/CFD-IM-697-015-N.jpg","0","k","1.85383839999849",1,6,0,2,0
"250025","img/neutralC/CFD-BF-042-026-N.jpg","0","s","1.73419270000886",1,6,0,2,0
"250025","img/neutralC/CFD-WM-041-021-N.jpg","0","k","2.15563969999494",1,6,0,2,0
"250025","img/neutralC/CFD-BF-222-240-N.jpg","1","k","1.52674459999253",1,6,0,2,0
"250025","img/neutralC/CFD-AF-206-079-N.jpg","0","s","2.67971579999721",1,6,0,2,0
"250025","img/neutralC/CFD-BF-253-202-N.jpg","1","k","1.33132339999429",1,6,0,2,0
"250025","img/neutralC/CFD-MF-302-027-N.jpg","0","s","0.916619000010542",1,6,0,2,0
"250025","img/neutralC/CFD-BF-254-201-N.jpg","1","s","4.00670709999395",1,6,0,2,0
"250025","img/neutralC/CFD-IF-676-017-N.jpg","0","k","1.33640239998931",1,6,0,2,0
"250025","img/neutralC/CFD-IM-604-014-N.jpg","1","k","2.13823709999269",1,6,0,2,0
"250025","img/neutralC/CFD-BF-214-308-N.jpg","1","s","1.33939169999212",1,6,0,2,0
"250025","img/neutralC/CFD-BM-021-021-N.jpg","1","k","1.41955999999482",1,6,0,2,0
"250025","img/neutralC/CFD-LM-253-075-N.jpg","1","s","1.81631320000452",1,6,0,2,0
"250025","img/neutralC/CFD-IM-721-341-N.jpg","0","s","2.98422919999575",1,7,0,2,0
"250025","img/neutralC/CFD-LF-226-174-N.jpg","1","k","0.960316700002295",1,7,0,2,0
"250025","img/neutralC/CFD-IF-742-103-N.jpg","0","k","0.851343500005896",1,7,0,2,0
"250025","img/neutralC/CFD-AM-249-163-N.jpg","0","s","0.989898900006665",1,7,0,2,0
"250025","img/neutralC/CFD-IF-650-315-N.jpg","1","k","0.868220899996231",1,7,0,2,0
"250025","img/neutralC/CFD-WM-232-070-N.jpg","0","s","0.803290600000764",1,7,0,2,0
"250025","img/neutralC/CFD-WM-257-161-N.jpg","0","k","0.566150200000266",1,7,0,2,0
"250025","img/neutralC/CFD-IM-706-002-N.jpg","1","k","0.67597919999389",1,7,0,2,0
"250025","img/neutralC/CFD-BM-204-003-N.jpg","0","s","0.54652889999852",1,7,0,2,0
"250025","img/neutralC/CFD-IM-709-103-N.jpg","1","k","2.53465719999804",1,7,0,2,0
"250025","img/neutralC/CFD-WF-210-086-N.jpg","0","s","1.28294710000046",1,7,0,2,0
"250025","img/neutralC/CFD-IM-685-004-N.jpg","0","s","0.790828600001987",1,7,0,2,0
"250025","img/neutralC/CFD-LF-205-100-N.jpg","1","k","1.2856608999864",1,7,0,2,0
"250025","img/neutralC/CFD-BM-033-003-N.jpg","0","s","0.9027017000044",1,7,0,2,0
"250025","img/neutralC/CFD-LM-225-130-N.jpg","0","s","1.20089179999195",1,7,0,2,0
"250025","img/neutralC/CFD-BF-206-143-N.jpg","1","s","0.870708999995259",1,7,0,2,0
"250025","img/neutralC/CFD-MF-329-001-N.jpg","0","s","1.6146402000013",1,7,0,2,0
"250025","img/neutralC/CFD-BM-200-046-N.jpg","1","k","1.61423659999855",1,7,0,2,0
"250025","img/neutralC/CFD-IF-729-393-N.jpg","0","s","1.68109529999492",1,7,0,2,0
"250025","img/neutralC/CFD-AM-201-076-N.jpg","1","k","1.23122000000149",1,7,0,2,0
"250025","img/neutralC/CFD-AM-243-212-N.jpg","0","k","1.30077760000131",1,7,0,2,0
"250025","img/neutralC/CFD-LF-220-120-N.jpg","1","k","1.60419879999245",1,7,0,2,0
"250025","img/neutralC/CFD-MF-316-001-N.jpg","0","k","1.45889969999553",1,7,0,2,0
"250025","img/neutralC/CFD-WF-248-129-N.jpg","0","k","1.17996359999233",1,7,0,2,0
"250025","img/neutralC/CFD-WF-009-001-N.jpg","0","s","2.37725879999925",1,7,0,2,0
"250025","img/neutralC/CFD-IM-648-337-N.jpg","1","k","1.10303490000661",1,7,0,2,0
"250025","img/neutralC/CFD-BM-212-117-N.jpg","0","k","1.62456729999394",1,7,0,2,0
"250025","img/neutralC/CFD-WM-026-001-N.jpg","0","s","0.897489799986943",1,7,0,2,0
"250025","img/neutralC/CFD-IF-732-260-N.jpg","0","k","1.13475349999499",1,7,0,2,0
"250025","img/neutralC/CFD-MF-303-013-N.jpg","1","k","3.31813369999873",1,7,0,2,0
"250025","img/neutralC/CFD-BM-211-174-N.jpg","0","k","1.98857139999745",1,7,0,2,0
"250025","img/neutralC/CFD-MF-342-022-N.jpg","0","s","5.91258409999136",1,7,0,2,0
"250025","img/neutralC/CFD-AF-241-141-N.jpg","1","s","1.42281410000578",1,7,0,2,0
"250025","img/neutralC/CFD-IM-727-195-N.jpg","0","s","0.927072199992836",1,7,0,2,0
"250025","img/neutralC/CFD-MF-357-002-N.jpg","0","s","1.1241294999927",1,7,0,2,0
"250025","img/neutralC/CFD-IM-653-008-N.jpg","1","k","1.29818999998679",1,7,0,2,0
"250025","img/neutralC/CFD-BF-029-031-N.jpg","1","s","0.979904300009366",1,7,0,2,0
"250025","img/neutralC/CFD-WM-040-022-N.jpg","0","s","1.07415960000071",1,7,0,2,0
"250025","img/neutralC/CFD-MF-312-002-N.jpg","0","s","0.689820599989616",1,7,0,2,0
"250025","img/neutralC/CFD-AF-210-050-N.jpg","1","k","0.8336197000026",1,7,0,2,0
"250025","img/neutralC/CFD-WF-214-122-N.jpg","1","k","1.69058399999631",1,7,0,2,0
"250025","img/neutralC/CFD-AM-205-153-N.jpg","1","s","1.70675070000289",1,7,0,2,0
"250025","img/neutralC/CFD-MF-327-002-N.jpg","1","s","1.37040390000038",1,7,0,2,0
"250025","img/neutralC/CFD-WF-012-002-N.jpg","0","s","1.54953790000582",1,7,0,2,0
"250025","img/neutralC/CFD-BF-224-002-N.jpg","0","k","3.38036819998524",1,7,0,2,0
"250025","img/neutralC/CFD-BF-213-188-N.jpg","1","k","1.91187519999221",1,7,0,2,0
"250025","img/neutralC/CFD-WM-025-002-N.jpg","0","s","1.8490010999958",1,7,0,2,0
"250025","img/neutralC/CFD-BM-248-128-N.jpg","0","k","1.49352139998518",1,7,0,2,0
"250025","img/neutralC/CFD-MF-352-054-N.jpg","0","k","1.35190179999336",1,8,0,2,0
"250025","img/neutralC/CFD-MF-333-012-N.jpg","0","s","1.93507279999903",1,8,0,2,0
"250025","img/neutralC/CFD-LF-216-121-N.jpg","0","k","1.22241529999883",1,8,0,2,0
"250025","img/neutralC/CFD-BM-041-035-N.jpg","1","k","1.41777859999274",1,8,0,2,0
"250025","img/neutralC/CFD-MM-317-061-N.jpg","0","k","1.57949020000524",1,8,0,2,0
"250025","img/neutralC/CFD-IM-686-097-N.jpg","1","s","1.51425369999197",1,8,0,2,0
"250025","img/neutralC/CFD-BF-040-003-N.jpg","1","s","1.81369759999507",1,8,0,2,0
"250025","img/neutralC/CFD-AM-215-120-N.jpg","1","s","1.256083699991",1,8,0,2,0
"250025","img/neutralC/CFD-IM-728-041-N.jpg","1","s","1.75479949999135",1,8,0,2,0
"250025","img/neutralC/CFD-BM-231-155-N.jpg","1","s","1.77162220000173",1,8,0,2,0
"250025","img/neutralC/CFD-LM-228-188-N.jpg","1","k","1.72167450000416",1,8,0,2,0
"250025","img/neutralC/CFD-BF-244-231-N.jpg","1","s","1.56063310000172",1,8,0,2,0
"250025","img/neutralC/CFD-AF-234-208-N.jpg","1","s","2.56843339999614",1,8,0,2,0
"250025","img/neutralC/CFD-IF-619-197-N.jpg","1","s","1.7567207999964",1,8,0,2,0
"250025","img/neutralC/CFD-BM-043-071-N.jpg","1","k","1.10225799999898",1,8,0,2,0
"250025","img/neutralC/CFD-WM-011-002-N.jpg","0","k","1.41695100000652",1,8,0,2,0
"250025","img/neutralC/CFD-WF-212-050-N.jpg","0","k","1.22026279999409",1,8,0,2,0
"250025","img/neutralC/CFD-BF-228-212-N.jpg","1","s","0.782366499988711",1,8,0,2,0
"250025","img/neutralC/CFD-IM-726-248-N.jpg","1","k","2.88357859998359",1,8,0,2,0
"250025","img/neutralC/CFD-IF-636-011-N.jpg","1","s","1.25369109999156",1,8,0,2,0
"250025","img/neutralC/CFD-MF-359-019-N.jpg","0","s","0.866517799993744",1,8,0,2,0
"250025","img/neutralC/CFD-WM-013-001-N.jpg","0","k","0.939784000001964",1,8,0,2,0
"250025","img/neutralC/CFD-LF-201-035-N.jpg","0","s","0.7966207999998",1,8,0,2,0
"250025","img/neutralC/CFD-BF-023-010-N.jpg","1","k","1.0532397999923",1,8,0,2,0
"250025","img/neutralC/CFD-BF-036-027-N.jpg","1","s","0.765772300001117",1,8,0,2,0
"250025","img/neutralC/CFD-AF-231-357-N.jpg","1","s","1.18561779998709",1,8,0,2,0
"250025","img/neutralC/CFD-LF-215-157-N.jpg","1","k","1.11253810000198",1,8,0,2,0
"250025","img/neutralC/CFD-WM-201-063-N.jpg","0","k","1.86385039999732",1,8,0,2,0
"250025","img/neutralC/CFD-LM-240-013-N.jpg","0","s","1.09737689999747",1,8,0,2,0
"250025","img/neutralC/CFD-WM-235-147-N.jpg","1","k","1.321131100005",1,8,0,2,0
"250025","img/neutralC/CFD-IF-623-129-N.jpg","0","k","0.73842650000006",1,8,0,2,0
"250025","img/neutralC/CFD-IM-645-001-N.jpg","0","s","1.05011059998651",1,8,0,2,0
"250025","img/neutralC/CFD-BF-204-189-N.jpg","1","s","1.47572229999059",1,8,0,2,0
"250025","img/neutralC/CFD-WF-217-085-N.jpg","0","k","1.43807009999",1,8,0,2,0
"250025","img/neutralC/CFD-BF-247-179-N.jpg","0","s","1.32928659999743",1,8,0,2,0
"250025","img/neutralC/CFD-WF-022-017-N.jpg","1","k","1.40074749999621",1,8,0,2,0
"250025","img/neutralC/CFD-BM-205-001-N.jpg","1","k","1.19338910000806",1,8,0,2,0
"250025","img/neutralC/CFD-IF-626-375-N.jpg","1","s","1.12708380000549",1,8,0,2,0
"250025","img/neutralC/CFD-AM-217-085-N.jpg","1","s","1.3939093999943",1,8,0,2,0
"250025","img/neutralC/CFD-BM-028-002-N.jpg","1","k","0.852965900005074",1,8,0,2,0
"250025","img/neutralC/CFD-WF-017-003-N.jpg","0","s","1.11807850000332",1,8,0,2,0
"250025","img/neutralC/CFD-BF-011-002-N.jpg","1","k","1.27758769999491",1,8,0,2,0
"250025","img/neutralC/CFD-MM-324-069-N.jpg","0","s","1.15837299999839",1,8,0,2,0
"250025","img/neutralC/CFD-BF-235-168-N.jpg","1","k","0.666122099995846",1,8,0,2,0
"250025","img/neutralC/CFD-LM-201-057-N.jpg","0","k","1.75689669999701",1,8,0,2,0
"250025","img/neutralC/CFD-IM-678-482-N.jpg","1","s","0.841638699988835",1,8,0,2,0
"250025","img/neutralC/CFD-BF-229-179-N.jpg","1","s","1.33400810000603",1,8,0,2,0
"250025","img/neutralC/CFD-WM-218-074-N.jpg","0","k","1.14186909999989",1,8,0,2,0
