"participant_id","current_trial_face","pre_trial_face","post_trial_face","current_trial_accuracy","pre_trial_accuracy","post_trial_accuracy","current_trial_congruency","pre_trial_congruency","post_trial_congruency","current_trial_rt","pre_trial_rt","post_trial_rt","current_trial_responded","pre_trial_responded","post_trial_responded","current_trial_legitResponse","pre_trial_legitResponse","post_trial_legitResponse","current_trial_resp_nums","pre_trial_resp_nums","post_trial_resp_nums"
"250061","img/neutralC/CFD-BM-005-003-N.jpg",NA,"img/neutralC/CFD-IF-665-015-N.jpg","1",NA,"1","1",NA,"0","0.691267999936827",NA,"0.568007199908607","1",NA,"1","1",NA,"1","1",NA,"1"
"250061","img/neutralC/CFD-IF-665-015-N.jpg","img/neutralC/CFD-BM-005-003-N.jpg","img/neutralC/CFD-BF-010-001-N.jpg","1","1","1","0","1","1","0.568007199908607","0.691267999936827","0.453452600049786","1","1","1","1","1","1","1","1","1"
"250061","img/neutralC/CFD-BF-010-001-N.jpg","img/neutralC/CFD-IF-665-015-N.jpg","img/neutralC/CFD-IM-617-174-N.jpg","1","1","0","1","0","0","0.453452600049786","0.568007199908607","0.782230700016953","1","1","1","1","1","1","1","1","1"
"250061","img/neutralC/CFD-IM-617-174-N.jpg","img/neutralC/CFD-BF-010-001-N.jpg","img/neutralC/CFD-BM-018-001-N.jpg","0","1","1","0","1","1","0.782230700016953","0.453452600049786","0.562800600077026","1","1","1","1","1","1","1","1","1"
"250061","img/neutralC/CFD-BM-018-001-N.jpg","img/neutralC/CFD-IM-617-174-N.jpg","img/neutralC/CFD-LM-219-295-N.jpg","1","0","1","1","0","1","0.562800600077026","0.782230700016953","0.41214399994351","1","1","1","1","1","1","1","1","1"
"250061","img/neutralC/CFD-LM-219-295-N.jpg","img/neutralC/CFD-BM-018-001-N.jpg","img/neutralC/CFD-LF-242-121-N.jpg","1","1","1","1","1","0","0.41214399994351","0.562800600077026","0.518873300054111","1","1","1","1","1","1","1","1","1"
"250061","img/neutralC/CFD-LF-242-121-N.jpg","img/neutralC/CFD-LM-219-295-N.jpg","img/neutralC/CFD-BM-026-002-N.jpg","1","1","1","0","1","0","0.518873300054111","0.41214399994351","0.599503600038588","1","1","1","1","1","1","1","1","1"
"250061","img/neutralC/CFD-BM-026-002-N.jpg","img/neutralC/CFD-LF-242-121-N.jpg","img/neutralC/CFD-MF-313-002-N.jpg","1","1","1","0","0","0","0.599503600038588","0.518873300054111","0.538461099960841","1","1","1","1","1","1","1","1","1"
"250061","img/neutralC/CFD-MF-313-002-N.jpg","img/neutralC/CFD-BM-026-002-N.jpg","img/neutralC/CFD-LF-247-051-N.jpg","1","1","1","0","0","1","0.538461099960841","0.599503600038588","0.470017299987376","1","1","1","1","1","1","1","1","1"
"250061","img/neutralC/CFD-LF-247-051-N.jpg","img/neutralC/CFD-MF-313-002-N.jpg","img/neutralC/CFD-LM-233-171-N.jpg","1","1","1","1","0","0","0.470017299987376","0.538461099960841","0.584400700055994","1","1","1","1","1","1","1","1","1"
"250061","img/neutralC/CFD-LM-233-171-N.jpg","img/neutralC/CFD-LF-247-051-N.jpg","img/neutralC/CFD-IM-653-008-N.jpg","1","1","1","0","1","0","0.584400700055994","0.470017299987376","0.551013899967074","1","1","1","1","1","1","1","1","1"
"250061","img/neutralC/CFD-IM-653-008-N.jpg","img/neutralC/CFD-LM-233-171-N.jpg","img/neutralC/CFD-LF-245-166-N.jpg","1","1","1","0","0","1","0.551013899967074","0.584400700055994","0.452719099936076","1","1","1","1","1","1","1","1","1"
"250061","img/neutralC/CFD-LF-245-166-N.jpg","img/neutralC/CFD-IM-653-008-N.jpg","img/neutralC/CFD-BF-238-190-N.jpg","1","1","1","1","0","1","0.452719099936076","0.551013899967074","0.438667899928987","1","1","1","1","1","1","1","1","1"
"250061","img/neutralC/CFD-BF-238-190-N.jpg","img/neutralC/CFD-LF-245-166-N.jpg","img/neutralC/CFD-IM-638-250-1-N.jpg","1","1","0","1","1","1","0.438667899928987","0.452719099936076","0.404858499998227","1","1","1","1","1","1","1","1","1"
"250061","img/neutralC/CFD-IM-638-250-1-N.jpg","img/neutralC/CFD-BF-238-190-N.jpg","img/neutralC/CFD-WM-227-099-N.jpg","0","1","1","1","1","1","0.404858499998227","0.438667899928987","0.518019999959506","1","1","1","1","1","1","1","1","1"
"250061","img/neutralC/CFD-WM-227-099-N.jpg","img/neutralC/CFD-IM-638-250-1-N.jpg","img/neutralC/CFD-WM-017-002-N.jpg","1","0","1","1","1","0","0.518019999959506","0.404858499998227","0.45654669997748","1","1","1","1","1","1","1","1","1"
"250061","img/neutralC/CFD-WM-017-002-N.jpg","img/neutralC/CFD-WM-227-099-N.jpg","img/neutralC/CFD-WF-209-052-N.jpg","1","1","1","0","1","1","0.45654669997748","0.518019999959506","0.487971299909987","1","1","1","1","1","1","1","1","1"
"250061","img/neutralC/CFD-WF-209-052-N.jpg","img/neutralC/CFD-WM-017-002-N.jpg","img/neutralC/CFD-IM-657-308-N.jpg","1","1","1","1","0","0","0.487971299909987","0.45654669997748","0.567261199932545","1","1","1","1","1","1","1","1","1"
"250061","img/neutralC/CFD-IM-657-308-N.jpg","img/neutralC/CFD-WF-209-052-N.jpg","img/neutralC/CFD-LF-250-169-N.jpg","1","1","1","0","1","1","0.567261199932545","0.487971299909987","0.546840099967085","1","1","1","1","1","1","1","1","1"
"250061","img/neutralC/CFD-LF-250-169-N.jpg","img/neutralC/CFD-IM-657-308-N.jpg","img/neutralC/CFD-IM-727-195-N.jpg","1","1","1","1","0","1","0.546840099967085","0.567261199932545","0.355506199994124","1","1","1","1","1","1","1","1","1"
"250061","img/neutralC/CFD-IM-727-195-N.jpg","img/neutralC/CFD-LF-250-169-N.jpg","img/neutralC/CFD-WM-242-011-N.jpg","1","1","1","1","1","0","0.355506199994124","0.546840099967085","0.598546999972314","1","1","1","1","1","1","1","1","1"
"250061","img/neutralC/CFD-WM-242-011-N.jpg","img/neutralC/CFD-IM-727-195-N.jpg","img/neutralC/CFD-AF-206-079-N.jpg","1","1","1","0","1","1","0.598546999972314","0.355506199994124","0.440696900011972","1","1","1","1","1","1","1","1","1"
"250061","img/neutralC/CFD-AF-206-079-N.jpg","img/neutralC/CFD-WM-242-011-N.jpg","img/neutralC/CFD-AF-241-141-N.jpg","1","1","1","1","0","1","0.440696900011972","0.598546999972314","0.480157500016503","1","1","1","1","1","1","1","1","1"
"250061","img/neutralC/CFD-AF-241-141-N.jpg","img/neutralC/CFD-AF-206-079-N.jpg","img/neutralC/CFD-BM-212-117-N.jpg","1","1","1","1","1","0","0.480157500016503","0.440696900011972","0.534948699991219","1","1","1","1","1","1","1","1","1"
"250061","img/neutralC/CFD-BM-212-117-N.jpg","img/neutralC/CFD-AF-241-141-N.jpg","img/neutralC/CFD-BF-033-028-N.jpg","1","1","1","0","1","0","0.534948699991219","0.480157500016503","0.442217199946754","1","1","1","1","1","1","1","1","1"
"250061","img/neutralC/CFD-BF-033-028-N.jpg","img/neutralC/CFD-BM-212-117-N.jpg","img/neutralC/CFD-AF-202-122-N.jpg","1","1","1","0","0","1","0.442217199946754","0.534948699991219","0.60159980005119","1","1","1","1","1","1","1","1","1"
"250061","img/neutralC/CFD-AF-202-122-N.jpg","img/neutralC/CFD-BF-033-028-N.jpg","img/neutralC/CFD-WM-258-125-N.jpg","1","1","1","1","0","0","0.60159980005119","0.442217199946754","0.500083699938841","1","1","1","1","1","1","1","1","1"
"250061","img/neutralC/CFD-WM-258-125-N.jpg","img/neutralC/CFD-AF-202-122-N.jpg","img/neutralC/CFD-IM-686-097-N.jpg","1","1","1","0","1","0","0.500083699938841","0.60159980005119","0.38536979991477","1","1","1","1","1","1","1","1","1"
"250061","img/neutralC/CFD-IM-686-097-N.jpg","img/neutralC/CFD-WM-258-125-N.jpg","img/neutralC/CFD-LM-226-175-N.jpg","1","1","1","0","0","0","0.38536979991477","0.500083699938841","0.465427099959925","1","1","1","1","1","1","1","1","1"
"250061","img/neutralC/CFD-LM-226-175-N.jpg","img/neutralC/CFD-IM-686-097-N.jpg","img/neutralC/CFD-BM-231-155-N.jpg","1","1","1","0","0","1","0.465427099959925","0.38536979991477","0.444405499962159","1","1","1","1","1","1","1","1","1"
"250061","img/neutralC/CFD-BM-231-155-N.jpg","img/neutralC/CFD-LM-226-175-N.jpg","img/neutralC/CFD-IF-620-218-N.jpg","1","1","1","1","0","0","0.444405499962159","0.465427099959925","0.648699100012891","1","1","1","1","1","1","1","1","1"
"250061","img/neutralC/CFD-IF-620-218-N.jpg","img/neutralC/CFD-BM-231-155-N.jpg",NA,"1","1",NA,"0","1",NA,"0.648699100012891","0.444405499962159",NA,"1","1",NA,"1","1",NA,"1","1",NA
"250061","img/neutralC/CFD-WM-021-001-N.jpg",NA,"img/neutralC/CFD-AM-201-076-N.jpg","1",NA,"1","1",NA,"1","0.427898399997503",NA,"0.356140900054015","1",NA,"1","1",NA,"1","1",NA,"1"
"250061","img/neutralC/CFD-AM-201-076-N.jpg","img/neutralC/CFD-WM-021-001-N.jpg","img/neutralC/CFD-BM-019-002-N.jpg","1","1","1","1","1","0","0.356140900054015","0.427898399997503","0.449732200009748","1","1","1","1","1","1","1","1","1"
"250061","img/neutralC/CFD-BM-019-002-N.jpg","img/neutralC/CFD-AM-201-076-N.jpg","img/neutralC/CFD-IF-634-382-N.jpg","1","1","1","0","1","1","0.449732200009748","0.356140900054015","0.339267599978484","1","1","1","1","1","1","1","1","1"
"250061","img/neutralC/CFD-IF-634-382-N.jpg","img/neutralC/CFD-BM-019-002-N.jpg","img/neutralC/CFD-AF-231-357-N.jpg","1","1","1","1","0","1","0.339267599978484","0.449732200009748","0.359583399957046","1","1","1","1","1","1","1","1","1"
"250061","img/neutralC/CFD-AF-231-357-N.jpg","img/neutralC/CFD-IF-634-382-N.jpg","img/neutralC/CFD-LM-218-183-N.jpg","1","1","1","1","1","1","0.359583399957046","0.339267599978484","0.469727599993348","1","1","1","1","1","1","1","1","1"
"250061","img/neutralC/CFD-LM-218-183-N.jpg","img/neutralC/CFD-AF-231-357-N.jpg","img/neutralC/CFD-BM-033-003-N.jpg","1","1","1","1","1","0","0.469727599993348","0.359583399957046","0.286617200006731","1","1","1","1","1","1","1","1","1"
"250061","img/neutralC/CFD-BM-033-003-N.jpg","img/neutralC/CFD-LM-218-183-N.jpg","img/neutralC/CFD-LF-205-100-N.jpg","1","1","0","0","1","1","0.286617200006731","0.469727599993348","0.397700599976815","1","1","1","1","1","1","1","1","1"
"250061","img/neutralC/CFD-LF-205-100-N.jpg","img/neutralC/CFD-BM-033-003-N.jpg","img/neutralC/CFD-WF-250-167-N.jpg","0","1","1","1","0","1","0.397700599976815","0.286617200006731","0.425914600025862","1","1","1","1","1","1","1","1","1"
"250061","img/neutralC/CFD-WF-250-167-N.jpg","img/neutralC/CFD-LF-205-100-N.jpg","img/neutralC/CFD-LF-214-090-N.jpg","1","0","1","1","1","0","0.425914600025862","0.397700599976815","0.359523999970406","1","1","1","1","1","1","1","1","1"
"250061","img/neutralC/CFD-LF-214-090-N.jpg","img/neutralC/CFD-WF-250-167-N.jpg","img/neutralC/CFD-BF-205-141-N.jpg","1","1","1","0","1","0","0.359523999970406","0.425914600025862","0.44837490003556","1","1","1","1","1","1","1","1","1"
"250061","img/neutralC/CFD-BF-205-141-N.jpg","img/neutralC/CFD-LF-214-090-N.jpg","img/neutralC/CFD-BM-041-035-N.jpg","1","1","0","0","0","0","0.44837490003556","0.359523999970406","0.386320299934596","1","1","1","1","1","1","1","1","1"
"250061","img/neutralC/CFD-BM-041-035-N.jpg","img/neutralC/CFD-BF-205-141-N.jpg","img/neutralC/CFD-LF-224-176-N.jpg","0","1","1","0","0","0","0.386320299934596","0.44837490003556","0.414730099961162","1","1","1","1","1","1","1","1","1"
"250061","img/neutralC/CFD-LF-224-176-N.jpg","img/neutralC/CFD-BM-041-035-N.jpg","img/neutralC/CFD-LF-203-066-N.jpg","1","0","1","0","0","0","0.414730099961162","0.386320299934596","0.313772600027732","1","1","1","1","1","1","1","1","1"
"250061","img/neutralC/CFD-LF-203-066-N.jpg","img/neutralC/CFD-LF-224-176-N.jpg","img/neutralC/CFD-BF-253-202-N.jpg","1","1","1","0","0","0","0.313772600027732","0.414730099961162","0.418454799917527","1","1","1","1","1","1","1","1","1"
"250061","img/neutralC/CFD-BF-253-202-N.jpg","img/neutralC/CFD-LF-203-066-N.jpg","img/neutralC/CFD-BF-039-031-N.jpg","1","1","1","0","0","1","0.418454799917527","0.313772600027732","0.329434599960223","1","1","1","1","1","1","1","1","1"
"250061","img/neutralC/CFD-BF-039-031-N.jpg","img/neutralC/CFD-BF-253-202-N.jpg","img/neutralC/CFD-IF-693-172-N.jpg","1","1","1","1","0","0","0.329434599960223","0.418454799917527","0.388493799953722","1","1","1","1","1","1","1","1","1"
"250061","img/neutralC/CFD-IF-693-172-N.jpg","img/neutralC/CFD-BF-039-031-N.jpg","img/neutralC/CFD-IM-684-008-N.jpg","1","1","1","0","1","1","0.388493799953722","0.329434599960223","0.448000699980184","1","1","1","1","1","1","1","1","1"
"250061","img/neutralC/CFD-IM-684-008-N.jpg","img/neutralC/CFD-IF-693-172-N.jpg","img/neutralC/CFD-WM-041-021-N.jpg","1","1","1","1","0","0","0.448000699980184","0.388493799953722","0.382908500032499","1","1","1","1","1","1","1","1","1"
"250061","img/neutralC/CFD-WM-041-021-N.jpg","img/neutralC/CFD-IM-684-008-N.jpg","img/neutralC/CFD-WM-011-002-N.jpg","1","1","1","0","1","0","0.382908500032499","0.448000699980184","0.47819660010282","1","1","1","1","1","1","1","1","1"
"250061","img/neutralC/CFD-WM-011-002-N.jpg","img/neutralC/CFD-WM-041-021-N.jpg","img/neutralC/CFD-IF-710-016-N.jpg","1","1","0","0","0","0","0.47819660010282","0.382908500032499","0.348218700033612","1","1","1","1","1","1","1","1","1"
"250061","img/neutralC/CFD-IF-710-016-N.jpg","img/neutralC/CFD-WM-011-002-N.jpg","img/neutralC/CFD-BM-239-136-N.jpg","0","1","1","0","0","1","0.348218700033612","0.47819660010282","0.417425999999978","1","1","1","1","1","1","1","1","1"
"250061","img/neutralC/CFD-BM-239-136-N.jpg","img/neutralC/CFD-IF-710-016-N.jpg","img/neutralC/CFD-LM-215-247-N.jpg","1","0","1","1","0","0","0.417425999999978","0.348218700033612","0.456754900049418","1","1","1","1","1","1","1","1","1"
"250061","img/neutralC/CFD-LM-215-247-N.jpg","img/neutralC/CFD-BM-239-136-N.jpg","img/neutralC/CFD-WF-213-031-N.jpg","1","1","1","0","1","1","0.456754900049418","0.417425999999978","0.343111900030635","1","1","1","1","1","1","1","1","1"
"250061","img/neutralC/CFD-WF-213-031-N.jpg","img/neutralC/CFD-LM-215-247-N.jpg","img/neutralC/CFD-IM-651-308-N.jpg","1","1","1","1","0","0","0.343111900030635","0.456754900049418","0.594102300005034","1","1","1","1","1","1","1","1","1"
"250061","img/neutralC/CFD-IM-651-308-N.jpg","img/neutralC/CFD-WF-213-031-N.jpg","img/neutralC/CFD-AM-212-050-N.jpg","1","1","1","0","1","1","0.594102300005034","0.343111900030635","0.445628600078635","1","1","1","1","1","1","1","1","1"
"250061","img/neutralC/CFD-AM-212-050-N.jpg","img/neutralC/CFD-IM-651-308-N.jpg","img/neutralC/CFD-MM-316-156-N.jpg","1","1","1","1","0","1","0.445628600078635","0.594102300005034","0.340251300018281","1","1","1","1","1","1","1","1","1"
"250061","img/neutralC/CFD-MM-316-156-N.jpg","img/neutralC/CFD-AM-212-050-N.jpg","img/neutralC/CFD-WF-224-099-N.jpg","1","1","1","1","1","0","0.340251300018281","0.445628600078635","0.494165900046937","1","1","1","1","1","1","1","1","1"
"250061","img/neutralC/CFD-WF-224-099-N.jpg","img/neutralC/CFD-MM-316-156-N.jpg","img/neutralC/CFD-BF-213-188-N.jpg","1","1","1","0","1","1","0.494165900046937","0.340251300018281","0.440698600024916","1","1","1","1","1","1","1","1","1"
"250061","img/neutralC/CFD-BF-213-188-N.jpg","img/neutralC/CFD-WF-224-099-N.jpg","img/neutralC/CFD-LF-230-203-N.jpg","1","1","0","1","0","0","0.440698600024916","0.494165900046937","0.28258839994669","1","1","1","1","1","1","1","1","1"
"250061","img/neutralC/CFD-LF-230-203-N.jpg","img/neutralC/CFD-BF-213-188-N.jpg","img/neutralC/CFD-MF-337-026-N.jpg","0","1","1","0","1","1","0.28258839994669","0.440698600024916","0.324481900082901","1","1","1","1","1","1","1","1","1"
"250061","img/neutralC/CFD-MF-337-026-N.jpg","img/neutralC/CFD-LF-230-203-N.jpg","img/neutralC/CFD-BF-029-031-N.jpg","1","0","1","1","0","1","0.324481900082901","0.28258839994669","0.397957100067288","1","1","1","1","1","1","1","1","1"
"250061","img/neutralC/CFD-BF-029-031-N.jpg","img/neutralC/CFD-MF-337-026-N.jpg",NA,"1","1",NA,"1","1",NA,"0.397957100067288","0.324481900082901",NA,"1","1",NA,"1","1",NA,"1","1",NA
"250061","img/neutralC/CFD-AM-245-111-N.jpg",NA,"img/neutralC/CFD-AF-205-155-N.jpg","1",NA,"1","1",NA,"0","0.441194100072607",NA,"0.28493389999494","1",NA,"1","1",NA,"1","1",NA,"1"
"250061","img/neutralC/CFD-AF-205-155-N.jpg","img/neutralC/CFD-AM-245-111-N.jpg","img/neutralC/CFD-AF-246-242-N.jpg","1","1","0","0","1","0","0.28493389999494","0.441194100072607","0.42426749994047","1","1","1","1","1","1","1","1","1"
"250061","img/neutralC/CFD-AF-246-242-N.jpg","img/neutralC/CFD-AF-205-155-N.jpg","img/neutralC/CFD-WF-210-086-N.jpg","0","1","1","0","0","0","0.42426749994047","0.28493389999494","0.380515400087461","1","1","1","1","1","1","1","1","1"
"250061","img/neutralC/CFD-WF-210-086-N.jpg","img/neutralC/CFD-AF-246-242-N.jpg","img/neutralC/CFD-IM-635-010-N.jpg","1","0","1","0","0","1","0.380515400087461","0.42426749994047","0.390613000025041","1","1","1","1","1","1","1","1","1"
"250061","img/neutralC/CFD-IM-635-010-N.jpg","img/neutralC/CFD-WF-210-086-N.jpg","img/neutralC/CFD-AF-244-168-N.jpg","1","1","1","1","0","0","0.390613000025041","0.380515400087461","0.392912699957378","1","1","1","1","1","1","1","1","1"
"250061","img/neutralC/CFD-AF-244-168-N.jpg","img/neutralC/CFD-IM-635-010-N.jpg","img/neutralC/CFD-IF-732-260-N.jpg","1","1","0","0","1","0","0.392912699957378","0.390613000025041","0.361531500006095","1","1","1","1","1","1","1","1","1"
"250061","img/neutralC/CFD-IF-732-260-N.jpg","img/neutralC/CFD-AF-244-168-N.jpg","img/neutralC/CFD-LF-239-148-N.jpg","0","1","0","0","0","0","0.361531500006095","0.392912699957378","0.364464599988423","1","1","1","1","1","1","1","1","1"
"250061","img/neutralC/CFD-LF-239-148-N.jpg","img/neutralC/CFD-IF-732-260-N.jpg","img/neutralC/CFD-MF-307-002-N.jpg","0","0","1","0","0","1","0.364464599988423","0.361531500006095","0.362115700030699","1","1","1","1","1","1","1","1","1"
"250061","img/neutralC/CFD-MF-307-002-N.jpg","img/neutralC/CFD-LF-239-148-N.jpg","img/neutralC/CFD-BF-206-143-N.jpg","1","0","1","1","0","1","0.362115700030699","0.364464599988423","0.361160099972039","1","1","1","1","1","1","1","1","1"
"250061","img/neutralC/CFD-BF-206-143-N.jpg","img/neutralC/CFD-MF-307-002-N.jpg","img/neutralC/CFD-AF-213-126-N.jpg","1","1","1","1","1","1","0.361160099972039","0.362115700030699","0.358489400008693","1","1","1","1","1","1","1","1","1"
"250061","img/neutralC/CFD-AF-213-126-N.jpg","img/neutralC/CFD-BF-206-143-N.jpg","img/neutralC/CFD-BF-235-168-N.jpg","1","1","1","1","1","1","0.358489400008693","0.361160099972039","0.458202100009657","1","1","1","1","1","1","1","1","1"
"250061","img/neutralC/CFD-BF-235-168-N.jpg","img/neutralC/CFD-AF-213-126-N.jpg","img/neutralC/CFD-WF-235-121-N.jpg","1","1","1","1","1","0","0.458202100009657","0.358489400008693","0.623024299973622","1","1","1","1","1","1","1","1","1"
"250061","img/neutralC/CFD-WF-235-121-N.jpg","img/neutralC/CFD-BF-235-168-N.jpg","img/neutralC/CFD-BM-004-002-N.jpg","1","1","1","0","1","0","0.623024299973622","0.458202100009657","0.456648799940012","1","1","1","1","1","1","1","1","1"
"250061","img/neutralC/CFD-BM-004-002-N.jpg","img/neutralC/CFD-WF-235-121-N.jpg","img/neutralC/CFD-BF-217-189-N.jpg","1","1","1","0","0","0","0.456648799940012","0.623024299973622","0.449483699980192","1","1","1","1","1","1","1","1","1"
"250061","img/neutralC/CFD-BF-217-189-N.jpg","img/neutralC/CFD-BM-004-002-N.jpg","img/neutralC/CFD-BF-040-003-N.jpg","1","1","1","0","0","1","0.449483699980192","0.456648799940012","0.303573000011966","1","1","1","1","1","1","1","1","1"
"250061","img/neutralC/CFD-BF-040-003-N.jpg","img/neutralC/CFD-BF-217-189-N.jpg","img/neutralC/CFD-BM-215-155-N.jpg","1","1","1","1","0","0","0.303573000011966","0.449483699980192","0.33610509999562","1","1","1","1","1","1","1","1","1"
"250061","img/neutralC/CFD-BM-215-155-N.jpg","img/neutralC/CFD-BF-040-003-N.jpg","img/neutralC/CFD-LM-241-125-N.jpg","1","1","1","0","1","1","0.33610509999562","0.303573000011966","0.332759800017811","1","1","1","1","1","1","1","1","1"
"250061","img/neutralC/CFD-LM-241-125-N.jpg","img/neutralC/CFD-BM-215-155-N.jpg","img/neutralC/CFD-BF-042-026-N.jpg","1","1","1","1","0","1","0.332759800017811","0.33610509999562","0.539480499923229","1","1","1","1","1","1","1","1","1"
"250061","img/neutralC/CFD-BF-042-026-N.jpg","img/neutralC/CFD-LM-241-125-N.jpg","img/neutralC/CFD-AF-250-200-N.jpg","1","1","1","1","1","1","0.539480499923229","0.332759800017811","0.332395100034773","1","1","1","1","1","1","1","1","1"
"250061","img/neutralC/CFD-AF-250-200-N.jpg","img/neutralC/CFD-BF-042-026-N.jpg","img/neutralC/CFD-IM-632-097-N.jpg","1","1","0","1","1","0","0.332395100034773","0.539480499923229","0.257368099992163","1","1","1","1","1","1","1","1","1"
"250061","img/neutralC/CFD-IM-632-097-N.jpg","img/neutralC/CFD-AF-250-200-N.jpg","img/neutralC/CFD-BF-020-002-N.jpg","0","1","1","0","1","1","0.257368099992163","0.332395100034773","0.413029900053516","1","1","1","1","1","1","1","1","1"
"250061","img/neutralC/CFD-BF-020-002-N.jpg","img/neutralC/CFD-IM-632-097-N.jpg","img/neutralC/CFD-AM-233-236-N.jpg","1","0","1","1","0","1","0.413029900053516","0.257368099992163","0.396961800055578","1","1","1","1","1","1","1","1","1"
"250061","img/neutralC/CFD-AM-233-236-N.jpg","img/neutralC/CFD-BF-020-002-N.jpg","img/neutralC/CFD-MF-302-027-N.jpg","1","1","1","1","1","0","0.396961800055578","0.413029900053516","0.250448400038294","1","1","1","1","1","1","1","1","1"
"250061","img/neutralC/CFD-MF-302-027-N.jpg","img/neutralC/CFD-AM-233-236-N.jpg","img/neutralC/CFD-IF-636-011-N.jpg","1","1","1","0","1","1","0.250448400038294","0.396961800055578","0.323764799977653","1","1","1","1","1","1","1","1","1"
"250061","img/neutralC/CFD-IF-636-011-N.jpg","img/neutralC/CFD-MF-302-027-N.jpg","img/neutralC/CFD-IM-678-482-N.jpg","1","1","1","1","0","0","0.323764799977653","0.250448400038294","0.444557600072585","1","1","1","1","1","1","1","1","1"
"250061","img/neutralC/CFD-IM-678-482-N.jpg","img/neutralC/CFD-IF-636-011-N.jpg","img/neutralC/CFD-AF-234-208-N.jpg","1","1","1","0","1","1","0.444557600072585","0.323764799977653","0.498996100039221","1","1","1","1","1","1","1","1","1"
"250061","img/neutralC/CFD-AF-234-208-N.jpg","img/neutralC/CFD-IM-678-482-N.jpg","img/neutralC/CFD-LM-204-001-N.jpg","1","1","0","1","0","0","0.498996100039221","0.444557600072585","0.315746899927035","1","1","1","1","1","1","1","1","1"
"250061","img/neutralC/CFD-LM-204-001-N.jpg","img/neutralC/CFD-AF-234-208-N.jpg","img/neutralC/CFD-WM-253-119-N.jpg","0","1","1","0","1","1","0.315746899927035","0.498996100039221","0.454800699953921","1","1","1","1","1","1","1","1","1"
"250061","img/neutralC/CFD-WM-253-119-N.jpg","img/neutralC/CFD-LM-204-001-N.jpg","img/neutralC/CFD-IM-669-111-N.jpg","1","0","1","1","0","1","0.454800699953921","0.315746899927035","0.399834000039846","1","1","1","1","1","1","1","1","1"
"250061","img/neutralC/CFD-IM-669-111-N.jpg","img/neutralC/CFD-WM-253-119-N.jpg","img/neutralC/CFD-AM-225-102-N.jpg","1","1","1","1","1","0","0.399834000039846","0.454800699953921","0.361125300056301","1","1","1","1","1","1","1","1","1"
"250061","img/neutralC/CFD-AM-225-102-N.jpg","img/neutralC/CFD-IM-669-111-N.jpg","img/neutralC/CFD-WM-018-002-N.jpg","1","1","1","0","1","0","0.361125300056301","0.399834000039846","0.436365699977614","1","1","1","1","1","1","1","1","1"
"250061","img/neutralC/CFD-WM-018-002-N.jpg","img/neutralC/CFD-AM-225-102-N.jpg",NA,"1","1",NA,"0","0",NA,"0.436365699977614","0.361125300056301",NA,"1","1",NA,"1","1",NA,"1","1",NA
"250061","img/neutralC/CFD-BF-003-003-N.jpg",NA,"img/neutralC/CFD-IM-674-281-N.jpg","0",NA,"1","0",NA,"1","0.760755099938251",NA,"0.306910100043751","1",NA,"1","1",NA,"1","1",NA,"1"
"250061","img/neutralC/CFD-IM-674-281-N.jpg","img/neutralC/CFD-BF-003-003-N.jpg","img/neutralC/CFD-AM-215-120-N.jpg","1","0","1","1","0","1","0.306910100043751","0.760755099938251","0.256937900092453","1","1","1","1","1","1","1","1","1"
"250061","img/neutralC/CFD-AM-215-120-N.jpg","img/neutralC/CFD-IM-674-281-N.jpg","img/neutralC/CFD-WF-022-017-N.jpg","1","1","0","1","1","0","0.256937900092453","0.306910100043751","0.411929200054146","1","1","1","1","1","1","1","1","1"
"250061","img/neutralC/CFD-WF-022-017-N.jpg","img/neutralC/CFD-AM-215-120-N.jpg","img/neutralC/CFD-IF-718-001-N.jpg","0","1","1","0","1","1","0.411929200054146","0.256937900092453","0.398805200005881","1","1","1","1","1","1","1","1","1"
"250061","img/neutralC/CFD-IF-718-001-N.jpg","img/neutralC/CFD-WF-022-017-N.jpg","img/neutralC/CFD-BM-015-015-N.jpg","1","0","0","1","0","0","0.398805200005881","0.411929200054146","0.34763740003109","1","1","1","1","1","1","1","1","1"
"250061","img/neutralC/CFD-BM-015-015-N.jpg","img/neutralC/CFD-IF-718-001-N.jpg","img/neutralC/CFD-IM-639-263-N.jpg","0","1","1","0","1","1","0.34763740003109","0.398805200005881","0.382395799970254","1","1","1","1","1","1","1","1","1"
"250061","img/neutralC/CFD-IM-639-263-N.jpg","img/neutralC/CFD-BM-015-015-N.jpg","img/neutralC/CFD-WM-038-003-N.jpg","1","0","1","1","0","0","0.382395799970254","0.34763740003109","0.418252200004645","1","1","1","1","1","1","1","1","1"
"250061","img/neutralC/CFD-WM-038-003-N.jpg","img/neutralC/CFD-IM-639-263-N.jpg","img/neutralC/CFD-WM-040-022-N.jpg","1","1","1","0","1","0","0.418252200004645","0.382395799970254","0.51699280005414","1","1","1","1","1","1","1","1","1"
"250061","img/neutralC/CFD-WM-040-022-N.jpg","img/neutralC/CFD-WM-038-003-N.jpg","img/neutralC/CFD-BM-029-024-N.jpg","1","1","1","0","0","1","0.51699280005414","0.418252200004645","0.306060599978082","1","1","1","1","1","1","1","1","1"
"250061","img/neutralC/CFD-BM-029-024-N.jpg","img/neutralC/CFD-WM-040-022-N.jpg","img/neutralC/CFD-BF-204-189-N.jpg","1","1","1","1","0","1","0.306060599978082","0.51699280005414","0.44290619995445","1","1","1","1","1","1","1","1","1"
"250061","img/neutralC/CFD-BF-204-189-N.jpg","img/neutralC/CFD-BM-029-024-N.jpg","img/neutralC/CFD-AM-235-241-N.jpg","1","1","1","1","1","0","0.44290619995445","0.306060599978082","0.447127299965359","1","1","1","1","1","1","1","1","1"
"250061","img/neutralC/CFD-AM-235-241-N.jpg","img/neutralC/CFD-BF-204-189-N.jpg","img/neutralC/CFD-BF-023-010-N.jpg","1","1","1","0","1","1","0.447127299965359","0.44290619995445","0.358316399971955","1","1","1","1","1","1","1","1","1"
"250061","img/neutralC/CFD-BF-023-010-N.jpg","img/neutralC/CFD-AM-235-241-N.jpg","img/neutralC/CFD-WF-026-002-N.jpg","1","1","1","1","0","1","0.358316399971955","0.447127299965359","0.350846399902366","1","1","1","1","1","1","1","1","1"
"250061","img/neutralC/CFD-WF-026-002-N.jpg","img/neutralC/CFD-BF-023-010-N.jpg","img/neutralC/CFD-BM-211-174-N.jpg","1","1","1","1","1","0","0.350846399902366","0.358316399971955","0.400420099962503","1","1","1","1","1","1","1","1","1"
"250061","img/neutralC/CFD-BM-211-174-N.jpg","img/neutralC/CFD-WF-026-002-N.jpg","img/neutralC/CFD-BF-201-080-N.jpg","1","1","1","0","1","1","0.400420099962503","0.350846399902366","0.309238999965601","1","1","1","1","1","1","1","1","1"
"250061","img/neutralC/CFD-BF-201-080-N.jpg","img/neutralC/CFD-BM-211-174-N.jpg","img/neutralC/CFD-WM-225-127-N.jpg","1","1","0","1","0","0","0.309238999965601","0.400420099962503","0.35906889999751","1","1","1","1","1","1","1","1","1"
"250061","img/neutralC/CFD-WM-225-127-N.jpg","img/neutralC/CFD-BF-201-080-N.jpg","img/neutralC/CFD-IF-672-305-N.jpg","0","1","1","0","1","0","0.35906889999751","0.309238999965601","0.310440200031735","1","1","1","1","1","1","1","1","1"
"250061","img/neutralC/CFD-IF-672-305-N.jpg","img/neutralC/CFD-WM-225-127-N.jpg","img/neutralC/CFD-BF-208-266-N.jpg","1","0","1","0","0","0","0.310440200031735","0.35906889999751","0.306746199959889","1","1","1","1","1","1","1","1","1"
"250061","img/neutralC/CFD-BF-208-266-N.jpg","img/neutralC/CFD-IF-672-305-N.jpg","img/neutralC/CFD-LF-236-221-N.jpg","1","1","1","0","0","1","0.306746199959889","0.310440200031735","0.360198499984108","1","1","1","1","1","1","1","1","1"
"250061","img/neutralC/CFD-LF-236-221-N.jpg","img/neutralC/CFD-BF-208-266-N.jpg","img/neutralC/CFD-AM-217-085-N.jpg","1","1","1","1","0","0","0.360198499984108","0.306746199959889","0.32318559999112","1","1","1","1","1","1","1","1","1"
"250061","img/neutralC/CFD-AM-217-085-N.jpg","img/neutralC/CFD-LF-236-221-N.jpg","img/neutralC/CFD-WM-257-161-N.jpg","1","1","1","0","1","1","0.32318559999112","0.360198499984108","0.554809199995361","1","1","1","1","1","1","1","1","1"
"250061","img/neutralC/CFD-WM-257-161-N.jpg","img/neutralC/CFD-AM-217-085-N.jpg","img/neutralC/CFD-BM-027-001-N.jpg","1","1","1","1","0","0","0.554809199995361","0.32318559999112","0.454000200028531","1","1","1","1","1","1","1","1","1"
"250061","img/neutralC/CFD-BM-027-001-N.jpg","img/neutralC/CFD-WM-257-161-N.jpg","img/neutralC/CFD-BM-247-240-N.jpg","1","1","0","0","1","0","0.454000200028531","0.554809199995361","0.383355100057088","1","1","1","1","1","1","1","1","1"
"250061","img/neutralC/CFD-BM-247-240-N.jpg","img/neutralC/CFD-BM-027-001-N.jpg","img/neutralC/CFD-IM-728-041-N.jpg","0","1","0","0","0","0","0.383355100057088","0.454000200028531","0.619265900109895","1","1","1","1","1","1","1","1","1"
"250061","img/neutralC/CFD-IM-728-041-N.jpg","img/neutralC/CFD-BM-247-240-N.jpg","img/neutralC/CFD-MM-319-052-N.jpg","0","0","1","0","0","1","0.619265900109895","0.383355100057088","0.422636199975386","1","1","1","1","1","1","1","1","1"
"250061","img/neutralC/CFD-MM-319-052-N.jpg","img/neutralC/CFD-IM-728-041-N.jpg","img/neutralC/CFD-LF-216-121-N.jpg","1","0","1","1","0","1","0.422636199975386","0.619265900109895","0.438931299955584","1","1","1","1","1","1","1","1","1"
"250061","img/neutralC/CFD-LF-216-121-N.jpg","img/neutralC/CFD-MM-319-052-N.jpg","img/neutralC/CFD-WF-002-004-N.jpg","1","1","1","1","1","0","0.438931299955584","0.422636199975386","0.459464099956676","1","1","1","1","1","1","1","1","1"
"250061","img/neutralC/CFD-WF-002-004-N.jpg","img/neutralC/CFD-LF-216-121-N.jpg","img/neutralC/CFD-BF-028-001-N.jpg","1","1","1","0","1","1","0.459464099956676","0.438931299955584","0.315981299965642","1","1","1","1","1","1","1","1","1"
"250061","img/neutralC/CFD-BF-028-001-N.jpg","img/neutralC/CFD-WF-002-004-N.jpg","img/neutralC/CFD-WM-002-009-N.jpg","1","1","0","1","0","0","0.315981299965642","0.459464099956676","0.323811999987811","1","1","1","1","1","1","1","1","1"
"250061","img/neutralC/CFD-WM-002-009-N.jpg","img/neutralC/CFD-BF-028-001-N.jpg","img/neutralC/CFD-LM-252-076-N.jpg","0","1","1","0","1","1","0.323811999987811","0.315981299965642","0.372805800056085","1","1","1","1","1","1","1","1","1"
"250061","img/neutralC/CFD-LM-252-076-N.jpg","img/neutralC/CFD-WM-002-009-N.jpg","img/neutralC/CFD-BF-255-140-N.jpg","1","0","1","1","0","1","0.372805800056085","0.323811999987811","0.360834799939767","1","1","1","1","1","1","1","1","1"
"250061","img/neutralC/CFD-BF-255-140-N.jpg","img/neutralC/CFD-LM-252-076-N.jpg",NA,"1","1",NA,"1","1",NA,"0.360834799939767","0.372805800056085",NA,"1","1",NA,"1","1",NA,"1","1",NA
"250061","img/neutralC/CFD-IF-642-295-N.jpg",NA,"img/neutralC/CFD-MF-309-002-N.jpg","1",NA,"1","1",NA,"0","0.586897300090641",NA,"0.383707599947229","1",NA,"1","1",NA,"1","1",NA,"1"
"250061","img/neutralC/CFD-MF-309-002-N.jpg","img/neutralC/CFD-IF-642-295-N.jpg","img/neutralC/CFD-BM-205-001-N.jpg","1","1","1","0","1","0","0.383707599947229","0.586897300090641","0.398275199928321","1","1","1","1","1","1","1","1","1"
"250061","img/neutralC/CFD-BM-205-001-N.jpg","img/neutralC/CFD-MF-309-002-N.jpg","img/neutralC/CFD-WF-017-003-N.jpg","1","1","1","0","0","1","0.398275199928321","0.383707599947229","0.423545800033025","1","1","1","1","1","1","1","1","1"
"250061","img/neutralC/CFD-WF-017-003-N.jpg","img/neutralC/CFD-BM-205-001-N.jpg","img/neutralC/CFD-BF-041-001-N.jpg","1","1","0","1","0","1","0.423545800033025","0.398275199928321","0.336660300032236","1","1","1","1","1","1","1","1","1"
"250061","img/neutralC/CFD-BF-041-001-N.jpg","img/neutralC/CFD-WF-017-003-N.jpg","img/neutralC/CFD-LM-216-082-N.jpg","0","1","0","1","1","0","0.336660300032236","0.423545800033025","0.307124700048007","1","1","1","1","1","1","1","1","1"
"250061","img/neutralC/CFD-LM-216-082-N.jpg","img/neutralC/CFD-BF-041-001-N.jpg","img/neutralC/CFD-BF-212-315-N.jpg","0","0","1","0","1","1","0.307124700048007","0.336660300032236","0.426450800034218","1","1","1","1","1","1","1","1","1"
"250061","img/neutralC/CFD-BF-212-315-N.jpg","img/neutralC/CFD-LM-216-082-N.jpg","img/neutralC/CFD-LM-201-057-N.jpg","1","0","1","1","0","1","0.426450800034218","0.307124700048007","0.400099199963734","1","1","1","1","1","1","1","1","1"
"250061","img/neutralC/CFD-LM-201-057-N.jpg","img/neutralC/CFD-BF-212-315-N.jpg","img/neutralC/CFD-WF-228-196-N.jpg","1","1","0","1","1","0","0.400099199963734","0.426450800034218","0.381871399935335","1","1","1","1","1","1","1","1","1"
"250061","img/neutralC/CFD-WF-228-196-N.jpg","img/neutralC/CFD-LM-201-057-N.jpg","img/neutralC/CFD-WM-012-001-N.jpg","0","1","1","0","1","1","0.381871399935335","0.400099199963734","0.344566500047222","1","1","1","1","1","1","1","1","1"
"250061","img/neutralC/CFD-WM-012-001-N.jpg","img/neutralC/CFD-WF-228-196-N.jpg","img/neutralC/CFD-AM-247-165-N.jpg","1","0","1","1","0","1","0.344566500047222","0.381871399935335","0.35700530000031","1","1","1","1","1","1","1","1","1"
"250061","img/neutralC/CFD-AM-247-165-N.jpg","img/neutralC/CFD-WM-012-001-N.jpg","img/neutralC/CFD-WM-026-001-N.jpg","1","1","1","1","1","1","0.35700530000031","0.344566500047222","0.342841700068675","1","1","1","1","1","1","1","1","1"
"250061","img/neutralC/CFD-WM-026-001-N.jpg","img/neutralC/CFD-AM-247-165-N.jpg","img/neutralC/CFD-LM-214-165-N.jpg","1","1","1","1","1","1","0.342841700068675","0.35700530000031","0.456085199955851","1","1","1","1","1","1","1","1","1"
"250061","img/neutralC/CFD-LM-214-165-N.jpg","img/neutralC/CFD-WM-026-001-N.jpg","img/neutralC/CFD-WM-249-239-N.jpg","1","1","1","1","1","1","0.456085199955851","0.342841700068675","0.442925799987279","1","1","1","1","1","1","1","1","1"
"250061","img/neutralC/CFD-WM-249-239-N.jpg","img/neutralC/CFD-LM-214-165-N.jpg","img/neutralC/CFD-BM-248-128-N.jpg","1","1","0","1","1","0","0.442925799987279","0.456085199955851","0.435312799992971","1","1","1","1","1","1","1","1","1"
"250061","img/neutralC/CFD-BM-248-128-N.jpg","img/neutralC/CFD-WM-249-239-N.jpg","img/neutralC/CFD-AF-240-206-N.jpg","0","1","1","0","1","0","0.435312799992971","0.442925799987279","0.3588546999963","1","1","1","1","1","1","1","1","1"
"250061","img/neutralC/CFD-AF-240-206-N.jpg","img/neutralC/CFD-BM-248-128-N.jpg","img/neutralC/CFD-LM-243-075-N.jpg","1","0","1","0","0","0","0.3588546999963","0.435312799992971","0.323832100024447","1","1","1","1","1","1","1","1","1"
"250061","img/neutralC/CFD-LM-243-075-N.jpg","img/neutralC/CFD-AF-240-206-N.jpg","img/neutralC/CFD-WM-212-097-N.jpg","1","1","1","0","0","0","0.323832100024447","0.3588546999963","0.468520299997181","1","1","1","1","1","1","1","1","1"
"250061","img/neutralC/CFD-WM-212-097-N.jpg","img/neutralC/CFD-LM-243-075-N.jpg","img/neutralC/CFD-BF-228-212-N.jpg","1","1","0","0","0","0","0.468520299997181","0.323832100024447","0.341380099998787","1","1","1","1","1","1","1","1","1"
"250061","img/neutralC/CFD-BF-228-212-N.jpg","img/neutralC/CFD-WM-212-097-N.jpg","img/neutralC/CFD-BF-202-109-N.jpg","0","1","1","0","0","1","0.341380099998787","0.468520299997181","0.323172500007786","1","1","1","1","1","1","1","1","1"
"250061","img/neutralC/CFD-BF-202-109-N.jpg","img/neutralC/CFD-BF-228-212-N.jpg","img/neutralC/CFD-BF-025-002-N.jpg","1","0","1","1","0","0","0.323172500007786","0.341380099998787","0.524411499965936","1","1","1","1","1","1","1","1","1"
"250061","img/neutralC/CFD-BF-025-002-N.jpg","img/neutralC/CFD-BF-202-109-N.jpg","img/neutralC/CFD-BM-251-013-N.jpg","1","1","1","0","1","1","0.524411499965936","0.323172500007786","0.332463999977335","1","1","1","1","1","1","1","1","1"
"250061","img/neutralC/CFD-BM-251-013-N.jpg","img/neutralC/CFD-BF-025-002-N.jpg","img/neutralC/CFD-MF-335-002-N.jpg","1","1","1","1","0","0","0.332463999977335","0.524411499965936","0.427072699996643","1","1","1","1","1","1","1","1","1"
"250061","img/neutralC/CFD-MF-335-002-N.jpg","img/neutralC/CFD-BM-251-013-N.jpg","img/neutralC/CFD-WM-019-003-N.jpg","1","1","1","0","1","1","0.427072699996643","0.332463999977335","0.350208299933001","1","1","1","1","1","1","1","1","1"
"250061","img/neutralC/CFD-WM-019-003-N.jpg","img/neutralC/CFD-MF-335-002-N.jpg","img/neutralC/CFD-WM-215-041-N.jpg","1","1","1","1","0","0","0.350208299933001","0.427072699996643","0.480606999946758","1","1","1","1","1","1","1","1","1"
"250061","img/neutralC/CFD-WM-215-041-N.jpg","img/neutralC/CFD-WM-019-003-N.jpg","img/neutralC/CFD-WF-240-083-N.jpg","1","1","1","0","1","0","0.480606999946758","0.350208299933001","0.497480500023812","1","1","1","1","1","1","1","1","1"
"250061","img/neutralC/CFD-WF-240-083-N.jpg","img/neutralC/CFD-WM-215-041-N.jpg","img/neutralC/CFD-WF-005-010-N.jpg","1","1","0","0","0","0","0.497480500023812","0.480606999946758","0.338180000078864","1","1","1","1","1","1","1","1","1"
"250061","img/neutralC/CFD-WF-005-010-N.jpg","img/neutralC/CFD-WF-240-083-N.jpg","img/neutralC/CFD-IM-646-023-N.jpg","0","1","1","0","0","1","0.338180000078864","0.497480500023812","0.34046929993201","1","1","1","1","1","1","1","1","1"
"250061","img/neutralC/CFD-IM-646-023-N.jpg","img/neutralC/CFD-WF-005-010-N.jpg","img/neutralC/CFD-LM-244-068-N.jpg","1","0","1","1","0","1","0.34046929993201","0.338180000078864","0.455092999967746","1","1","1","1","1","1","1","1","1"
"250061","img/neutralC/CFD-LM-244-068-N.jpg","img/neutralC/CFD-IM-646-023-N.jpg","img/neutralC/CFD-WM-006-002-N.jpg","1","1","1","1","1","0","0.455092999967746","0.34046929993201","0.434971899958327","1","1","1","1","1","1","1","1","1"
"250061","img/neutralC/CFD-WM-006-002-N.jpg","img/neutralC/CFD-LM-244-068-N.jpg","img/neutralC/CFD-MM-317-061-N.jpg","1","1","1","0","1","1","0.434971899958327","0.455092999967746","0.301871999981813","1","1","1","1","1","1","1","1","1"
"250061","img/neutralC/CFD-MM-317-061-N.jpg","img/neutralC/CFD-WM-006-002-N.jpg","img/neutralC/CFD-IM-648-337-N.jpg","1","1","1","1","0","0","0.301871999981813","0.434971899958327","0.330317799933255","1","1","1","1","1","1","1","1","1"
"250061","img/neutralC/CFD-IM-648-337-N.jpg","img/neutralC/CFD-MM-317-061-N.jpg",NA,"1","1",NA,"0","1",NA,"0.330317799933255","0.301871999981813",NA,"1","1",NA,"1","1",NA,"1","1",NA
"250061","img/neutralC/CFD-IF-744-114-N.jpg",NA,"img/neutralC/CFD-BM-003-003-N.jpg","0",NA,"1","0",NA,"0","0.947352699935436",NA,"0.566230900003575","1",NA,"1","1",NA,"1","1",NA,"1"
"250061","img/neutralC/CFD-BM-003-003-N.jpg","img/neutralC/CFD-IF-744-114-N.jpg","img/neutralC/CFD-BM-010-003-N.jpg","1","0","1","0","0","0","0.566230900003575","0.947352699935436","0.371333600021899","1","1","1","1","1","1","1","1","1"
"250061","img/neutralC/CFD-BM-010-003-N.jpg","img/neutralC/CFD-BM-003-003-N.jpg","img/neutralC/CFD-BM-028-002-N.jpg","1","1","1","0","0","1","0.371333600021899","0.566230900003575","0.409836699953303","1","1","1","1","1","1","1","1","1"
"250061","img/neutralC/CFD-BM-028-002-N.jpg","img/neutralC/CFD-BM-010-003-N.jpg","img/neutralC/CFD-AF-227-207-N.jpg","1","1","1","1","0","1","0.409836699953303","0.371333600021899","0.355475799995475","1","1","1","1","1","1","1","1","1"
"250061","img/neutralC/CFD-AF-227-207-N.jpg","img/neutralC/CFD-BM-028-002-N.jpg","img/neutralC/CFD-LF-241-188-N.jpg","1","1","1","1","1","0","0.355475799995475","0.409836699953303","0.410880699986592","1","1","1","1","1","1","1","1","1"
"250061","img/neutralC/CFD-LF-241-188-N.jpg","img/neutralC/CFD-AF-227-207-N.jpg","img/neutralC/CFD-AF-210-050-N.jpg","1","1","1","0","1","1","0.410880699986592","0.355475799995475","0.574986499967054","1","1","1","1","1","1","1","1","1"
"250061","img/neutralC/CFD-AF-210-050-N.jpg","img/neutralC/CFD-LF-241-188-N.jpg","img/neutralC/CFD-BM-213-134-N.jpg","1","1","1","1","0","1","0.574986499967054","0.410880699986592","0.287560700089671","1","1","1","1","1","1","1","1","1"
"250061","img/neutralC/CFD-BM-213-134-N.jpg","img/neutralC/CFD-AF-210-050-N.jpg","img/neutralC/CFD-WF-033-002-N.jpg","1","1","1","1","1","1","0.287560700089671","0.574986499967054","0.386059499927796","1","1","1","1","1","1","1","1","1"
"250061","img/neutralC/CFD-WF-033-002-N.jpg","img/neutralC/CFD-BM-213-134-N.jpg","img/neutralC/CFD-WF-006-002-N.jpg","1","1","1","1","1","0","0.386059499927796","0.287560700089671","0.44693350000307","1","1","1","1","1","1","1","1","1"
"250061","img/neutralC/CFD-WF-006-002-N.jpg","img/neutralC/CFD-WF-033-002-N.jpg","img/neutralC/CFD-IF-673-389-N.jpg","1","1","1","0","1","0","0.44693350000307","0.386059499927796","0.374479199992493","1","1","1","1","1","1","1","1","1"
"250061","img/neutralC/CFD-IF-673-389-N.jpg","img/neutralC/CFD-WF-006-002-N.jpg","img/neutralC/CFD-BM-013-002-N.jpg","1","1","1","0","0","1","0.374479199992493","0.44693350000307","0.256295899976976","1","1","1","1","1","1","1","1","1"
"250061","img/neutralC/CFD-BM-013-002-N.jpg","img/neutralC/CFD-IF-673-389-N.jpg","img/neutralC/CFD-BF-004-014-N.jpg","1","1","1","1","0","1","0.256295899976976","0.374479199992493","0.341000300017186","1","1","1","1","1","1","1","1","1"
"250061","img/neutralC/CFD-BF-004-014-N.jpg","img/neutralC/CFD-BM-013-002-N.jpg","img/neutralC/CFD-WM-254-152-N.jpg","1","1","0","1","1","1","0.341000300017186","0.256295899976976","0.290192299988121","1","1","1","1","1","1","1","1","1"
"250061","img/neutralC/CFD-WM-254-152-N.jpg","img/neutralC/CFD-BF-004-014-N.jpg","img/neutralC/CFD-WF-223-133-N.jpg","0","1","1","1","1","0","0.290192299988121","0.341000300017186","0.352183600072749","1","1","1","1","1","1","1","1","1"
"250061","img/neutralC/CFD-WF-223-133-N.jpg","img/neutralC/CFD-WM-254-152-N.jpg","img/neutralC/CFD-IM-659-359-N.jpg","1","0","1","0","1","0","0.352183600072749","0.290192299988121","0.49548069993034","1","1","1","1","1","1","1","1","1"
"250061","img/neutralC/CFD-IM-659-359-N.jpg","img/neutralC/CFD-WF-223-133-N.jpg","img/neutralC/CFD-WM-228-065-N.jpg","1","1","1","0","0","0","0.49548069993034","0.352183600072749","0.408524800091982","1","1","1","1","1","1","1","1","1"
"250061","img/neutralC/CFD-WM-228-065-N.jpg","img/neutralC/CFD-IM-659-359-N.jpg","img/neutralC/CFD-IM-701-312-N.jpg","1","1","1","0","0","0","0.408524800091982","0.49548069993034","0.465052000014111","1","1","1","1","1","1","1","1","1"
"250061","img/neutralC/CFD-IM-701-312-N.jpg","img/neutralC/CFD-WM-228-065-N.jpg","img/neutralC/CFD-WM-202-107-N.jpg","1","1","1","0","0","1","0.465052000014111","0.408524800091982","0.288038300001062","1","1","1","1","1","1","1","1","1"
"250061","img/neutralC/CFD-WM-202-107-N.jpg","img/neutralC/CFD-IM-701-312-N.jpg","img/neutralC/CFD-LF-210-220-N.jpg","1","1","1","1","0","1","0.288038300001062","0.465052000014111","0.268989000003785","1","1","1","1","1","1","1","1","1"
"250061","img/neutralC/CFD-LF-210-220-N.jpg","img/neutralC/CFD-WM-202-107-N.jpg","img/neutralC/CFD-LF-225-164-N.jpg","1","1","1","1","1","1","0.268989000003785","0.288038300001062","0.44195889995899","1","1","1","1","1","1","1","1","1"
"250061","img/neutralC/CFD-LF-225-164-N.jpg","img/neutralC/CFD-LF-210-220-N.jpg","img/neutralC/CFD-IF-625-225-N.jpg","1","1","1","1","1","0","0.44195889995899","0.268989000003785","0.444613400031812","1","1","1","1","1","1","1","1","1"
"250061","img/neutralC/CFD-IF-625-225-N.jpg","img/neutralC/CFD-LF-225-164-N.jpg","img/neutralC/CFD-LM-238-129-N.jpg","1","1","1","0","1","1","0.444613400031812","0.44195889995899","0.372259699972346","1","1","1","1","1","1","1","1","1"
"250061","img/neutralC/CFD-LM-238-129-N.jpg","img/neutralC/CFD-IF-625-225-N.jpg","img/neutralC/CFD-IM-738-191-N.jpg","1","1","0","1","0","0","0.372259699972346","0.444613400031812","0.442975200014189","1","1","1","1","1","1","1","1","1"
"250061","img/neutralC/CFD-IM-738-191-N.jpg","img/neutralC/CFD-LM-238-129-N.jpg","img/neutralC/CFD-AM-221-184-N.jpg","0","1","1","0","1","1","0.442975200014189","0.372259699972346","0.302454399992712","1","1","1","1","1","1","1","1","1"
"250061","img/neutralC/CFD-AM-221-184-N.jpg","img/neutralC/CFD-IM-738-191-N.jpg","img/neutralC/CFD-LF-208-127-N.jpg","1","0","1","1","0","0","0.302454399992712","0.442975200014189","0.265851199976169","1","1","1","1","1","1","1","1","1"
"250061","img/neutralC/CFD-LF-208-127-N.jpg","img/neutralC/CFD-AM-221-184-N.jpg","img/neutralC/CFD-MF-336-016-N.jpg","1","1","1","0","1","1","0.265851199976169","0.302454399992712","0.30755639995914","1","1","1","1","1","1","1","1","1"
"250061","img/neutralC/CFD-MF-336-016-N.jpg","img/neutralC/CFD-LF-208-127-N.jpg","img/neutralC/CFD-AF-239-171-N.jpg","1","1","0","1","0","1","0.30755639995914","0.265851199976169","0.265278199920431","1","1","1","1","1","1","1","1","1"
"250061","img/neutralC/CFD-AF-239-171-N.jpg","img/neutralC/CFD-MF-336-016-N.jpg","img/neutralC/CFD-BF-045-003-N.jpg","0","1","1","1","1","0","0.265278199920431","0.30755639995914","0.460564900073223","1","1","1","1","1","1","1","1","1"
"250061","img/neutralC/CFD-BF-045-003-N.jpg","img/neutralC/CFD-AF-239-171-N.jpg","img/neutralC/CFD-LM-247-095-N.jpg","1","0","1","0","1","0","0.460564900073223","0.265278199920431","0.471247100038454","1","1","1","1","1","1","1","1","1"
"250061","img/neutralC/CFD-LM-247-095-N.jpg","img/neutralC/CFD-BF-045-003-N.jpg","img/neutralC/CFD-MF-312-002-N.jpg","1","1","1","0","0","1","0.471247100038454","0.460564900073223","0.325507899979129","1","1","1","1","1","1","1","1","1"
"250061","img/neutralC/CFD-MF-312-002-N.jpg","img/neutralC/CFD-LM-247-095-N.jpg","img/neutralC/CFD-BF-222-240-N.jpg","1","1","1","1","0","0","0.325507899979129","0.471247100038454","0.340907100006007","1","1","1","1","1","1","1","1","1"
"250061","img/neutralC/CFD-BF-222-240-N.jpg","img/neutralC/CFD-MF-312-002-N.jpg",NA,"1","1",NA,"0","1",NA,"0.340907100006007","0.325507899979129",NA,"1","1",NA,"1","1",NA,"1","1",NA
"250061","img/neutralC/CFD-BM-001-014-N.jpg",NA,"img/neutralC/CFD-MF-305-014-N.jpg","1",NA,"1","0",NA,"1","0.53420529991854",NA,"0.309000200009905","1",NA,"1","1",NA,"1","1",NA,"1"
"250061","img/neutralC/CFD-MF-305-014-N.jpg","img/neutralC/CFD-BM-001-014-N.jpg","img/neutralC/CFD-AF-233-190-N.jpg","1","1","1","1","0","0","0.309000200009905","0.53420529991854","0.270236400072463","1","1","1","1","1","1","1","1","1"
"250061","img/neutralC/CFD-AF-233-190-N.jpg","img/neutralC/CFD-MF-305-014-N.jpg","img/neutralC/CFD-LF-206-078-N.jpg","1","1","1","0","1","1","0.270236400072463","0.309000200009905","0.292854800005443","1","1","1","1","1","1","1","1","1"
"250061","img/neutralC/CFD-LF-206-078-N.jpg","img/neutralC/CFD-AF-233-190-N.jpg","img/neutralC/CFD-MF-357-002-N.jpg","1","1","1","1","0","0","0.292854800005443","0.270236400072463","0.341044300002977","1","1","1","1","1","1","1","1","1"
"250061","img/neutralC/CFD-MF-357-002-N.jpg","img/neutralC/CFD-LF-206-078-N.jpg","img/neutralC/CFD-BM-250-170-N.jpg","1","1","1","0","1","1","0.341044300002977","0.292854800005443","0.364322100067511","1","1","1","1","1","1","1","1","1"
"250061","img/neutralC/CFD-BM-250-170-N.jpg","img/neutralC/CFD-MF-357-002-N.jpg","img/neutralC/CFD-WF-007-001-N.jpg","1","1","1","1","0","1","0.364322100067511","0.341044300002977","0.328391600050963","1","1","1","1","1","1","1","1","1"
"250061","img/neutralC/CFD-WF-007-001-N.jpg","img/neutralC/CFD-BM-250-170-N.jpg","img/neutralC/CFD-BF-237-172-N.jpg","1","1","1","1","1","1","0.328391600050963","0.364322100067511","0.282096599927172","1","1","1","1","1","1","1","1","1"
"250061","img/neutralC/CFD-BF-237-172-N.jpg","img/neutralC/CFD-WF-007-001-N.jpg","img/neutralC/CFD-LM-225-130-N.jpg","1","1","1","1","1","0","0.282096599927172","0.328391600050963","0.598907900042832","1","1","1","1","1","1","1","1","1"
"250061","img/neutralC/CFD-LM-225-130-N.jpg","img/neutralC/CFD-BF-237-172-N.jpg","img/neutralC/CFD-BM-217-082-N.jpg","1","1","0","0","1","0","0.598907900042832","0.282096599927172","0.393268099986017","1","1","1","1","1","1","1","1","1"
"250061","img/neutralC/CFD-BM-217-082-N.jpg","img/neutralC/CFD-LM-225-130-N.jpg","img/neutralC/CFD-IM-680-369-N.jpg","0","1","1","0","0","1","0.393268099986017","0.598907900042832","0.41234230005648","1","1","1","1","1","1","1","1","1"
"250061","img/neutralC/CFD-IM-680-369-N.jpg","img/neutralC/CFD-BM-217-082-N.jpg","img/neutralC/CFD-WM-015-002-N.jpg","1","0","1","1","0","0","0.41234230005648","0.393268099986017","0.277048300020397","1","1","1","1","1","1","1","1","1"
"250061","img/neutralC/CFD-WM-015-002-N.jpg","img/neutralC/CFD-IM-680-369-N.jpg","img/neutralC/CFD-IF-660-464-N.jpg","1","1","1","0","1","0","0.277048300020397","0.41234230005648","0.350949199986644","1","1","1","1","1","1","1","1","1"
"250061","img/neutralC/CFD-IF-660-464-N.jpg","img/neutralC/CFD-WM-015-002-N.jpg","img/neutralC/CFD-MF-303-013-N.jpg","1","1","0","0","0","0","0.350949199986644","0.277048300020397","0.287692199926823","1","1","1","1","1","1","1","1","1"
"250061","img/neutralC/CFD-MF-303-013-N.jpg","img/neutralC/CFD-IF-660-464-N.jpg","img/neutralC/CFD-WM-218-074-N.jpg","0","1","0","0","0","1","0.287692199926823","0.350949199986644","0.311594999977387","1","1","1","1","1","1","1","1","1"
"250061","img/neutralC/CFD-WM-218-074-N.jpg","img/neutralC/CFD-MF-303-013-N.jpg","img/neutralC/CFD-MM-324-069-N.jpg","0","0","1","1","0","1","0.311594999977387","0.287692199926823","0.486104300012812","1","1","1","1","1","1","1","1","1"
"250061","img/neutralC/CFD-MM-324-069-N.jpg","img/neutralC/CFD-WM-218-074-N.jpg","img/neutralC/CFD-IM-706-002-N.jpg","1","0","0","1","1","0","0.486104300012812","0.311594999977387","0.394342600018717","1","1","1","1","1","1","1","1","1"
"250061","img/neutralC/CFD-IM-706-002-N.jpg","img/neutralC/CFD-MM-324-069-N.jpg","img/neutralC/CFD-AF-253-130-N.jpg","0","1","1","0","1","1","0.394342600018717","0.486104300012812","0.411295700003393","1","1","1","1","1","1","1","1","1"
"250061","img/neutralC/CFD-AF-253-130-N.jpg","img/neutralC/CFD-IM-706-002-N.jpg","img/neutralC/CFD-LM-200-045-N.jpg","1","0","1","1","0","1","0.411295700003393","0.394342600018717","0.380877200048417","1","1","1","1","1","1","1","1","1"
"250061","img/neutralC/CFD-LM-200-045-N.jpg","img/neutralC/CFD-AF-253-130-N.jpg","img/neutralC/CFD-LF-255-088-N.jpg","1","1","1","1","1","0","0.380877200048417","0.411295700003393","0.436398399993777","1","1","1","1","1","1","1","1","1"
"250061","img/neutralC/CFD-LF-255-088-N.jpg","img/neutralC/CFD-LM-200-045-N.jpg","img/neutralC/CFD-WM-209-038-N.jpg","1","1","0","0","1","0","0.436398399993777","0.380877200048417","0.385650900076143","1","1","1","1","1","1","1","1","1"
"250061","img/neutralC/CFD-WM-209-038-N.jpg","img/neutralC/CFD-LF-255-088-N.jpg","img/neutralC/CFD-IM-664-651-N.jpg","0","1","1","0","0","1","0.385650900076143","0.436398399993777","0.394998000003398","1","1","1","1","1","1","1","1","1"
"250061","img/neutralC/CFD-IM-664-651-N.jpg","img/neutralC/CFD-WM-209-038-N.jpg","img/neutralC/CFD-BF-014-002-N.jpg","1","0","1","1","0","1","0.394998000003398","0.385650900076143","0.301512000034563","1","1","1","1","1","1","1","1","1"
"250061","img/neutralC/CFD-BF-014-002-N.jpg","img/neutralC/CFD-IM-664-651-N.jpg","img/neutralC/CFD-WF-030-002-N.jpg","1","1","1","1","1","0","0.301512000034563","0.394998000003398","0.365466700051911","1","1","1","1","1","1","1","1","1"
"250061","img/neutralC/CFD-WF-030-002-N.jpg","img/neutralC/CFD-BF-014-002-N.jpg","img/neutralC/CFD-IM-667-369-N.jpg","1","1","0","0","1","0","0.365466700051911","0.301512000034563","0.364966299966909","1","1","1","1","1","1","1","1","2"
"250061","img/neutralC/CFD-IM-667-369-N.jpg","img/neutralC/CFD-WF-030-002-N.jpg","img/neutralC/CFD-WF-244-163-N.jpg","0","1","1","0","0","1","0.364966299966909","0.365466700051911","0.389861200004816","1","1","1","1","1","1","2","1","1"
"250061","img/neutralC/CFD-WF-244-163-N.jpg","img/neutralC/CFD-IM-667-369-N.jpg","img/neutralC/CFD-MF-343-001-N.jpg","1","0","1","1","0","1","0.389861200004816","0.364966299966909","0.34452040004544","1","1","1","1","1","1","1","2","1"
"250061","img/neutralC/CFD-MF-343-001-N.jpg","img/neutralC/CFD-WF-244-163-N.jpg","img/neutralC/CFD-WF-222-092-N.jpg","1","1","1","1","1","1","0.34452040004544","0.389861200004816","0.380898199975491","1","1","1","1","1","1","1","1","1"
"250061","img/neutralC/CFD-WF-222-092-N.jpg","img/neutralC/CFD-MF-343-001-N.jpg","img/neutralC/CFD-MF-316-001-N.jpg","1","1","1","1","1","0","0.380898199975491","0.34452040004544","0.284002300002612","1","1","1","1","1","1","1","1","1"
"250061","img/neutralC/CFD-MF-316-001-N.jpg","img/neutralC/CFD-WF-222-092-N.jpg","img/neutralC/CFD-AM-220-134-N.jpg","1","1","1","0","1","0","0.284002300002612","0.380898199975491","0.435653200023808","1","1","1","1","1","1","1","1","1"
"250061","img/neutralC/CFD-AM-220-134-N.jpg","img/neutralC/CFD-MF-316-001-N.jpg","img/neutralC/CFD-IF-626-375-N.jpg","1","1","1","0","0","0","0.435653200023808","0.284002300002612","0.315134799922816","1","1","1","1","1","1","1","1","1"
"250061","img/neutralC/CFD-IF-626-375-N.jpg","img/neutralC/CFD-AM-220-134-N.jpg","img/neutralC/CFD-IM-702-101-N.jpg","1","1","1","0","0","1","0.315134799922816","0.435653200023808","0.390430200030096","1","1","1","1","1","1","1","1","1"
"250061","img/neutralC/CFD-IM-702-101-N.jpg","img/neutralC/CFD-IF-626-375-N.jpg",NA,"1","1",NA,"1","0",NA,"0.390430200030096","0.315134799922816",NA,"1","1",NA,"1","1",NA,"1","1",NA
"250061","img/neutralC/CFD-WM-237-052-N.jpg",NA,"img/neutralC/CFD-AM-244-222-N.jpg","1",NA,"0","1",NA,"0","0.487046299967915",NA,"0.30076590005774","1",NA,"1","1",NA,"1","1",NA,"1"
"250061","img/neutralC/CFD-AM-244-222-N.jpg","img/neutralC/CFD-WM-237-052-N.jpg","img/neutralC/CFD-WF-018-017-N.jpg","0","1","1","0","1","1","0.30076590005774","0.487046299967915","0.243425099994056","1","1","1","1","1","1","1","1","1"
"250061","img/neutralC/CFD-WF-018-017-N.jpg","img/neutralC/CFD-AM-244-222-N.jpg","img/neutralC/CFD-WF-245-084-N.jpg","1","0","1","1","0","1","0.243425099994056","0.30076590005774","0.318796099978499","1","1","1","1","1","1","1","1","1"
"250061","img/neutralC/CFD-WF-245-084-N.jpg","img/neutralC/CFD-WF-018-017-N.jpg","img/neutralC/CFD-WM-201-063-N.jpg","1","1","1","1","1","1","0.318796099978499","0.243425099994056","0.373693100060336","1","1","1","1","1","1","1","1","1"
"250061","img/neutralC/CFD-WM-201-063-N.jpg","img/neutralC/CFD-WF-245-084-N.jpg","img/neutralC/CFD-MF-321-003-N.jpg","1","1","1","1","1","0","0.373693100060336","0.318796099978499","0.44610709999688","1","1","1","1","1","1","1","1","1"
"250061","img/neutralC/CFD-MF-321-003-N.jpg","img/neutralC/CFD-WM-201-063-N.jpg","img/neutralC/CFD-WM-255-219-N.jpg","1","1","1","0","1","0","0.44610709999688","0.373693100060336","0.436092799995095","1","1","1","1","1","1","1","1","1"
"250061","img/neutralC/CFD-WM-255-219-N.jpg","img/neutralC/CFD-MF-321-003-N.jpg","img/neutralC/CFD-WM-009-002-N.jpg","1","1","0","0","0","0","0.436092799995095","0.44610709999688","0.258625200018287","1","1","1","1","1","1","1","1","1"
"250061","img/neutralC/CFD-WM-009-002-N.jpg","img/neutralC/CFD-WM-255-219-N.jpg","img/neutralC/CFD-IF-629-234-N.jpg","0","1","0","0","0","0","0.258625200018287","0.436092799995095","0.291955700027756","1","1","1","1","1","1","1","1","1"
"250061","img/neutralC/CFD-IF-629-234-N.jpg","img/neutralC/CFD-WM-009-002-N.jpg","img/neutralC/CFD-BM-200-046-N.jpg","0","0","1","0","0","0","0.291955700027756","0.258625200018287","0.431993999984115","1","1","1","1","1","1","1","1","1"
"250061","img/neutralC/CFD-BM-200-046-N.jpg","img/neutralC/CFD-IF-629-234-N.jpg","img/neutralC/CFD-AF-221-147-N.jpg","1","0","1","0","0","0","0.431993999984115","0.291955700027756","0.358809900004417","1","1","1","1","1","1","1","1","1"
"250061","img/neutralC/CFD-AF-221-147-N.jpg","img/neutralC/CFD-BM-200-046-N.jpg","img/neutralC/CFD-WF-238-023-N.jpg","1","1","1","0","0","0","0.358809900004417","0.431993999984115","0.441595500102267","1","1","1","1","1","1","1","1","1"
"250061","img/neutralC/CFD-WF-238-023-N.jpg","img/neutralC/CFD-AF-221-147-N.jpg","img/neutralC/CFD-WM-221-091-N.jpg","1","1","0","0","0","0","0.441595500102267","0.358809900004417","0.318499200046062","1","1","1","1","1","1","1","1","1"
"250061","img/neutralC/CFD-WM-221-091-N.jpg","img/neutralC/CFD-WF-238-023-N.jpg","img/neutralC/CFD-WM-013-001-N.jpg","0","1","1","0","0","1","0.318499200046062","0.441595500102267","0.394472799962386","1","1","1","1","1","1","1","1","1"
"250061","img/neutralC/CFD-WM-013-001-N.jpg","img/neutralC/CFD-WM-221-091-N.jpg","img/neutralC/CFD-BF-254-201-N.jpg","1","0","0","1","0","0","0.394472799962386","0.318499200046062","0.424403000040911","1","1","1","1","1","1","1","1","1"
"250061","img/neutralC/CFD-BF-254-201-N.jpg","img/neutralC/CFD-WM-013-001-N.jpg","img/neutralC/CFD-WF-027-003-N.jpg","0","1","1","0","1","1","0.424403000040911","0.394472799962386","0.288478399976157","1","1","1","1","1","1","1","1","1"
"250061","img/neutralC/CFD-WF-027-003-N.jpg","img/neutralC/CFD-BF-254-201-N.jpg","img/neutralC/CFD-WF-023-003-N.jpg","1","0","1","1","0","1","0.288478399976157","0.424403000040911","0.370971000054851","1","1","1","1","1","1","1","1","1"
"250061","img/neutralC/CFD-WF-023-003-N.jpg","img/neutralC/CFD-WF-027-003-N.jpg","img/neutralC/CFD-MM-321-021-N.jpg","1","1","1","1","1","0","0.370971000054851","0.288478399976157","0.589047999936156","1","1","1","1","1","1","1","1","1"
"250061","img/neutralC/CFD-MM-321-021-N.jpg","img/neutralC/CFD-WF-023-003-N.jpg","img/neutralC/CFD-MF-318-022-N.jpg","1","1","1","0","1","1","0.589047999936156","0.370971000054851","0.330638899933547","1","1","1","1","1","1","1","1","1"
"250061","img/neutralC/CFD-MF-318-022-N.jpg","img/neutralC/CFD-MM-321-021-N.jpg","img/neutralC/CFD-IM-627-178-N.jpg","1","1","1","1","0","1","0.330638899933547","0.589047999936156","0.340795300086029","1","1","1","1","1","1","1","1","1"
"250061","img/neutralC/CFD-IM-627-178-N.jpg","img/neutralC/CFD-MF-318-022-N.jpg","img/neutralC/CFD-LF-215-157-N.jpg","1","1","1","1","1","0","0.340795300086029","0.330638899933547","0.267002699896693","1","1","1","1","1","1","1","1","1"
"250061","img/neutralC/CFD-LF-215-157-N.jpg","img/neutralC/CFD-IM-627-178-N.jpg","img/neutralC/CFD-MF-342-022-N.jpg","1","1","0","0","1","1","0.267002699896693","0.340795300086029","0.349867400014773","1","1","1","1","1","1","1","1","2"
"250061","img/neutralC/CFD-MF-342-022-N.jpg","img/neutralC/CFD-LF-215-157-N.jpg","img/neutralC/CFD-BM-204-003-N.jpg","0","1","1","1","0","0","0.349867400014773","0.267002699896693","0.430119299911894","1","1","1","1","1","1","2","1","1"
"250061","img/neutralC/CFD-BM-204-003-N.jpg","img/neutralC/CFD-MF-342-022-N.jpg","img/neutralC/CFD-BF-018-039-N.jpg","1","0","0","0","1","1","0.430119299911894","0.349867400014773","0.245833299937658","1","1","1","1","1","1","1","2","1"
"250061","img/neutralC/CFD-BF-018-039-N.jpg","img/neutralC/CFD-BM-204-003-N.jpg","img/neutralC/CFD-IM-719-221-N.jpg","0","1","1","1","0","0","0.245833299937658","0.430119299911894","0.345761400065385","1","1","1","1","1","1","1","1","1"
"250061","img/neutralC/CFD-IM-719-221-N.jpg","img/neutralC/CFD-BF-018-039-N.jpg","img/neutralC/CFD-LF-211-003-N.jpg","1","0","1","0","1","0","0.345761400065385","0.245833299937658","0.321339200017974","1","1","1","1","1","1","1","1","1"
"250061","img/neutralC/CFD-LF-211-003-N.jpg","img/neutralC/CFD-IM-719-221-N.jpg","img/neutralC/CFD-WF-226-095-N.jpg","1","1","1","0","0","1","0.321339200017974","0.345761400065385","0.34598530002404","1","1","1","1","1","1","1","1","1"
"250061","img/neutralC/CFD-WF-226-095-N.jpg","img/neutralC/CFD-LF-211-003-N.jpg","img/neutralC/CFD-LM-253-075-N.jpg","1","1","0","1","0","0","0.34598530002404","0.321339200017974","0.261713500018232","1","1","1","1","1","1","1","1","1"
"250061","img/neutralC/CFD-LM-253-075-N.jpg","img/neutralC/CFD-WF-226-095-N.jpg","img/neutralC/CFD-BF-218-207-N.jpg","0","1","0","0","1","1","0.261713500018232","0.34598530002404","0.349791300017387","1","1","1","1","1","1","1","1","1"
"250061","img/neutralC/CFD-BF-218-207-N.jpg","img/neutralC/CFD-LM-253-075-N.jpg","img/neutralC/CFD-AF-232-078-N.jpg","0","0","1","1","0","1","0.349791300017387","0.261713500018232","0.313564800075255","1","1","1","1","1","1","1","1","1"
"250061","img/neutralC/CFD-AF-232-078-N.jpg","img/neutralC/CFD-BF-218-207-N.jpg","img/neutralC/CFD-BM-023-029-N.jpg","1","0","1","1","1","1","0.313564800075255","0.349791300017387","0.345804900047369","1","1","1","1","1","1","1","1","1"
"250061","img/neutralC/CFD-BM-023-029-N.jpg","img/neutralC/CFD-AF-232-078-N.jpg","img/neutralC/CFD-IM-700-009-N.jpg","1","1","1","1","1","1","0.345804900047369","0.313564800075255","0.342385000083596","1","1","1","1","1","1","1","1","1"
"250061","img/neutralC/CFD-IM-700-009-N.jpg","img/neutralC/CFD-BM-023-029-N.jpg",NA,"1","1",NA,"1","1",NA,"0.342385000083596","0.345804900047369",NA,"1","1",NA,"1","1",NA,"1","1",NA
"250061","img/neutralC/CFD-IF-623-129-N.jpg",NA,"img/neutralC/CFD-WM-219-008-N.jpg","1",NA,"1","1",NA,"0","0.388090300024487",NA,"0.387290699989535","1",NA,"1","1",NA,"1","1",NA,"1"
"250061","img/neutralC/CFD-WM-219-008-N.jpg","img/neutralC/CFD-IF-623-129-N.jpg","img/neutralC/CFD-BM-225-154-N.jpg","1","1","1","0","1","1","0.387290699989535","0.388090300024487","0.285209499998018","1","1","1","1","1","1","1","1","1"
"250061","img/neutralC/CFD-BM-225-154-N.jpg","img/neutralC/CFD-WM-219-008-N.jpg","img/neutralC/CFD-WF-001-003-N.jpg","1","1","1","1","0","1","0.285209499998018","0.387290699989535","0.36279049993027","1","1","1","1","1","1","1","1","1"
"250061","img/neutralC/CFD-WF-001-003-N.jpg","img/neutralC/CFD-BM-225-154-N.jpg","img/neutralC/CFD-AM-211-052-N.jpg","1","1","1","1","1","1","0.36279049993027","0.285209499998018","0.312738999957219","1","1","1","1","1","1","1","1","1"
"250061","img/neutralC/CFD-AM-211-052-N.jpg","img/neutralC/CFD-WF-001-003-N.jpg","img/neutralC/CFD-WM-033-025-N.jpg","1","1","1","1","1","1","0.312738999957219","0.36279049993027","0.599048999953084","1","1","1","1","1","1","1","1","1"
"250061","img/neutralC/CFD-WM-033-025-N.jpg","img/neutralC/CFD-AM-211-052-N.jpg","img/neutralC/CFD-MF-352-054-N.jpg","1","1","1","1","1","0","0.599048999953084","0.312738999957219","0.346993000013754","1","1","1","1","1","1","1","1","1"
"250061","img/neutralC/CFD-MF-352-054-N.jpg","img/neutralC/CFD-WM-033-025-N.jpg","img/neutralC/CFD-LM-228-188-N.jpg","1","1","1","0","1","1","0.346993000013754","0.599048999953084","0.379245499963872","1","1","1","1","1","1","1","1","1"
"250061","img/neutralC/CFD-LM-228-188-N.jpg","img/neutralC/CFD-MF-352-054-N.jpg","img/neutralC/CFD-WF-200-099-N.jpg","1","1","1","1","0","0","0.379245499963872","0.346993000013754","0.497912500053644","1","1","1","1","1","1","1","1","1"
"250061","img/neutralC/CFD-WF-200-099-N.jpg","img/neutralC/CFD-LM-228-188-N.jpg","img/neutralC/CFD-BF-226-119-N.jpg","1","1","1","0","1","1","0.497912500053644","0.379245499963872","0.3854056999553","1","1","1","1","1","1","1","1","1"
"250061","img/neutralC/CFD-BF-226-119-N.jpg","img/neutralC/CFD-WF-200-099-N.jpg","img/neutralC/CFD-IF-650-315-N.jpg","1","1","1","1","0","0","0.3854056999553","0.497912500053644","0.399996699998155","1","1","1","1","1","1","1","1","1"
"250061","img/neutralC/CFD-IF-650-315-N.jpg","img/neutralC/CFD-BF-226-119-N.jpg","img/neutralC/CFD-WF-036-023-N.jpg","1","1","0","0","1","0","0.399996699998155","0.3854056999553","0.323223700048402","1","1","1","1","1","1","1","1","1"
"250061","img/neutralC/CFD-WF-036-023-N.jpg","img/neutralC/CFD-IF-650-315-N.jpg","img/neutralC/CFD-MF-333-012-N.jpg","0","1","1","0","0","0","0.323223700048402","0.399996699998155","0.307367299916223","1","1","1","1","1","1","1","1","1"
"250061","img/neutralC/CFD-MF-333-012-N.jpg","img/neutralC/CFD-WF-036-023-N.jpg","img/neutralC/CFD-BM-253-004-N.jpg","1","0","1","0","0","1","0.307367299916223","0.323223700048402","0.363294600043446","1","1","1","1","1","1","1","1","1"
"250061","img/neutralC/CFD-BM-253-004-N.jpg","img/neutralC/CFD-MF-333-012-N.jpg","img/neutralC/CFD-IM-671-601-N.jpg","1","1","1","1","0","0","0.363294600043446","0.307367299916223","0.441546599962749","1","1","1","1","1","1","1","1","1"
"250061","img/neutralC/CFD-IM-671-601-N.jpg","img/neutralC/CFD-BM-253-004-N.jpg","img/neutralC/CFD-WM-235-147-N.jpg","1","1","0","0","1","0","0.441546599962749","0.363294600043446","0.42369329999201","1","1","1","1","1","1","1","1","1"
"250061","img/neutralC/CFD-WM-235-147-N.jpg","img/neutralC/CFD-IM-671-601-N.jpg","img/neutralC/CFD-BF-232-187-N.jpg","0","1","1","0","0","1","0.42369329999201","0.441546599962749","0.341674099909142","1","1","1","1","1","1","1","1","1"
"250061","img/neutralC/CFD-BF-232-187-N.jpg","img/neutralC/CFD-WM-235-147-N.jpg","img/neutralC/CFD-LF-220-120-N.jpg","1","0","1","1","0","1","0.341674099909142","0.42369329999201","0.310426100040786","1","1","1","1","1","1","1","1","1"
"250061","img/neutralC/CFD-LF-220-120-N.jpg","img/neutralC/CFD-BF-232-187-N.jpg","img/neutralC/CFD-AM-242-176-N.jpg","1","1","1","1","1","1","0.310426100040786","0.341674099909142","0.373835099977441","1","1","1","1","1","1","1","1","1"
"250061","img/neutralC/CFD-AM-242-176-N.jpg","img/neutralC/CFD-LF-220-120-N.jpg","img/neutralC/CFD-BF-229-179-N.jpg","1","1","0","1","1","0","0.373835099977441","0.310426100040786","0.35042859998066","1","1","1","1","1","1","1","1","1"
"250061","img/neutralC/CFD-BF-229-179-N.jpg","img/neutralC/CFD-AM-242-176-N.jpg","img/neutralC/CFD-MF-359-019-N.jpg","0","1","1","0","1","0","0.35042859998066","0.373835099977441","0.524163900059648","1","1","1","1","1","1","1","1","1"
"250061","img/neutralC/CFD-MF-359-019-N.jpg","img/neutralC/CFD-BF-229-179-N.jpg","img/neutralC/CFD-IM-743-006-N.jpg","1","0","1","0","0","1","0.524163900059648","0.35042859998066","0.330016999971122","1","1","1","1","1","1","1","1","1"
"250061","img/neutralC/CFD-IM-743-006-N.jpg","img/neutralC/CFD-MF-359-019-N.jpg","img/neutralC/CFD-WM-020-001-N.jpg","1","1","1","1","0","1","0.330016999971122","0.524163900059648","0.349780500051565","1","1","1","1","1","1","1","1","1"
"250061","img/neutralC/CFD-WM-020-001-N.jpg","img/neutralC/CFD-IM-743-006-N.jpg","img/neutralC/CFD-IM-703-182-N.jpg","1","1","1","1","1","1","0.349780500051565","0.330016999971122","0.440403399989009","1","1","1","1","1","1","1","1","1"
"250061","img/neutralC/CFD-IM-703-182-N.jpg","img/neutralC/CFD-WM-020-001-N.jpg","img/neutralC/CFD-WF-214-122-N.jpg","1","1","1","1","1","1","0.440403399989009","0.349780500051565","0.501497099990956","1","1","1","1","1","1","1","1","1"
"250061","img/neutralC/CFD-WF-214-122-N.jpg","img/neutralC/CFD-IM-703-182-N.jpg","img/neutralC/CFD-WM-004-010-N.jpg","1","1","1","1","1","0","0.501497099990956","0.440403399989009","0.354810800054111","1","1","1","1","1","1","1","1","1"
"250061","img/neutralC/CFD-WM-004-010-N.jpg","img/neutralC/CFD-WF-214-122-N.jpg","img/neutralC/CFD-AM-251-124-N.jpg","1","1","1","0","1","0","0.354810800054111","0.501497099990956","0.48812660004478","1","1","1","1","1","1","1","1","1"
"250061","img/neutralC/CFD-AM-251-124-N.jpg","img/neutralC/CFD-WM-004-010-N.jpg","img/neutralC/CFD-LM-237-264-N.jpg","1","1","1","0","0","0","0.48812660004478","0.354810800054111","0.742588600027375","1","1","1","1","1","1","1","1","1"
"250061","img/neutralC/CFD-LM-237-264-N.jpg","img/neutralC/CFD-AM-251-124-N.jpg","img/neutralC/CFD-IM-645-001-N.jpg","1","1","1","0","0","0","0.742588600027375","0.48812660004478","0.466438199975528","1","1","1","1","1","1","1","1","1"
"250061","img/neutralC/CFD-IM-645-001-N.jpg","img/neutralC/CFD-LM-237-264-N.jpg","img/neutralC/CFD-BF-038-037-N.jpg","1","1","1","0","0","1","0.466438199975528","0.742588600027375","0.372675699996762","1","1","1","1","1","1","1","1","1"
"250061","img/neutralC/CFD-BF-038-037-N.jpg","img/neutralC/CFD-IM-645-001-N.jpg","img/neutralC/CFD-IM-616-214-N.jpg","1","1","1","1","0","0","0.372675699996762","0.466438199975528","0.384267900022678","1","1","1","1","1","1","1","1","1"
"250061","img/neutralC/CFD-IM-616-214-N.jpg","img/neutralC/CFD-BF-038-037-N.jpg","img/neutralC/CFD-LF-218-072-N.jpg","1","1","1","0","1","0","0.384267900022678","0.372675699996762","0.39334259997122","1","1","1","1","1","1","1","1","1"
"250061","img/neutralC/CFD-LF-218-072-N.jpg","img/neutralC/CFD-IM-616-214-N.jpg",NA,"1","1",NA,"0","0",NA,"0.39334259997122","0.384267900022678",NA,"1","1",NA,"1","1",NA,"1","1",NA
"250061","img/neutralC/CFD-BF-051-035-N.jpg",NA,"img/neutralC/CFD-IM-604-014-N.jpg","0",NA,"1","0",NA,"0","0.604927400010638",NA,"0.391840400057845","1",NA,"1","1",NA,"1","2",NA,"1"
"250061","img/neutralC/CFD-IM-604-014-N.jpg","img/neutralC/CFD-BF-051-035-N.jpg","img/neutralC/CFD-WF-008-002-N.jpg","1","0","1","0","0","1","0.391840400057845","0.604927400010638","0.319707100046799","1","1","1","1","1","1","1","2","1"
"250061","img/neutralC/CFD-WF-008-002-N.jpg","img/neutralC/CFD-IM-604-014-N.jpg","img/neutralC/CFD-WF-248-129-N.jpg","1","1","1","1","0","0","0.319707100046799","0.391840400057845","0.376320600043982","1","1","1","1","1","1","1","1","1"
"250061","img/neutralC/CFD-WF-248-129-N.jpg","img/neutralC/CFD-WF-008-002-N.jpg","img/neutralC/CFD-WM-232-070-N.jpg","1","1","1","0","1","0","0.376320600043982","0.319707100046799","0.353480200050399","1","1","1","1","1","1","1","1","1"
"250061","img/neutralC/CFD-WM-232-070-N.jpg","img/neutralC/CFD-WF-248-129-N.jpg","img/neutralC/CFD-AM-236-090-N.jpg","1","1","1","0","0","1","0.353480200050399","0.376320600043982","0.305376300006174","1","1","1","1","1","1","1","1","1"
"250061","img/neutralC/CFD-AM-236-090-N.jpg","img/neutralC/CFD-WM-232-070-N.jpg","img/neutralC/CFD-LF-226-174-N.jpg","1","1","1","1","0","0","0.305376300006174","0.353480200050399","0.382067700033076","1","1","1","1","1","1","1","1","1"
"250061","img/neutralC/CFD-LF-226-174-N.jpg","img/neutralC/CFD-AM-236-090-N.jpg","img/neutralC/CFD-IM-685-004-N.jpg","1","1","1","0","1","1","0.382067700033076","0.305376300006174","0.317191299982369","1","1","1","1","1","1","1","1","1"
"250061","img/neutralC/CFD-IM-685-004-N.jpg","img/neutralC/CFD-LF-226-174-N.jpg","img/neutralC/CFD-WF-217-085-N.jpg","1","1","1","1","0","1","0.317191299982369","0.382067700033076","0.322663999977522","1","1","1","1","1","1","1","1","1"
"250061","img/neutralC/CFD-WF-217-085-N.jpg","img/neutralC/CFD-IM-685-004-N.jpg","img/neutralC/CFD-AF-215-70-N.jpg","1","1","1","1","1","0","0.322663999977522","0.317191299982369","0.454023399972357","1","1","1","1","1","1","1","1","1"
"250061","img/neutralC/CFD-AF-215-70-N.jpg","img/neutralC/CFD-WF-217-085-N.jpg","img/neutralC/CFD-MF-327-002-N.jpg","1","1","1","0","1","0","0.454023399972357","0.322663999977522","0.389213499962352","1","1","1","1","1","1","1","1","1"
"250061","img/neutralC/CFD-MF-327-002-N.jpg","img/neutralC/CFD-AF-215-70-N.jpg","img/neutralC/CFD-BF-043-003-N.jpg","1","1","1","0","0","0","0.389213499962352","0.454023399972357","0.308957600034773","1","1","1","1","1","1","1","1","1"
"250061","img/neutralC/CFD-BF-043-003-N.jpg","img/neutralC/CFD-MF-327-002-N.jpg","img/neutralC/CFD-MF-329-001-N.jpg","1","1","1","0","0","0","0.308957600034773","0.389213499962352","0.385574700077996","1","1","1","1","1","1","1","1","1"
"250061","img/neutralC/CFD-MF-329-001-N.jpg","img/neutralC/CFD-BF-043-003-N.jpg","img/neutralC/CFD-WM-024-015-N.jpg","1","1","1","0","0","1","0.385574700077996","0.308957600034773","0.391130100004375","1","1","1","1","1","1","1","1","1"
"250061","img/neutralC/CFD-WM-024-015-N.jpg","img/neutralC/CFD-MF-329-001-N.jpg","img/neutralC/CFD-IM-709-103-N.jpg","1","1","1","1","0","0","0.391130100004375","0.385574700077996","0.429071699967608","1","1","1","1","1","1","1","1","1"
"250061","img/neutralC/CFD-IM-709-103-N.jpg","img/neutralC/CFD-WM-024-015-N.jpg","img/neutralC/CFD-LM-217-162-N.jpg","1","1","1","0","1","0","0.429071699967608","0.391130100004375","0.320289999945089","1","1","1","1","1","1","1","1","1"
"250061","img/neutralC/CFD-LM-217-162-N.jpg","img/neutralC/CFD-IM-709-103-N.jpg","img/neutralC/CFD-IM-637-007-N.jpg","1","1","1","0","0","0","0.320289999945089","0.429071699967608","0.388716800021939","1","1","1","1","1","1","1","1","1"
"250061","img/neutralC/CFD-IM-637-007-N.jpg","img/neutralC/CFD-LM-217-162-N.jpg","img/neutralC/CFD-WM-213-076-N.jpg","1","1","1","0","0","1","0.388716800021939","0.320289999945089","0.323067800025456","1","1","1","1","1","1","1","1","1"
"250061","img/neutralC/CFD-WM-213-076-N.jpg","img/neutralC/CFD-IM-637-007-N.jpg","img/neutralC/CFD-MF-340-026-N.jpg","1","1","1","1","0","1","0.323067800025456","0.388716800021939","0.29726129991468","1","1","1","1","1","1","1","1","1"
"250061","img/neutralC/CFD-MF-340-026-N.jpg","img/neutralC/CFD-WM-213-076-N.jpg","img/neutralC/CFD-LF-201-035-N.jpg","1","1","1","1","1","1","0.29726129991468","0.323067800025456","0.266916899941862","1","1","1","1","1","1","1","1","1"
"250061","img/neutralC/CFD-LF-201-035-N.jpg","img/neutralC/CFD-MF-340-026-N.jpg","img/neutralC/CFD-AF-254-167-N.jpg","1","1","1","1","1","1","0.266916899941862","0.29726129991468","0.389509000000544","1","1","1","1","1","1","1","1","1"
"250061","img/neutralC/CFD-AF-254-167-N.jpg","img/neutralC/CFD-LF-201-035-N.jpg","img/neutralC/CFD-IM-675-015-N.jpg","1","1","1","1","1","1","0.389509000000544","0.266916899941862","0.358330699964426","1","1","1","1","1","1","1","1","1"
"250061","img/neutralC/CFD-IM-675-015-N.jpg","img/neutralC/CFD-AF-254-167-N.jpg","img/neutralC/CFD-AF-229-160-N.jpg","1","1","1","1","1","0","0.358330699964426","0.389509000000544","0.35851090005599","1","1","1","1","1","1","1","1","1"
"250061","img/neutralC/CFD-AF-229-160-N.jpg","img/neutralC/CFD-IM-675-015-N.jpg","img/neutralC/CFD-WF-212-050-N.jpg","1","1","1","0","1","0","0.35851090005599","0.358330699964426","0.370684499968775","1","1","1","1","1","1","1","1","1"
"250061","img/neutralC/CFD-WF-212-050-N.jpg","img/neutralC/CFD-AF-229-160-N.jpg","img/neutralC/CFD-BM-243-218-N.jpg","1","1","1","0","0","1","0.370684499968775","0.35851090005599","0.410526599967852","1","1","1","1","1","1","1","1","1"
"250061","img/neutralC/CFD-BM-243-218-N.jpg","img/neutralC/CFD-WF-212-050-N.jpg","img/neutralC/CFD-MF-300-002-N.jpg","1","1","1","1","0","0","0.410526599967852","0.370684499968775","0.291795099969022","1","1","1","1","1","1","1","1","1"
"250061","img/neutralC/CFD-MF-300-002-N.jpg","img/neutralC/CFD-BM-243-218-N.jpg","img/neutralC/CFD-IF-619-197-N.jpg","1","1","0","0","1","0","0.291795099969022","0.410526599967852","0.391787200002","1","1","1","1","1","1","1","1","1"
"250061","img/neutralC/CFD-IF-619-197-N.jpg","img/neutralC/CFD-MF-300-002-N.jpg","img/neutralC/CFD-BF-224-002-N.jpg","0","1","1","0","0","1","0.391787200002","0.291795099969022","0.384866700042039","1","1","1","1","1","1","1","1","1"
"250061","img/neutralC/CFD-BF-224-002-N.jpg","img/neutralC/CFD-IF-619-197-N.jpg","img/neutralC/CFD-WF-012-002-N.jpg","1","0","1","1","0","1","0.384866700042039","0.391787200002","0.339549699914642","1","1","1","1","1","1","1","1","1"
"250061","img/neutralC/CFD-WF-012-002-N.jpg","img/neutralC/CFD-BF-224-002-N.jpg","img/neutralC/CFD-BM-039-029-N.jpg","1","1","1","1","1","1","0.339549699914642","0.384866700042039","0.509691999992356","1","1","1","1","1","1","1","1","1"
"250061","img/neutralC/CFD-BM-039-029-N.jpg","img/neutralC/CFD-WF-012-002-N.jpg","img/neutralC/CFD-MM-304-002-N.jpg","1","1","1","1","1","1","0.509691999992356","0.339549699914642","0.442492499947548","1","1","1","1","1","1","1","1","1"
"250061","img/neutralC/CFD-MM-304-002-N.jpg","img/neutralC/CFD-BM-039-029-N.jpg","img/neutralC/CFD-IF-608-390-N.jpg","1","1","1","1","1","1","0.442492499947548","0.509691999992356","0.285529699991457","1","1","1","1","1","1","1","1","1"
"250061","img/neutralC/CFD-IF-608-390-N.jpg","img/neutralC/CFD-MM-304-002-N.jpg",NA,"1","1",NA,"1","1",NA,"0.285529699991457","0.442492499947548",NA,"1","1",NA,"1","1",NA,"1","1",NA
"250061","img/neutralC/CFD-BF-011-002-N.jpg",NA,"img/neutralC/CFD-IM-696-001-N.jpg","0",NA,"1","1",NA,"0","0.864173599984497",NA,"0.494354999973439","1",NA,"1","1",NA,"1","1",NA,"1"
"250061","img/neutralC/CFD-IM-696-001-N.jpg","img/neutralC/CFD-BF-011-002-N.jpg","img/neutralC/CFD-MF-301-024-N.jpg","1","0","1","0","1","0","0.494354999973439","0.864173599984497","0.236600699950941","1","1","1","1","1","1","1","1","1"
"250061","img/neutralC/CFD-MF-301-024-N.jpg","img/neutralC/CFD-IM-696-001-N.jpg","img/neutralC/CFD-BF-006-017-N.jpg","1","1","0","0","0","0","0.236600699950941","0.494354999973439","0.3461175999837","1","1","1","1","1","1","1","1","1"
"250061","img/neutralC/CFD-BF-006-017-N.jpg","img/neutralC/CFD-MF-301-024-N.jpg","img/neutralC/CFD-WF-208-068-N.jpg","0","1","1","0","0","1","0.3461175999837","0.236600699950941","0.365910199936479","1","1","1","1","1","1","1","1","1"
"250061","img/neutralC/CFD-WF-208-068-N.jpg","img/neutralC/CFD-BF-006-017-N.jpg","img/neutralC/CFD-WM-248-036-N.jpg","1","0","1","1","0","1","0.365910199936479","0.3461175999837","0.459433799958788","1","1","1","1","1","1","1","1","1"
"250061","img/neutralC/CFD-WM-248-036-N.jpg","img/neutralC/CFD-WF-208-068-N.jpg","img/neutralC/CFD-IM-726-248-N.jpg","1","1","0","1","1","0","0.459433799958788","0.365910199936479","0.465213599964045","1","1","1","1","1","1","1","1","1"
"250061","img/neutralC/CFD-IM-726-248-N.jpg","img/neutralC/CFD-WM-248-036-N.jpg","img/neutralC/CFD-IM-721-341-N.jpg","0","1","1","0","1","1","0.465213599964045","0.459433799958788","0.320499600027688","1","1","1","1","1","1","1","1","1"
"250061","img/neutralC/CFD-IM-721-341-N.jpg","img/neutralC/CFD-IM-726-248-N.jpg","img/neutralC/CFD-WF-029-002-N.jpg","1","0","0","1","0","0","0.320499600027688","0.465213599964045","0.412979800021276","1","1","1","1","1","1","1","1","1"
"250061","img/neutralC/CFD-WF-029-002-N.jpg","img/neutralC/CFD-IM-721-341-N.jpg","img/neutralC/CFD-WF-234-086-N.jpg","0","1","1","0","1","1","0.412979800021276","0.320499600027688","0.323654600069858","1","1","1","1","1","1","1","1","1"
"250061","img/neutralC/CFD-WF-234-086-N.jpg","img/neutralC/CFD-WF-029-002-N.jpg","img/neutralC/CFD-BF-236-177-N.jpg","1","0","0","1","0","0","0.323654600069858","0.412979800021276","0.349194000009447","1","1","1","1","1","1","1","1","1"
"250061","img/neutralC/CFD-BF-236-177-N.jpg","img/neutralC/CFD-WF-234-086-N.jpg","img/neutralC/CFD-LF-204-133-N.jpg","0","1","1","0","1","1","0.349194000009447","0.323654600069858","0.365644400008023","1","1","1","1","1","1","1","1","1"
"250061","img/neutralC/CFD-LF-204-133-N.jpg","img/neutralC/CFD-BF-236-177-N.jpg","img/neutralC/CFD-BM-207-024-N.jpg","1","0","1","1","0","1","0.365644400008023","0.349194000009447","0.272564599988982","1","1","1","1","1","1","1","1","1"
"250061","img/neutralC/CFD-BM-207-024-N.jpg","img/neutralC/CFD-LF-204-133-N.jpg","img/neutralC/CFD-WM-034-030-N.jpg","1","1","1","1","1","1","0.272564599988982","0.365644400008023","0.432268099975772","1","1","1","1","1","1","1","1","1"
"250061","img/neutralC/CFD-WM-034-030-N.jpg","img/neutralC/CFD-BM-207-024-N.jpg","img/neutralC/CFD-AM-230-150-N.jpg","1","1","1","1","1","0","0.432268099975772","0.272564599988982","0.413328299997374","1","1","1","1","1","1","1","1","1"
"250061","img/neutralC/CFD-AM-230-150-N.jpg","img/neutralC/CFD-WM-034-030-N.jpg","img/neutralC/CFD-BF-207-004-N.jpg","1","1","1","0","1","1","0.413328299997374","0.432268099975772","0.50558200001251","1","1","1","1","1","1","1","1","1"
"250061","img/neutralC/CFD-BF-207-004-N.jpg","img/neutralC/CFD-AM-230-150-N.jpg","img/neutralC/CFD-BF-036-027-N.jpg","1","1","1","1","0","0","0.50558200001251","0.413328299997374","0.359812399954535","1","1","1","1","1","1","1","1","1"
"250061","img/neutralC/CFD-BF-036-027-N.jpg","img/neutralC/CFD-BF-207-004-N.jpg","img/neutralC/CFD-WM-014-002-N.jpg","1","1","1","0","1","0","0.359812399954535","0.50558200001251","0.384380200062878","1","1","1","1","1","1","1","1","1"
"250061","img/neutralC/CFD-WM-014-002-N.jpg","img/neutralC/CFD-BF-036-027-N.jpg","img/neutralC/CFD-IF-677-452-1-N.jpg","1","1","1","0","0","1","0.384380200062878","0.359812399954535","0.627257699961774","1","1","1","1","1","1","1","1","1"
"250061","img/neutralC/CFD-IF-677-452-1-N.jpg","img/neutralC/CFD-WM-014-002-N.jpg","img/neutralC/CFD-LM-213-061-N.jpg","1","1","1","1","0","0","0.627257699961774","0.384380200062878","0.238988600089215","1","1","1","1","1","1","1","1","1"
"250061","img/neutralC/CFD-LM-213-061-N.jpg","img/neutralC/CFD-IF-677-452-1-N.jpg","img/neutralC/CFD-BF-214-308-N.jpg","1","1","1","0","1","1","0.238988600089215","0.627257699961774","0.272050100029446","1","1","1","1","1","1","1","1","1"
"250061","img/neutralC/CFD-BF-214-308-N.jpg","img/neutralC/CFD-LM-213-061-N.jpg","img/neutralC/CFD-BM-241-235-N.jpg","1","1","1","1","0","0","0.272050100029446","0.238988600089215","0.376595199923031","1","1","1","1","1","1","1","1","1"
"250061","img/neutralC/CFD-BM-241-235-N.jpg","img/neutralC/CFD-BF-214-308-N.jpg","img/neutralC/CFD-IF-742-103-N.jpg","1","1","1","0","1","1","0.376595199923031","0.272050100029446","0.247460999991745","1","1","1","1","1","1","1","1","1"
"250061","img/neutralC/CFD-IF-742-103-N.jpg","img/neutralC/CFD-BM-241-235-N.jpg","img/neutralC/CFD-BF-044-034-N.jpg","1","1","0","1","0","0","0.247460999991745","0.376595199923031","0.278959399904124","1","1","1","1","1","1","1","1","1"
"250061","img/neutralC/CFD-BF-044-034-N.jpg","img/neutralC/CFD-IF-742-103-N.jpg","img/neutralC/CFD-WF-233-112-N.jpg","0","1","1","0","1","1","0.278959399904124","0.247460999991745","0.347505399957299","1","1","1","1","1","1","1","1","1"
"250061","img/neutralC/CFD-WF-233-112-N.jpg","img/neutralC/CFD-BF-044-034-N.jpg","img/neutralC/CFD-IF-729-393-N.jpg","1","0","0","1","0","0","0.347505399957299","0.278959399904124","0.350725099910051","1","1","1","1","1","1","1","1","1"
"250061","img/neutralC/CFD-IF-729-393-N.jpg","img/neutralC/CFD-WF-233-112-N.jpg","img/neutralC/CFD-BF-247-179-N.jpg","0","1","0","0","1","0","0.350725099910051","0.347505399957299","0.27495699992869","1","1","1","1","1","1","1","1","1"
"250061","img/neutralC/CFD-BF-247-179-N.jpg","img/neutralC/CFD-IF-729-393-N.jpg","img/neutralC/CFD-BM-036-003-N.jpg","0","0","1","0","0","1","0.27495699992869","0.350725099910051","0.433746899943799","1","1","1","1","1","1","1","1","1"
"250061","img/neutralC/CFD-BM-036-003-N.jpg","img/neutralC/CFD-BF-247-179-N.jpg","img/neutralC/CFD-IM-707-105-N.jpg","1","0","1","1","0","1","0.433746899943799","0.27495699992869","0.478171800030395","1","1","1","1","1","1","1","1","1"
"250061","img/neutralC/CFD-IM-707-105-N.jpg","img/neutralC/CFD-BM-036-003-N.jpg","img/neutralC/CFD-BM-238-242-N.jpg","1","1","0","1","1","0","0.478171800030395","0.433746899943799","0.410753099946305","1","1","1","1","1","1","1","1","1"
"250061","img/neutralC/CFD-BM-238-242-N.jpg","img/neutralC/CFD-IM-707-105-N.jpg","img/neutralC/CFD-BF-002-001-N.jpg","0","1","1","0","1","0","0.410753099946305","0.478171800030395","0.386684999917634","1","1","1","1","1","1","1","1","1"
"250061","img/neutralC/CFD-BF-002-001-N.jpg","img/neutralC/CFD-BM-238-242-N.jpg","img/neutralC/CFD-BF-027-002-N.jpg","1","0","1","0","0","1","0.386684999917634","0.410753099946305","0.425712099997327","1","1","1","1","1","1","1","1","1"
"250061","img/neutralC/CFD-BF-027-002-N.jpg","img/neutralC/CFD-BF-002-001-N.jpg",NA,"1","1",NA,"1","0",NA,"0.425712099997327","0.386684999917634",NA,"1","1",NA,"1","1",NA,"1","1",NA
"250061","img/neutralC/CFD-BF-012-001-N.jpg",NA,"img/neutralC/CFD-WF-243-148-N.jpg","0",NA,"1","0",NA,"0","0.47552049998194",NA,"0.47455349995289","1",NA,"1","1",NA,"1","1",NA,"1"
"250061","img/neutralC/CFD-WF-243-148-N.jpg","img/neutralC/CFD-BF-012-001-N.jpg","img/neutralC/CFD-IM-606-008-N.jpg","1","0","1","0","0","0","0.47455349995289","0.47552049998194","0.332580400048755","1","1","1","1","1","1","1","1","1"
"250061","img/neutralC/CFD-IM-606-008-N.jpg","img/neutralC/CFD-WF-243-148-N.jpg","img/neutralC/CFD-WM-023-001-N.jpg","1","1","0","0","0","0","0.332580400048755","0.47455349995289","0.334584699943662","1","1","1","1","1","1","1","1","1"
"250061","img/neutralC/CFD-WM-023-001-N.jpg","img/neutralC/CFD-IM-606-008-N.jpg","img/neutralC/CFD-AM-219-101-N.jpg","0","1","1","0","0","0","0.334584699943662","0.332580400048755","0.312412500032224","1","1","1","1","1","1","1","1","1"
"250061","img/neutralC/CFD-AM-219-101-N.jpg","img/neutralC/CFD-WM-023-001-N.jpg","img/neutralC/CFD-WF-221-005-N.jpg","1","0","1","0","0","0","0.312412500032224","0.334584699943662","0.279552299994975","1","1","1","1","1","1","1","1","1"
"250061","img/neutralC/CFD-WF-221-005-N.jpg","img/neutralC/CFD-AM-219-101-N.jpg","img/neutralC/CFD-LF-212-066-N.jpg","1","1","1","0","0","1","0.279552299994975","0.312412500032224","0.321475100005046","1","1","1","1","1","1","1","1","1"
"250061","img/neutralC/CFD-LF-212-066-N.jpg","img/neutralC/CFD-WF-221-005-N.jpg","img/neutralC/CFD-WM-025-002-N.jpg","1","1","1","1","0","0","0.321475100005046","0.279552299994975","0.339108099928126","1","1","1","1","1","1","1","1","1"
"250061","img/neutralC/CFD-WM-025-002-N.jpg","img/neutralC/CFD-LF-212-066-N.jpg","img/neutralC/CFD-BM-030-003-N.jpg","1","1","0","0","1","0","0.339108099928126","0.321475100005046","0.282739999936894","1","1","1","1","1","1","1","1","1"
"250061","img/neutralC/CFD-BM-030-003-N.jpg","img/neutralC/CFD-WM-025-002-N.jpg","img/neutralC/CFD-AM-249-163-N.jpg","0","1","1","0","0","1","0.282739999936894","0.339108099928126","0.315317900036462","1","1","1","1","1","1","1","1","1"
"250061","img/neutralC/CFD-AM-249-163-N.jpg","img/neutralC/CFD-BM-030-003-N.jpg","img/neutralC/CFD-BM-227-191-N.jpg","1","0","1","1","0","1","0.315317900036462","0.282739999936894","0.33833689999301","1","1","1","1","1","1","1","1","1"
"250061","img/neutralC/CFD-BM-227-191-N.jpg","img/neutralC/CFD-AM-249-163-N.jpg","img/neutralC/CFD-IM-697-015-N.jpg","1","1","1","1","1","1","0.33833689999301","0.315317900036462","0.393936699954793","1","1","1","1","1","1","1","1","1"
"250061","img/neutralC/CFD-IM-697-015-N.jpg","img/neutralC/CFD-BM-227-191-N.jpg","img/neutralC/CFD-MF-328-020-N.jpg","1","1","0","1","1","0","0.393936699954793","0.33833689999301","0.253728399984539","1","1","1","1","1","1","1","1","1"
"250061","img/neutralC/CFD-MF-328-020-N.jpg","img/neutralC/CFD-IM-697-015-N.jpg","img/neutralC/CFD-BM-043-071-N.jpg","0","1","1","0","1","0","0.253728399984539","0.393936699954793","0.268619399983436","1","1","1","1","1","1","1","1","1"
"250061","img/neutralC/CFD-BM-043-071-N.jpg","img/neutralC/CFD-MF-328-020-N.jpg","img/neutralC/CFD-BM-009-002-N.jpg","1","0","1","0","0","1","0.268619399983436","0.253728399984539","0.364129800000228","1","1","1","1","1","1","1","1","1"
"250061","img/neutralC/CFD-BM-009-002-N.jpg","img/neutralC/CFD-BM-043-071-N.jpg","img/neutralC/CFD-BF-244-231-N.jpg","1","1","1","1","0","1","0.364129800000228","0.268619399983436","0.370675100013614","1","1","1","1","1","1","1","1","1"
"250061","img/neutralC/CFD-BF-244-231-N.jpg","img/neutralC/CFD-BM-009-002-N.jpg","img/neutralC/CFD-AF-237-223-N.jpg","1","1","1","1","1","0","0.370675100013614","0.364129800000228","0.348880500067025","1","1","1","1","1","1","1","1","1"
"250061","img/neutralC/CFD-AF-237-223-N.jpg","img/neutralC/CFD-BF-244-231-N.jpg","img/neutralC/CFD-LM-240-013-N.jpg","1","1","1","0","1","1","0.348880500067025","0.370675100013614","0.372232499998063","1","1","1","1","1","1","1","1","1"
"250061","img/neutralC/CFD-LM-240-013-N.jpg","img/neutralC/CFD-AF-237-223-N.jpg","img/neutralC/CFD-IM-689-263-N.jpg","1","1","1","1","0","1","0.372232499998063","0.348880500067025","0.399320399970748","1","1","1","1","1","1","1","1","1"
"250061","img/neutralC/CFD-IM-689-263-N.jpg","img/neutralC/CFD-LM-240-013-N.jpg","img/neutralC/CFD-LF-222-147-N.jpg","1","1","1","1","1","0","0.399320399970748","0.372232499998063","0.317430599941872","1","1","1","1","1","1","1","1","1"
"250061","img/neutralC/CFD-LF-222-147-N.jpg","img/neutralC/CFD-IM-689-263-N.jpg","img/neutralC/CFD-IM-615-167-N.jpg","1","1","1","0","1","0","0.317430599941872","0.399320399970748","0.311961799976416","1","1","1","1","1","1","1","1","1"
"250061","img/neutralC/CFD-IM-615-167-N.jpg","img/neutralC/CFD-LF-222-147-N.jpg","img/neutralC/CFD-WF-207-014-N.jpg","1","1","1","0","0","1","0.311961799976416","0.317430599941872","0.289580599986948","1","1","1","1","1","1","1","1","1"
"250061","img/neutralC/CFD-WF-207-014-N.jpg","img/neutralC/CFD-IM-615-167-N.jpg","img/neutralC/CFD-BM-021-021-N.jpg","1","1","1","1","0","1","0.289580599986948","0.311961799976416","0.31079330004286","1","1","1","1","1","1","1","1","1"
"250061","img/neutralC/CFD-BM-021-021-N.jpg","img/neutralC/CFD-WF-207-014-N.jpg","img/neutralC/CFD-WF-009-001-N.jpg","1","1","1","1","1","1","0.31079330004286","0.289580599986948","0.240507400012575","1","1","1","1","1","1","1","1","1"
"250061","img/neutralC/CFD-WF-009-001-N.jpg","img/neutralC/CFD-BM-021-021-N.jpg","img/neutralC/CFD-LF-238-154-N.jpg","1","1","1","1","1","1","0.240507400012575","0.31079330004286","0.359820700017735","1","1","1","1","1","1","1","1","1"
"250061","img/neutralC/CFD-LF-238-154-N.jpg","img/neutralC/CFD-WF-009-001-N.jpg","img/neutralC/CFD-AM-205-153-N.jpg","1","1","1","1","1","1","0.359820700017735","0.240507400012575","0.314834899967536","1","1","1","1","1","1","1","1","1"
"250061","img/neutralC/CFD-AM-205-153-N.jpg","img/neutralC/CFD-LF-238-154-N.jpg","img/neutralC/CFD-WM-028-003-N.jpg","1","1","1","1","1","1","0.314834899967536","0.359820700017735","0.29454989999067","1","1","1","1","1","1","1","1","1"
"250061","img/neutralC/CFD-WM-028-003-N.jpg","img/neutralC/CFD-AM-205-153-N.jpg","img/neutralC/CFD-AM-243-212-N.jpg","1","1","1","1","1","1","0.29454989999067","0.314834899967536","0.360205000033602","1","1","1","1","1","1","1","1","1"
"250061","img/neutralC/CFD-AM-243-212-N.jpg","img/neutralC/CFD-WM-028-003-N.jpg","img/neutralC/CFD-BM-020-001-N.jpg","1","1","1","1","1","0","0.360205000033602","0.29454989999067","0.382583400001749","1","1","1","1","1","1","1","1","1"
"250061","img/neutralC/CFD-BM-020-001-N.jpg","img/neutralC/CFD-AM-243-212-N.jpg","img/neutralC/CFD-MM-306-010-N.jpg","1","1","1","0","1","0","0.382583400001749","0.360205000033602","0.285227100015618","1","1","1","1","1","1","1","1","1"
"250061","img/neutralC/CFD-MM-306-010-N.jpg","img/neutralC/CFD-BM-020-001-N.jpg","img/neutralC/CFD-IF-676-017-N.jpg","1","1","0","0","0","1","0.285227100015618","0.382583400001749","0.297578099998645","1","1","1","1","1","1","1","1","1"
"250061","img/neutralC/CFD-IF-676-017-N.jpg","img/neutralC/CFD-MM-306-010-N.jpg","img/neutralC/CFD-WF-241-210-N.jpg","0","1","1","1","0","0","0.297578099998645","0.285227100015618","0.564512499957345","1","1","1","1","1","1","1","1","1"
"250061","img/neutralC/CFD-WF-241-210-N.jpg","img/neutralC/CFD-IF-676-017-N.jpg",NA,"1","0",NA,"0","1",NA,"0.564512499957345","0.297578099998645",NA,"1","1",NA,"1","1",NA,"1","1",NA
