"participant_id","current_trial_face","pre_trial_face","post_trial_face","current_trial_accuracy","pre_trial_accuracy","post_trial_accuracy","current_trial_congruency","pre_trial_congruency","post_trial_congruency","current_trial_rt","pre_trial_rt","post_trial_rt","current_trial_responded","pre_trial_responded","post_trial_responded","current_trial_legitResponse","pre_trial_legitResponse","post_trial_legitResponse","current_trial_resp_nums","pre_trial_resp_nums","post_trial_resp_nums"
"250062","img/neutralC/CFD-LF-225-164-N.jpg",NA,"img/neutralC/CFD-BM-010-003-N.jpg","1",NA,"1","1",NA,"0","0.625000200001523",NA,"0.623152400017716","1",NA,"1","1",NA,"1","1",NA,"1"
"250062","img/neutralC/CFD-BM-010-003-N.jpg","img/neutralC/CFD-LF-225-164-N.jpg","img/neutralC/CFD-WF-033-002-N.jpg","1","1","1","0","1","1","0.623152400017716","0.625000200001523","0.498254899983294","1","1","1","1","1","1","1","1","1"
"250062","img/neutralC/CFD-WF-033-002-N.jpg","img/neutralC/CFD-BM-010-003-N.jpg","img/neutralC/CFD-LM-238-129-N.jpg","1","1","1","1","0","1","0.498254899983294","0.623152400017716","0.505358599941246","1","1","1","1","1","1","1","1","1"
"250062","img/neutralC/CFD-LM-238-129-N.jpg","img/neutralC/CFD-WF-033-002-N.jpg","img/neutralC/CFD-BM-003-003-N.jpg","1","1","1","1","1","0","0.505358599941246","0.498254899983294","0.599427200038917","1","1","1","1","1","1","1","1","1"
"250062","img/neutralC/CFD-BM-003-003-N.jpg","img/neutralC/CFD-LM-238-129-N.jpg","img/neutralC/CFD-IF-744-114-N.jpg","1","1","1","0","1","0","0.599427200038917","0.505358599941246","0.568529699929059","1","1","1","1","1","1","1","1","1"
"250062","img/neutralC/CFD-IF-744-114-N.jpg","img/neutralC/CFD-BM-003-003-N.jpg","img/neutralC/CFD-AF-210-050-N.jpg","1","1","1","0","0","1","0.568529699929059","0.599427200038917","0.624915499938652","1","1","1","1","1","1","1","1","1"
"250062","img/neutralC/CFD-AF-210-050-N.jpg","img/neutralC/CFD-IF-744-114-N.jpg","img/neutralC/CFD-BF-045-003-N.jpg","1","1","1","1","0","0","0.624915499938652","0.568529699929059","0.56017279997468","1","1","1","1","1","1","1","1","1"
"250062","img/neutralC/CFD-BF-045-003-N.jpg","img/neutralC/CFD-AF-210-050-N.jpg","img/neutralC/CFD-WF-223-133-N.jpg","1","1","1","0","1","0","0.56017279997468","0.624915499938652","0.579141200054437","1","1","1","1","1","1","1","1","1"
"250062","img/neutralC/CFD-WF-223-133-N.jpg","img/neutralC/CFD-BF-045-003-N.jpg","img/neutralC/CFD-WM-254-152-N.jpg","1","1","1","0","0","1","0.579141200054437","0.56017279997468","0.550142799969763","1","1","1","1","1","1","1","1","1"
"250062","img/neutralC/CFD-WM-254-152-N.jpg","img/neutralC/CFD-WF-223-133-N.jpg","img/neutralC/CFD-BF-222-240-N.jpg","1","1","1","1","0","0","0.550142799969763","0.579141200054437","0.553979999967851","1","1","1","1","1","1","1","1","1"
"250062","img/neutralC/CFD-BF-222-240-N.jpg","img/neutralC/CFD-WM-254-152-N.jpg","img/neutralC/CFD-LM-247-095-N.jpg","1","1","1","0","1","0","0.553979999967851","0.550142799969763","0.540837400010787","1","1","1","1","1","1","1","1","1"
"250062","img/neutralC/CFD-LM-247-095-N.jpg","img/neutralC/CFD-BF-222-240-N.jpg","img/neutralC/CFD-LF-241-188-N.jpg","1","1","1","0","0","0","0.540837400010787","0.553979999967851","0.559222399955615","1","1","1","1","1","1","1","1","1"
"250062","img/neutralC/CFD-LF-241-188-N.jpg","img/neutralC/CFD-LM-247-095-N.jpg","img/neutralC/CFD-BM-013-002-N.jpg","1","1","1","0","0","1","0.559222399955615","0.540837400010787","0.603751700022258","1","1","1","1","1","1","1","1","1"
"250062","img/neutralC/CFD-BM-013-002-N.jpg","img/neutralC/CFD-LF-241-188-N.jpg","img/neutralC/CFD-BM-028-002-N.jpg","1","1","1","1","0","1","0.603751700022258","0.559222399955615","0.473069699946791","1","1","1","1","1","1","1","1","1"
"250062","img/neutralC/CFD-BM-028-002-N.jpg","img/neutralC/CFD-BM-013-002-N.jpg","img/neutralC/CFD-MF-312-002-N.jpg","1","1","1","1","1","1","0.473069699946791","0.603751700022258","0.491314499988221","1","1","1","1","1","1","1","1","1"
"250062","img/neutralC/CFD-MF-312-002-N.jpg","img/neutralC/CFD-BM-028-002-N.jpg","img/neutralC/CFD-WF-006-002-N.jpg","1","1","1","1","1","0","0.491314499988221","0.473069699946791","0.631513700005598","1","1","1","1","1","1","1","1","1"
"250062","img/neutralC/CFD-WF-006-002-N.jpg","img/neutralC/CFD-MF-312-002-N.jpg","img/neutralC/CFD-WM-202-107-N.jpg","1","1","1","0","1","1","0.631513700005598","0.491314499988221","0.61138639994897","1","1","1","1","1","1","1","1","1"
"250062","img/neutralC/CFD-WM-202-107-N.jpg","img/neutralC/CFD-WF-006-002-N.jpg","img/neutralC/CFD-IF-625-225-N.jpg","1","1","1","1","0","0","0.61138639994897","0.631513700005598","0.713745799963363","1","1","1","1","1","1","1","1","1"
"250062","img/neutralC/CFD-IF-625-225-N.jpg","img/neutralC/CFD-WM-202-107-N.jpg","img/neutralC/CFD-IM-659-359-N.jpg","1","1","1","0","1","0","0.713745799963363","0.61138639994897","0.579000300029293","1","1","1","1","1","1","1","1","1"
"250062","img/neutralC/CFD-IM-659-359-N.jpg","img/neutralC/CFD-IF-625-225-N.jpg","img/neutralC/CFD-LF-210-220-N.jpg","1","1","1","0","0","1","0.579000300029293","0.713745799963363","0.510768099920824","1","1","1","1","1","1","1","1","1"
"250062","img/neutralC/CFD-LF-210-220-N.jpg","img/neutralC/CFD-IM-659-359-N.jpg","img/neutralC/CFD-BM-213-134-N.jpg","1","1","1","1","0","1","0.510768099920824","0.579000300029293","0.515872500021942","1","1","1","1","1","1","1","1","1"
"250062","img/neutralC/CFD-BM-213-134-N.jpg","img/neutralC/CFD-LF-210-220-N.jpg","img/neutralC/CFD-BF-004-014-N.jpg","1","1","1","1","1","1","0.515872500021942","0.510768099920824","0.534813200007193","1","1","1","1","1","1","1","1","1"
"250062","img/neutralC/CFD-BF-004-014-N.jpg","img/neutralC/CFD-BM-213-134-N.jpg","img/neutralC/CFD-AF-239-171-N.jpg","1","1","1","1","1","1","0.534813200007193","0.515872500021942","0.506852000020444","1","1","1","1","1","1","1","1","1"
"250062","img/neutralC/CFD-AF-239-171-N.jpg","img/neutralC/CFD-BF-004-014-N.jpg","img/neutralC/CFD-WM-228-065-N.jpg","1","1","1","1","1","0","0.506852000020444","0.534813200007193","0.557088500005193","1","1","1","1","1","1","1","1","1"
"250062","img/neutralC/CFD-WM-228-065-N.jpg","img/neutralC/CFD-AF-239-171-N.jpg","img/neutralC/CFD-IF-673-389-N.jpg","1","1","1","0","1","0","0.557088500005193","0.506852000020444","0.582885999931023","1","1","1","1","1","1","1","1","1"
"250062","img/neutralC/CFD-IF-673-389-N.jpg","img/neutralC/CFD-WM-228-065-N.jpg","img/neutralC/CFD-AM-221-184-N.jpg","1","1","1","0","0","1","0.582885999931023","0.557088500005193","0.510213100002147","1","1","1","1","1","1","1","1","1"
"250062","img/neutralC/CFD-AM-221-184-N.jpg","img/neutralC/CFD-IF-673-389-N.jpg","img/neutralC/CFD-IM-701-312-N.jpg","1","1","1","1","0","0","0.510213100002147","0.582885999931023","0.535163199994713","1","1","1","1","1","1","1","1","1"
"250062","img/neutralC/CFD-IM-701-312-N.jpg","img/neutralC/CFD-AM-221-184-N.jpg","img/neutralC/CFD-IM-738-191-N.jpg","1","1","1","0","1","0","0.535163199994713","0.510213100002147","0.584695899975486","1","1","1","1","1","1","1","1","1"
"250062","img/neutralC/CFD-IM-738-191-N.jpg","img/neutralC/CFD-IM-701-312-N.jpg","img/neutralC/CFD-AF-227-207-N.jpg","1","1","1","0","0","1","0.584695899975486","0.535163199994713","0.47048190003261","1","1","1","1","1","1","1","1","1"
"250062","img/neutralC/CFD-AF-227-207-N.jpg","img/neutralC/CFD-IM-738-191-N.jpg","img/neutralC/CFD-LF-208-127-N.jpg","1","1","1","1","0","0","0.47048190003261","0.584695899975486","0.487693800008856","1","1","1","1","1","1","1","1","1"
"250062","img/neutralC/CFD-LF-208-127-N.jpg","img/neutralC/CFD-AF-227-207-N.jpg","img/neutralC/CFD-MF-336-016-N.jpg","1","1","1","0","1","1","0.487693800008856","0.47048190003261","0.496314399992116","1","1","1","1","1","1","1","1","1"
"250062","img/neutralC/CFD-MF-336-016-N.jpg","img/neutralC/CFD-LF-208-127-N.jpg",NA,"1","1",NA,"1","0",NA,"0.496314399992116","0.487693800008856",NA,"1","1",NA,"1","1",NA,"1","1",NA
"250062","img/neutralC/CFD-BM-231-155-N.jpg",NA,"img/neutralC/CFD-LF-247-051-N.jpg","1",NA,"1","1",NA,"1","0.498867099988274",NA,"0.565947900060564","1",NA,"1","1",NA,"1","1",NA,"1"
"250062","img/neutralC/CFD-LF-247-051-N.jpg","img/neutralC/CFD-BM-231-155-N.jpg","img/neutralC/CFD-IM-617-174-N.jpg","1","1","1","1","1","0","0.565947900060564","0.498867099988274","0.532926399959251","1","1","1","1","1","1","1","1","1"
"250062","img/neutralC/CFD-IM-617-174-N.jpg","img/neutralC/CFD-LF-247-051-N.jpg","img/neutralC/CFD-BF-238-190-N.jpg","1","1","1","0","1","1","0.532926399959251","0.565947900060564","0.429516999982297","1","1","1","1","1","1","1","1","1"
"250062","img/neutralC/CFD-BF-238-190-N.jpg","img/neutralC/CFD-IM-617-174-N.jpg","img/neutralC/CFD-LM-226-175-N.jpg","1","1","1","1","0","0","0.429516999982297","0.532926399959251","0.466318199993111","1","1","1","1","1","1","1","1","1"
"250062","img/neutralC/CFD-LM-226-175-N.jpg","img/neutralC/CFD-BF-238-190-N.jpg","img/neutralC/CFD-IF-620-218-N.jpg","1","1","1","0","1","0","0.466318199993111","0.429516999982297","0.510960299987346","1","1","1","1","1","1","1","1","1"
"250062","img/neutralC/CFD-IF-620-218-N.jpg","img/neutralC/CFD-LM-226-175-N.jpg","img/neutralC/CFD-BF-010-001-N.jpg","1","1","1","0","0","1","0.510960299987346","0.466318199993111","0.41439310007263","1","1","1","1","1","1","1","1","1"
"250062","img/neutralC/CFD-BF-010-001-N.jpg","img/neutralC/CFD-IF-620-218-N.jpg","img/neutralC/CFD-AF-202-122-N.jpg","1","1","1","1","0","1","0.41439310007263","0.510960299987346","0.495049500023015","1","1","1","1","1","1","1","1","1"
"250062","img/neutralC/CFD-AF-202-122-N.jpg","img/neutralC/CFD-BF-010-001-N.jpg","img/neutralC/CFD-WM-017-002-N.jpg","1","1","1","1","1","0","0.495049500023015","0.41439310007263","0.419429800007492","1","1","1","1","1","1","1","1","1"
"250062","img/neutralC/CFD-WM-017-002-N.jpg","img/neutralC/CFD-AF-202-122-N.jpg","img/neutralC/CFD-IM-686-097-N.jpg","1","1","1","0","1","0","0.419429800007492","0.495049500023015","0.485420599929057","1","1","1","1","1","1","1","1","1"
"250062","img/neutralC/CFD-IM-686-097-N.jpg","img/neutralC/CFD-WM-017-002-N.jpg","img/neutralC/CFD-AF-241-141-N.jpg","1","1","1","0","0","1","0.485420599929057","0.419429800007492","0.535106000024825","1","1","1","1","1","1","1","1","1"
"250062","img/neutralC/CFD-AF-241-141-N.jpg","img/neutralC/CFD-IM-686-097-N.jpg","img/neutralC/CFD-BM-026-002-N.jpg","1","1","1","1","0","0","0.535106000024825","0.485420599929057","0.529182999976911","1","1","1","1","1","1","1","1","1"
"250062","img/neutralC/CFD-BM-026-002-N.jpg","img/neutralC/CFD-AF-241-141-N.jpg","img/neutralC/CFD-IM-657-308-N.jpg","1","1","1","0","1","0","0.529182999976911","0.535106000024825","0.529012199956924","1","1","1","1","1","1","1","1","1"
"250062","img/neutralC/CFD-IM-657-308-N.jpg","img/neutralC/CFD-BM-026-002-N.jpg","img/neutralC/CFD-LF-242-121-N.jpg","1","1","1","0","0","0","0.529012199956924","0.529182999976911","0.486677799955942","1","1","1","1","1","1","1","1","1"
"250062","img/neutralC/CFD-LF-242-121-N.jpg","img/neutralC/CFD-IM-657-308-N.jpg","img/neutralC/CFD-LM-219-295-N.jpg","1","1","1","0","0","1","0.486677799955942","0.529012199956924","0.496781300054863","1","1","1","1","1","1","1","1","1"
"250062","img/neutralC/CFD-LM-219-295-N.jpg","img/neutralC/CFD-LF-242-121-N.jpg","img/neutralC/CFD-IM-638-250-1-N.jpg","1","1","1","1","0","1","0.496781300054863","0.486677799955942","0.413432899978943","1","1","1","1","1","1","1","1","1"
"250062","img/neutralC/CFD-IM-638-250-1-N.jpg","img/neutralC/CFD-LM-219-295-N.jpg","img/neutralC/CFD-WF-209-052-N.jpg","1","1","1","1","1","1","0.413432899978943","0.496781300054863","0.423521499964409","1","1","1","1","1","1","1","1","1"
"250062","img/neutralC/CFD-WF-209-052-N.jpg","img/neutralC/CFD-IM-638-250-1-N.jpg","img/neutralC/CFD-WM-258-125-N.jpg","1","1","1","1","1","0","0.423521499964409","0.413432899978943","0.569478199933656","1","1","1","1","1","1","1","1","1"
"250062","img/neutralC/CFD-WM-258-125-N.jpg","img/neutralC/CFD-WF-209-052-N.jpg","img/neutralC/CFD-BM-005-003-N.jpg","1","1","1","0","1","1","0.569478199933656","0.423521499964409","0.509804099914618","1","1","1","1","1","1","1","1","1"
"250062","img/neutralC/CFD-BM-005-003-N.jpg","img/neutralC/CFD-WM-258-125-N.jpg","img/neutralC/CFD-WM-242-011-N.jpg","1","1","1","1","0","0","0.509804099914618","0.569478199933656","0.48120929999277","1","1","1","1","1","1","1","1","1"
"250062","img/neutralC/CFD-WM-242-011-N.jpg","img/neutralC/CFD-BM-005-003-N.jpg","img/neutralC/CFD-MF-313-002-N.jpg","1","1","1","0","1","0","0.48120929999277","0.509804099914618","0.425687600043602","1","1","1","1","1","1","1","1","1"
"250062","img/neutralC/CFD-MF-313-002-N.jpg","img/neutralC/CFD-WM-242-011-N.jpg","img/neutralC/CFD-BF-033-028-N.jpg","1","1","1","0","0","0","0.425687600043602","0.48120929999277","0.462397100054659","1","1","1","1","1","1","1","1","1"
"250062","img/neutralC/CFD-BF-033-028-N.jpg","img/neutralC/CFD-MF-313-002-N.jpg","img/neutralC/CFD-WM-227-099-N.jpg","1","1","1","0","0","1","0.462397100054659","0.425687600043602","0.424537299899384","1","1","1","1","1","1","1","1","1"
"250062","img/neutralC/CFD-WM-227-099-N.jpg","img/neutralC/CFD-BF-033-028-N.jpg","img/neutralC/CFD-IM-653-008-N.jpg","1","1","1","1","0","0","0.424537299899384","0.462397100054659","0.51531679998152","1","1","1","1","1","1","1","1","1"
"250062","img/neutralC/CFD-IM-653-008-N.jpg","img/neutralC/CFD-WM-227-099-N.jpg","img/neutralC/CFD-AF-206-079-N.jpg","1","1","1","0","1","1","0.51531679998152","0.424537299899384","0.448277799994685","1","1","1","1","1","1","1","1","1"
"250062","img/neutralC/CFD-AF-206-079-N.jpg","img/neutralC/CFD-IM-653-008-N.jpg","img/neutralC/CFD-BM-212-117-N.jpg","1","1","1","1","0","0","0.448277799994685","0.51531679998152","0.518519399920478","1","1","1","1","1","1","1","1","1"
"250062","img/neutralC/CFD-BM-212-117-N.jpg","img/neutralC/CFD-AF-206-079-N.jpg","img/neutralC/CFD-LM-233-171-N.jpg","1","1","1","0","1","0","0.518519399920478","0.448277799994685","0.480284399935044","1","1","1","1","1","1","1","1","1"
"250062","img/neutralC/CFD-LM-233-171-N.jpg","img/neutralC/CFD-BM-212-117-N.jpg","img/neutralC/CFD-IF-665-015-N.jpg","1","1","1","0","0","0","0.480284399935044","0.518519399920478","0.561143200029619","1","1","1","1","1","1","1","1","1"
"250062","img/neutralC/CFD-IF-665-015-N.jpg","img/neutralC/CFD-LM-233-171-N.jpg","img/neutralC/CFD-LF-250-169-N.jpg","1","1","1","0","0","1","0.561143200029619","0.480284399935044","0.442373199970461","1","1","1","1","1","1","1","1","1"
"250062","img/neutralC/CFD-LF-250-169-N.jpg","img/neutralC/CFD-IF-665-015-N.jpg","img/neutralC/CFD-BM-018-001-N.jpg","1","1","1","1","0","1","0.442373199970461","0.561143200029619","0.473125400021672","1","1","1","1","1","1","1","1","1"
"250062","img/neutralC/CFD-BM-018-001-N.jpg","img/neutralC/CFD-LF-250-169-N.jpg","img/neutralC/CFD-LF-245-166-N.jpg","1","1","1","1","1","1","0.473125400021672","0.442373199970461","0.53382040001452","1","1","1","1","1","1","1","1","1"
"250062","img/neutralC/CFD-LF-245-166-N.jpg","img/neutralC/CFD-BM-018-001-N.jpg","img/neutralC/CFD-IM-727-195-N.jpg","1","1","1","1","1","1","0.53382040001452","0.473125400021672","0.46285769995302","1","1","1","1","1","1","1","1","1"
"250062","img/neutralC/CFD-IM-727-195-N.jpg","img/neutralC/CFD-LF-245-166-N.jpg",NA,"1","1",NA,"1","1",NA,"0.46285769995302","0.53382040001452",NA,"1","1",NA,"1","1",NA,"1","1",NA
"250062","img/neutralC/CFD-AF-229-160-N.jpg",NA,"img/neutralC/CFD-IM-604-014-N.jpg","1",NA,"1","0",NA,"0","0.677769299945794",NA,"0.534428899991326","1",NA,"1","1",NA,"1","1",NA,"1"
"250062","img/neutralC/CFD-IM-604-014-N.jpg","img/neutralC/CFD-AF-229-160-N.jpg","img/neutralC/CFD-IM-675-015-N.jpg","1","1","1","0","0","1","0.534428899991326","0.677769299945794","0.440121799940243","1","1","1","1","1","1","1","1","1"
"250062","img/neutralC/CFD-IM-675-015-N.jpg","img/neutralC/CFD-IM-604-014-N.jpg","img/neutralC/CFD-AF-254-167-N.jpg","1","1","1","1","0","1","0.440121799940243","0.534428899991326","0.446984400041401","1","1","1","1","1","1","1","1","1"
"250062","img/neutralC/CFD-AF-254-167-N.jpg","img/neutralC/CFD-IM-675-015-N.jpg","img/neutralC/CFD-IM-637-007-N.jpg","1","1","1","1","1","0","0.446984400041401","0.440121799940243","0.484262099955231","1","1","1","1","1","1","1","1","1"
"250062","img/neutralC/CFD-IM-637-007-N.jpg","img/neutralC/CFD-AF-254-167-N.jpg","img/neutralC/CFD-IM-709-103-N.jpg","1","1","1","0","1","0","0.484262099955231","0.446984400041401","0.447890900075436","1","1","1","1","1","1","1","1","1"
"250062","img/neutralC/CFD-IM-709-103-N.jpg","img/neutralC/CFD-IM-637-007-N.jpg","img/neutralC/CFD-BM-039-029-N.jpg","1","1","1","0","0","1","0.447890900075436","0.484262099955231","0.470954100019298","1","1","1","1","1","1","1","1","1"
"250062","img/neutralC/CFD-BM-039-029-N.jpg","img/neutralC/CFD-IM-709-103-N.jpg","img/neutralC/CFD-WM-213-076-N.jpg","1","1","1","1","0","1","0.470954100019298","0.447890900075436","0.484500200022012","1","1","1","1","1","1","1","1","1"
"250062","img/neutralC/CFD-WM-213-076-N.jpg","img/neutralC/CFD-BM-039-029-N.jpg","img/neutralC/CFD-WF-212-050-N.jpg","1","1","1","1","1","0","0.484500200022012","0.470954100019298","0.50963700003922","1","1","1","1","1","1","1","1","1"
"250062","img/neutralC/CFD-WF-212-050-N.jpg","img/neutralC/CFD-WM-213-076-N.jpg","img/neutralC/CFD-IF-619-197-N.jpg","1","1","1","0","1","0","0.50963700003922","0.484500200022012","0.474755199975334","1","1","1","1","1","1","1","1","1"
"250062","img/neutralC/CFD-IF-619-197-N.jpg","img/neutralC/CFD-WF-212-050-N.jpg","img/neutralC/CFD-BF-043-003-N.jpg","1","1","1","0","0","0","0.474755199975334","0.50963700003922","0.538005399983376","1","1","1","1","1","1","1","1","1"
"250062","img/neutralC/CFD-BF-043-003-N.jpg","img/neutralC/CFD-IF-619-197-N.jpg","img/neutralC/CFD-MM-304-002-N.jpg","1","1","1","0","0","1","0.538005399983376","0.474755199975334","0.430475399945863","1","1","1","1","1","1","1","1","1"
"250062","img/neutralC/CFD-MM-304-002-N.jpg","img/neutralC/CFD-BF-043-003-N.jpg","img/neutralC/CFD-AM-236-090-N.jpg","1","1","1","1","0","1","0.430475399945863","0.538005399983376","0.437195900012739","1","1","1","1","1","1","1","1","1"
"250062","img/neutralC/CFD-AM-236-090-N.jpg","img/neutralC/CFD-MM-304-002-N.jpg","img/neutralC/CFD-WF-012-002-N.jpg","1","1","1","1","1","1","0.437195900012739","0.430475399945863","0.385353000019677","1","1","1","1","1","1","1","1","1"
"250062","img/neutralC/CFD-WF-012-002-N.jpg","img/neutralC/CFD-AM-236-090-N.jpg","img/neutralC/CFD-LF-201-035-N.jpg","1","1","1","1","1","1","0.385353000019677","0.437195900012739","0.44126510003116","1","1","1","1","1","1","1","1","1"
"250062","img/neutralC/CFD-LF-201-035-N.jpg","img/neutralC/CFD-WF-012-002-N.jpg","img/neutralC/CFD-WF-248-129-N.jpg","1","1","1","1","1","0","0.44126510003116","0.385353000019677","0.525183199904859","1","1","1","1","1","1","1","1","1"
"250062","img/neutralC/CFD-WF-248-129-N.jpg","img/neutralC/CFD-LF-201-035-N.jpg","img/neutralC/CFD-MF-327-002-N.jpg","1","1","1","0","1","0","0.525183199904859","0.44126510003116","0.4168627000181","1","1","1","1","1","1","1","1","1"
"250062","img/neutralC/CFD-MF-327-002-N.jpg","img/neutralC/CFD-WF-248-129-N.jpg","img/neutralC/CFD-BM-243-218-N.jpg","1","1","1","0","0","1","0.4168627000181","0.525183199904859","0.464389099972323","1","1","1","1","1","1","1","1","1"
"250062","img/neutralC/CFD-BM-243-218-N.jpg","img/neutralC/CFD-MF-327-002-N.jpg","img/neutralC/CFD-LM-217-162-N.jpg","1","1","1","1","0","0","0.464389099972323","0.4168627000181","0.534974399954081","1","1","1","1","1","1","1","1","1"
"250062","img/neutralC/CFD-LM-217-162-N.jpg","img/neutralC/CFD-BM-243-218-N.jpg","img/neutralC/CFD-MF-340-026-N.jpg","1","1","1","0","1","1","0.534974399954081","0.464389099972323","0.450984299997799","1","1","1","1","1","1","1","1","1"
"250062","img/neutralC/CFD-MF-340-026-N.jpg","img/neutralC/CFD-LM-217-162-N.jpg","img/neutralC/CFD-WF-008-002-N.jpg","1","1","1","1","0","1","0.450984299997799","0.534974399954081","0.721338300034404","1","1","1","1","1","1","1","1","1"
"250062","img/neutralC/CFD-WF-008-002-N.jpg","img/neutralC/CFD-MF-340-026-N.jpg","img/neutralC/CFD-IF-608-390-N.jpg","1","1","1","1","1","1","0.721338300034404","0.450984299997799","0.543592200032435","1","1","1","1","1","1","1","1","1"
"250062","img/neutralC/CFD-IF-608-390-N.jpg","img/neutralC/CFD-WF-008-002-N.jpg","img/neutralC/CFD-LF-226-174-N.jpg","1","1","1","1","1","0","0.543592200032435","0.721338300034404","0.473155700019561","1","1","1","1","1","1","1","1","1"
"250062","img/neutralC/CFD-LF-226-174-N.jpg","img/neutralC/CFD-IF-608-390-N.jpg","img/neutralC/CFD-BF-051-035-N.jpg","1","1","1","0","1","0","0.473155700019561","0.543592200032435","0.418883500038646","1","1","1","1","1","1","1","1","1"
"250062","img/neutralC/CFD-BF-051-035-N.jpg","img/neutralC/CFD-LF-226-174-N.jpg","img/neutralC/CFD-AF-215-70-N.jpg","1","1","1","0","0","0","0.418883500038646","0.473155700019561","0.493332899990492","1","1","1","1","1","1","1","1","1"
"250062","img/neutralC/CFD-AF-215-70-N.jpg","img/neutralC/CFD-BF-051-035-N.jpg","img/neutralC/CFD-IM-685-004-N.jpg","1","1","1","0","0","1","0.493332899990492","0.418883500038646","0.533670300035737","1","1","1","1","1","1","1","1","1"
"250062","img/neutralC/CFD-IM-685-004-N.jpg","img/neutralC/CFD-AF-215-70-N.jpg","img/neutralC/CFD-MF-329-001-N.jpg","1","1","1","1","0","0","0.533670300035737","0.493332899990492","0.489649499999359","1","1","1","1","1","1","1","1","1"
"250062","img/neutralC/CFD-MF-329-001-N.jpg","img/neutralC/CFD-IM-685-004-N.jpg","img/neutralC/CFD-BF-224-002-N.jpg","1","1","1","0","1","1","0.489649499999359","0.533670300035737","0.516012400039472","1","1","1","1","1","1","1","1","1"
"250062","img/neutralC/CFD-BF-224-002-N.jpg","img/neutralC/CFD-MF-329-001-N.jpg","img/neutralC/CFD-WF-217-085-N.jpg","1","1","1","1","0","1","0.516012400039472","0.489649499999359","0.453536799992435","1","1","1","1","1","1","1","1","1"
"250062","img/neutralC/CFD-WF-217-085-N.jpg","img/neutralC/CFD-BF-224-002-N.jpg","img/neutralC/CFD-WM-024-015-N.jpg","1","1","1","1","1","1","0.453536799992435","0.516012400039472","0.433298599906266","1","1","1","1","1","1","1","1","1"
"250062","img/neutralC/CFD-WM-024-015-N.jpg","img/neutralC/CFD-WF-217-085-N.jpg","img/neutralC/CFD-MF-300-002-N.jpg","1","1","1","1","1","0","0.433298599906266","0.453536799992435","0.473543000058271","1","1","1","1","1","1","1","1","1"
"250062","img/neutralC/CFD-MF-300-002-N.jpg","img/neutralC/CFD-WM-024-015-N.jpg","img/neutralC/CFD-WM-232-070-N.jpg","1","1","1","0","1","0","0.473543000058271","0.433298599906266","0.391482599894516","1","1","1","1","1","1","1","1","1"
"250062","img/neutralC/CFD-WM-232-070-N.jpg","img/neutralC/CFD-MF-300-002-N.jpg",NA,"1","1",NA,"0","0",NA,"0.391482599894516","0.473543000058271",NA,"1","1",NA,"1","1",NA,"1","1",NA
"250062","img/neutralC/CFD-LM-252-076-N.jpg",NA,"img/neutralC/CFD-BF-201-080-N.jpg","1",NA,"1","1",NA,"1","0.607591999927536",NA,"0.503067699959502","1",NA,"1","1",NA,"1","1",NA,"1"
"250062","img/neutralC/CFD-BF-201-080-N.jpg","img/neutralC/CFD-LM-252-076-N.jpg","img/neutralC/CFD-WM-040-022-N.jpg","1","1","1","1","1","0","0.503067699959502","0.607591999927536","0.420242000021972","1","1","1","1","1","1","1","1","1"
"250062","img/neutralC/CFD-WM-040-022-N.jpg","img/neutralC/CFD-BF-201-080-N.jpg","img/neutralC/CFD-IF-672-305-N.jpg","1","1","1","0","1","0","0.420242000021972","0.503067699959502","0.462773300008848","1","1","1","1","1","1","1","1","1"
"250062","img/neutralC/CFD-IF-672-305-N.jpg","img/neutralC/CFD-WM-040-022-N.jpg","img/neutralC/CFD-WM-002-009-N.jpg","1","1","1","0","0","0","0.462773300008848","0.420242000021972","0.483008300070651","1","1","1","1","1","1","1","1","1"
"250062","img/neutralC/CFD-WM-002-009-N.jpg","img/neutralC/CFD-IF-672-305-N.jpg","img/neutralC/CFD-BM-015-015-N.jpg","1","1","1","0","0","0","0.483008300070651","0.462773300008848","0.484102200018242","1","1","1","1","1","1","1","1","1"
"250062","img/neutralC/CFD-BM-015-015-N.jpg","img/neutralC/CFD-WM-002-009-N.jpg","img/neutralC/CFD-AM-217-085-N.jpg","1","1","1","0","0","0","0.484102200018242","0.483008300070651","0.517345999949612","1","1","1","1","1","1","1","1","1"
"250062","img/neutralC/CFD-AM-217-085-N.jpg","img/neutralC/CFD-BM-015-015-N.jpg","img/neutralC/CFD-IM-639-263-N.jpg","1","1","1","0","0","1","0.517345999949612","0.484102200018242","0.365377300069667","1","1","1","1","1","1","1","1","1"
"250062","img/neutralC/CFD-IM-639-263-N.jpg","img/neutralC/CFD-AM-217-085-N.jpg","img/neutralC/CFD-LF-216-121-N.jpg","1","1","1","1","0","1","0.365377300069667","0.517345999949612","0.419055100064725","1","1","1","1","1","1","1","1","1"
"250062","img/neutralC/CFD-LF-216-121-N.jpg","img/neutralC/CFD-IM-639-263-N.jpg","img/neutralC/CFD-BF-003-003-N.jpg","1","1","1","1","1","0","0.419055100064725","0.365377300069667","0.446770400041714","1","1","1","1","1","1","1","1","1"
"250062","img/neutralC/CFD-BF-003-003-N.jpg","img/neutralC/CFD-LF-216-121-N.jpg","img/neutralC/CFD-BM-211-174-N.jpg","1","1","1","0","1","0","0.446770400041714","0.419055100064725","0.516982899978757","1","1","1","1","1","1","1","1","1"
"250062","img/neutralC/CFD-BM-211-174-N.jpg","img/neutralC/CFD-BF-003-003-N.jpg","img/neutralC/CFD-WF-022-017-N.jpg","1","1","1","0","0","0","0.516982899978757","0.446770400041714","0.493261499912478","1","1","1","1","1","1","1","1","1"
"250062","img/neutralC/CFD-WF-022-017-N.jpg","img/neutralC/CFD-BM-211-174-N.jpg","img/neutralC/CFD-WM-257-161-N.jpg","1","1","1","0","0","1","0.493261499912478","0.516982899978757","0.429339100024663","1","1","1","1","1","1","1","1","1"
"250062","img/neutralC/CFD-WM-257-161-N.jpg","img/neutralC/CFD-WF-022-017-N.jpg","img/neutralC/CFD-BF-204-189-N.jpg","1","1","1","1","0","1","0.429339100024663","0.493261499912478","0.470575800049119","1","1","1","1","1","1","1","1","1"
"250062","img/neutralC/CFD-BF-204-189-N.jpg","img/neutralC/CFD-WM-257-161-N.jpg","img/neutralC/CFD-WF-026-002-N.jpg","1","1","1","1","1","1","0.470575800049119","0.429339100024663","0.517418499919586","1","1","1","1","1","1","1","1","1"
"250062","img/neutralC/CFD-WF-026-002-N.jpg","img/neutralC/CFD-BF-204-189-N.jpg","img/neutralC/CFD-MM-319-052-N.jpg","1","1","1","1","1","1","0.517418499919586","0.470575800049119","0.469549800036475","1","1","1","1","1","1","1","1","1"
"250062","img/neutralC/CFD-MM-319-052-N.jpg","img/neutralC/CFD-WF-026-002-N.jpg","img/neutralC/CFD-BF-028-001-N.jpg","1","1","1","1","1","1","0.469549800036475","0.517418499919586","0.439917199895717","1","1","1","1","1","1","1","1","1"
"250062","img/neutralC/CFD-BF-028-001-N.jpg","img/neutralC/CFD-MM-319-052-N.jpg","img/neutralC/CFD-BM-027-001-N.jpg","1","1","1","1","1","0","0.439917199895717","0.469549800036475","0.478171500028111","1","1","1","1","1","1","1","1","1"
"250062","img/neutralC/CFD-BM-027-001-N.jpg","img/neutralC/CFD-BF-028-001-N.jpg","img/neutralC/CFD-BM-247-240-N.jpg","1","1","1","0","1","0","0.478171500028111","0.439917199895717","0.570054300012998","1","1","1","1","1","1","1","1","1"
"250062","img/neutralC/CFD-BM-247-240-N.jpg","img/neutralC/CFD-BM-027-001-N.jpg","img/neutralC/CFD-WM-225-127-N.jpg","1","1","1","0","0","0","0.570054300012998","0.478171500028111","0.48990349995438","1","1","1","1","1","1","1","1","1"
"250062","img/neutralC/CFD-WM-225-127-N.jpg","img/neutralC/CFD-BM-247-240-N.jpg","img/neutralC/CFD-IF-718-001-N.jpg","1","1","1","0","0","1","0.48990349995438","0.570054300012998","0.397586499922909","1","1","1","1","1","1","1","1","1"
"250062","img/neutralC/CFD-IF-718-001-N.jpg","img/neutralC/CFD-WM-225-127-N.jpg","img/neutralC/CFD-WM-038-003-N.jpg","1","1","1","1","0","0","0.397586499922909","0.48990349995438","0.374824099941179","1","1","1","1","1","1","1","1","1"
"250062","img/neutralC/CFD-WM-038-003-N.jpg","img/neutralC/CFD-IF-718-001-N.jpg","img/neutralC/CFD-BF-023-010-N.jpg","1","1","1","0","1","1","0.374824099941179","0.397586499922909","0.405903699924238","1","1","1","1","1","1","1","1","1"
"250062","img/neutralC/CFD-BF-023-010-N.jpg","img/neutralC/CFD-WM-038-003-N.jpg","img/neutralC/CFD-IM-674-281-N.jpg","1","1","1","1","0","1","0.405903699924238","0.374824099941179","0.472838700050488","1","1","1","1","1","1","1","1","1"
"250062","img/neutralC/CFD-IM-674-281-N.jpg","img/neutralC/CFD-BF-023-010-N.jpg","img/neutralC/CFD-BM-029-024-N.jpg","1","1","1","1","1","1","0.472838700050488","0.405903699924238","0.414159800042398","1","1","1","1","1","1","1","1","1"
"250062","img/neutralC/CFD-BM-029-024-N.jpg","img/neutralC/CFD-IM-674-281-N.jpg","img/neutralC/CFD-IM-728-041-N.jpg","1","1","1","1","1","0","0.414159800042398","0.472838700050488","0.482534199953079","1","1","1","1","1","1","1","1","1"
"250062","img/neutralC/CFD-IM-728-041-N.jpg","img/neutralC/CFD-BM-029-024-N.jpg","img/neutralC/CFD-BF-255-140-N.jpg","1","1","1","0","1","1","0.482534199953079","0.414159800042398","0.493297199951485","1","1","1","1","1","1","1","1","1"
"250062","img/neutralC/CFD-BF-255-140-N.jpg","img/neutralC/CFD-IM-728-041-N.jpg","img/neutralC/CFD-AM-215-120-N.jpg","1","1","1","1","0","1","0.493297199951485","0.482534199953079","0.485633900039829","1","1","1","1","1","1","1","1","1"
"250062","img/neutralC/CFD-AM-215-120-N.jpg","img/neutralC/CFD-BF-255-140-N.jpg","img/neutralC/CFD-LF-236-221-N.jpg","1","1","1","1","1","1","0.485633900039829","0.493297199951485","0.671056100050919","1","1","1","1","1","1","1","1","1"
"250062","img/neutralC/CFD-LF-236-221-N.jpg","img/neutralC/CFD-AM-215-120-N.jpg","img/neutralC/CFD-WF-002-004-N.jpg","1","1","1","1","1","0","0.671056100050919","0.485633900039829","0.422040400095284","1","1","1","1","1","1","1","1","1"
"250062","img/neutralC/CFD-WF-002-004-N.jpg","img/neutralC/CFD-LF-236-221-N.jpg","img/neutralC/CFD-BF-208-266-N.jpg","1","1","1","0","1","0","0.422040400095284","0.671056100050919","0.469544299994595","1","1","1","1","1","1","1","1","1"
"250062","img/neutralC/CFD-BF-208-266-N.jpg","img/neutralC/CFD-WF-002-004-N.jpg","img/neutralC/CFD-AM-235-241-N.jpg","1","1","1","0","0","0","0.469544299994595","0.422040400095284","0.542787400074303","1","1","1","1","1","1","1","1","1"
"250062","img/neutralC/CFD-AM-235-241-N.jpg","img/neutralC/CFD-BF-208-266-N.jpg",NA,"1","1",NA,"0","0",NA,"0.542787400074303","0.469544299994595",NA,"1","1",NA,"1","1",NA,"1","1",NA
"250062","img/neutralC/CFD-WM-219-008-N.jpg",NA,"img/neutralC/CFD-WF-001-003-N.jpg","0",NA,"1","0",NA,"1",NA,NA,"0.515799699933268","0",NA,"1","0",NA,"1","0",NA,"1"
"250062","img/neutralC/CFD-WF-001-003-N.jpg","img/neutralC/CFD-WM-219-008-N.jpg","img/neutralC/CFD-BM-253-004-N.jpg","1","0","1","1","0","1","0.515799699933268",NA,"0.466088899993338","1","0","1","1","0","1","1","0","1"
"250062","img/neutralC/CFD-BM-253-004-N.jpg","img/neutralC/CFD-WF-001-003-N.jpg","img/neutralC/CFD-MF-352-054-N.jpg","1","1","1","1","1","0","0.466088899993338","0.515799699933268","0.472584199975245","1","1","1","1","1","1","1","1","1"
"250062","img/neutralC/CFD-MF-352-054-N.jpg","img/neutralC/CFD-BM-253-004-N.jpg","img/neutralC/CFD-IM-743-006-N.jpg","1","1","1","0","1","1","0.472584199975245","0.466088899993338","0.479085699887946","1","1","1","1","1","1","1","1","1"
"250062","img/neutralC/CFD-IM-743-006-N.jpg","img/neutralC/CFD-MF-352-054-N.jpg","img/neutralC/CFD-BM-225-154-N.jpg","1","1","1","1","0","1","0.479085699887946","0.472584199975245","0.423598599969409","1","1","1","1","1","1","1","1","1"
"250062","img/neutralC/CFD-BM-225-154-N.jpg","img/neutralC/CFD-IM-743-006-N.jpg","img/neutralC/CFD-MF-359-019-N.jpg","1","1","1","1","1","0","0.423598599969409","0.479085699887946","0.438322900095955","1","1","1","1","1","1","1","1","1"
"250062","img/neutralC/CFD-MF-359-019-N.jpg","img/neutralC/CFD-BM-225-154-N.jpg","img/neutralC/CFD-IM-616-214-N.jpg","1","1","1","0","1","0","0.438322900095955","0.423598599969409","0.524457799969241","1","1","1","1","1","1","1","1","1"
"250062","img/neutralC/CFD-IM-616-214-N.jpg","img/neutralC/CFD-MF-359-019-N.jpg","img/neutralC/CFD-AM-251-124-N.jpg","1","1","1","0","0","0","0.524457799969241","0.438322900095955","0.452477299957536","1","1","1","1","1","1","1","1","1"
"250062","img/neutralC/CFD-AM-251-124-N.jpg","img/neutralC/CFD-IM-616-214-N.jpg","img/neutralC/CFD-LF-218-072-N.jpg","1","1","1","0","0","0","0.452477299957536","0.524457799969241","0.482043599942699","1","1","1","1","1","1","1","1","1"
"250062","img/neutralC/CFD-LF-218-072-N.jpg","img/neutralC/CFD-AM-251-124-N.jpg","img/neutralC/CFD-AM-242-176-N.jpg","1","1","1","0","0","1","0.482043599942699","0.452477299957536","0.45195070002228","1","1","1","1","1","1","1","1","1"
"250062","img/neutralC/CFD-AM-242-176-N.jpg","img/neutralC/CFD-LF-218-072-N.jpg","img/neutralC/CFD-IM-671-601-N.jpg","1","1","1","1","0","0","0.45195070002228","0.482043599942699","0.50629889999982","1","1","1","1","1","1","1","1","1"
"250062","img/neutralC/CFD-IM-671-601-N.jpg","img/neutralC/CFD-AM-242-176-N.jpg","img/neutralC/CFD-IF-623-129-N.jpg","1","1","1","0","1","1","0.50629889999982","0.45195070002228","0.365927800070494","1","1","1","1","1","1","1","1","1"
"250062","img/neutralC/CFD-IF-623-129-N.jpg","img/neutralC/CFD-IM-671-601-N.jpg","img/neutralC/CFD-IM-645-001-N.jpg","1","1","1","1","0","0","0.365927800070494","0.50629889999982","0.432917199912481","1","1","1","1","1","1","1","1","1"
"250062","img/neutralC/CFD-IM-645-001-N.jpg","img/neutralC/CFD-IF-623-129-N.jpg","img/neutralC/CFD-IM-703-182-N.jpg","1","1","1","0","1","1","0.432917199912481","0.365927800070494","0.439034100039862","1","1","1","1","1","1","1","1","1"
"250062","img/neutralC/CFD-IM-703-182-N.jpg","img/neutralC/CFD-IM-645-001-N.jpg","img/neutralC/CFD-BF-232-187-N.jpg","1","1","1","1","0","1","0.439034100039862","0.432917199912481","0.47894359997008","1","1","1","1","1","1","1","1","1"
"250062","img/neutralC/CFD-BF-232-187-N.jpg","img/neutralC/CFD-IM-703-182-N.jpg","img/neutralC/CFD-LM-237-264-N.jpg","1","1","1","1","1","0","0.47894359997008","0.439034100039862","0.434230500017293","1","1","1","1","1","1","1","1","1"
"250062","img/neutralC/CFD-LM-237-264-N.jpg","img/neutralC/CFD-BF-232-187-N.jpg","img/neutralC/CFD-WF-200-099-N.jpg","1","1","1","0","1","0","0.434230500017293","0.47894359997008","0.483923499938101","1","1","1","1","1","1","1","1","1"
"250062","img/neutralC/CFD-WF-200-099-N.jpg","img/neutralC/CFD-LM-237-264-N.jpg","img/neutralC/CFD-IF-650-315-N.jpg","1","1","1","0","0","0","0.483923499938101","0.434230500017293","0.45637569995597","1","1","1","1","1","1","1","1","1"
"250062","img/neutralC/CFD-IF-650-315-N.jpg","img/neutralC/CFD-WF-200-099-N.jpg","img/neutralC/CFD-WM-004-010-N.jpg","1","1","1","0","0","0","0.45637569995597","0.483923499938101","0.503545300103724","1","1","1","1","1","1","1","1","1"
"250062","img/neutralC/CFD-WM-004-010-N.jpg","img/neutralC/CFD-IF-650-315-N.jpg","img/neutralC/CFD-BF-038-037-N.jpg","1","1","1","0","0","1","0.503545300103724","0.45637569995597","0.423622300033458","1","1","1","1","1","1","1","1","1"
"250062","img/neutralC/CFD-BF-038-037-N.jpg","img/neutralC/CFD-WM-004-010-N.jpg","img/neutralC/CFD-LF-220-120-N.jpg","1","1","1","1","0","1","0.423622300033458","0.503545300103724","0.375360199948773","1","1","1","1","1","1","1","1","1"
"250062","img/neutralC/CFD-LF-220-120-N.jpg","img/neutralC/CFD-BF-038-037-N.jpg","img/neutralC/CFD-WF-214-122-N.jpg","1","1","1","1","1","1","0.375360199948773","0.423622300033458","0.416633200016804","1","1","1","1","1","1","1","1","1"
"250062","img/neutralC/CFD-WF-214-122-N.jpg","img/neutralC/CFD-LF-220-120-N.jpg","img/neutralC/CFD-MF-333-012-N.jpg","1","1","1","1","1","0","0.416633200016804","0.375360199948773","0.423896600026637","1","1","1","1","1","1","1","1","1"
"250062","img/neutralC/CFD-MF-333-012-N.jpg","img/neutralC/CFD-WF-214-122-N.jpg","img/neutralC/CFD-WF-036-023-N.jpg","1","1","1","0","1","0","0.423896600026637","0.416633200016804","0.437527399975806","1","1","1","1","1","1","1","1","1"
"250062","img/neutralC/CFD-WF-036-023-N.jpg","img/neutralC/CFD-MF-333-012-N.jpg","img/neutralC/CFD-AM-211-052-N.jpg","1","1","1","0","0","1","0.437527399975806","0.423896600026637","0.386238800012507","1","1","1","1","1","1","1","1","1"
"250062","img/neutralC/CFD-AM-211-052-N.jpg","img/neutralC/CFD-WF-036-023-N.jpg","img/neutralC/CFD-LM-228-188-N.jpg","1","1","1","1","0","1","0.386238800012507","0.437527399975806","0.490420799935237","1","1","1","1","1","1","1","1","1"
"250062","img/neutralC/CFD-LM-228-188-N.jpg","img/neutralC/CFD-AM-211-052-N.jpg","img/neutralC/CFD-WM-020-001-N.jpg","1","1","1","1","1","1","0.490420799935237","0.386238800012507","0.430403999984264","1","1","1","1","1","1","1","1","1"
"250062","img/neutralC/CFD-WM-020-001-N.jpg","img/neutralC/CFD-LM-228-188-N.jpg","img/neutralC/CFD-BF-226-119-N.jpg","1","1","1","1","1","1","0.430403999984264","0.490420799935237","0.442193800001405","1","1","1","1","1","1","1","1","1"
"250062","img/neutralC/CFD-BF-226-119-N.jpg","img/neutralC/CFD-WM-020-001-N.jpg","img/neutralC/CFD-WM-235-147-N.jpg","1","1","1","1","1","0","0.442193800001405","0.430403999984264","0.487839999957941","1","1","1","1","1","1","1","1","1"
"250062","img/neutralC/CFD-WM-235-147-N.jpg","img/neutralC/CFD-BF-226-119-N.jpg","img/neutralC/CFD-WM-033-025-N.jpg","1","1","1","0","1","1","0.487839999957941","0.442193800001405","0.431736300000921","1","1","1","1","1","1","1","1","1"
"250062","img/neutralC/CFD-WM-033-025-N.jpg","img/neutralC/CFD-WM-235-147-N.jpg","img/neutralC/CFD-BF-229-179-N.jpg","1","1","1","1","0","0","0.431736300000921","0.487839999957941","0.479842399945483","1","1","1","1","1","1","1","1","1"
"250062","img/neutralC/CFD-BF-229-179-N.jpg","img/neutralC/CFD-WM-033-025-N.jpg",NA,"1","1",NA,"0","1",NA,"0.479842399945483","0.431736300000921",NA,"1","1",NA,"1","1",NA,"1","1",NA
"250062","img/neutralC/CFD-AF-246-242-N.jpg",NA,"img/neutralC/CFD-MF-302-027-N.jpg","1",NA,"1","0",NA,"0","0.57515620009508",NA,"0.50117120007053","1",NA,"1","1",NA,"1","1",NA,"1"
"250062","img/neutralC/CFD-MF-302-027-N.jpg","img/neutralC/CFD-AF-246-242-N.jpg","img/neutralC/CFD-BF-020-002-N.jpg","1","1","1","0","0","1","0.50117120007053","0.57515620009508","0.456496200058609","1","1","1","1","1","1","1","1","1"
"250062","img/neutralC/CFD-BF-020-002-N.jpg","img/neutralC/CFD-MF-302-027-N.jpg","img/neutralC/CFD-AM-233-236-N.jpg","1","1","1","1","0","1","0.456496200058609","0.50117120007053","0.425835600006394","1","1","1","1","1","1","1","1","1"
"250062","img/neutralC/CFD-AM-233-236-N.jpg","img/neutralC/CFD-BF-020-002-N.jpg","img/neutralC/CFD-AM-245-111-N.jpg","1","1","1","1","1","1","0.425835600006394","0.456496200058609","0.472489799954928","1","1","1","1","1","1","1","1","1"
"250062","img/neutralC/CFD-AM-245-111-N.jpg","img/neutralC/CFD-AM-233-236-N.jpg","img/neutralC/CFD-IM-669-111-N.jpg","1","1","1","1","1","1","0.472489799954928","0.425835600006394","0.546739600016735","1","1","1","1","1","1","1","1","1"
"250062","img/neutralC/CFD-IM-669-111-N.jpg","img/neutralC/CFD-AM-245-111-N.jpg","img/neutralC/CFD-AF-205-155-N.jpg","1","1","1","1","1","0","0.546739600016735","0.472489799954928","0.456585799925961","1","1","1","1","1","1","1","1","1"
"250062","img/neutralC/CFD-AF-205-155-N.jpg","img/neutralC/CFD-IM-669-111-N.jpg","img/neutralC/CFD-BF-042-026-N.jpg","1","1","1","0","1","1","0.456585799925961","0.546739600016735","0.46749589999672","1","1","1","1","1","1","1","1","1"
"250062","img/neutralC/CFD-BF-042-026-N.jpg","img/neutralC/CFD-AF-205-155-N.jpg","img/neutralC/CFD-IF-636-011-N.jpg","1","1","1","1","0","1","0.46749589999672","0.456585799925961","0.443283399916254","1","1","1","1","1","1","1","1","1"
"250062","img/neutralC/CFD-IF-636-011-N.jpg","img/neutralC/CFD-BF-042-026-N.jpg","img/neutralC/CFD-BM-004-002-N.jpg","1","1","1","1","1","0","0.443283399916254","0.46749589999672","0.558113500010222","1","1","1","1","1","1","1","1","1"
"250062","img/neutralC/CFD-BM-004-002-N.jpg","img/neutralC/CFD-IF-636-011-N.jpg","img/neutralC/CFD-LF-239-148-N.jpg","1","1","1","0","1","0","0.558113500010222","0.443283399916254","0.430332699907012","1","1","1","1","1","1","1","1","1"
"250062","img/neutralC/CFD-LF-239-148-N.jpg","img/neutralC/CFD-BM-004-002-N.jpg","img/neutralC/CFD-BF-040-003-N.jpg","1","1","1","0","0","1","0.430332699907012","0.558113500010222","0.438850699923933","1","1","1","1","1","1","1","1","1"
"250062","img/neutralC/CFD-BF-040-003-N.jpg","img/neutralC/CFD-LF-239-148-N.jpg","img/neutralC/CFD-AF-213-126-N.jpg","1","1","1","1","0","1","0.438850699923933","0.430332699907012","0.49413360003382","1","1","1","1","1","1","1","1","1"
"250062","img/neutralC/CFD-AF-213-126-N.jpg","img/neutralC/CFD-BF-040-003-N.jpg","img/neutralC/CFD-BF-235-168-N.jpg","1","1","1","1","1","1","0.49413360003382","0.438850699923933","0.492810499970801","1","1","1","1","1","1","1","1","1"
"250062","img/neutralC/CFD-BF-235-168-N.jpg","img/neutralC/CFD-AF-213-126-N.jpg","img/neutralC/CFD-AM-225-102-N.jpg","1","1","1","1","1","0","0.492810499970801","0.49413360003382","0.61362660001032","1","1","1","1","1","1","1","1","1"
"250062","img/neutralC/CFD-AM-225-102-N.jpg","img/neutralC/CFD-BF-235-168-N.jpg","img/neutralC/CFD-IM-635-010-N.jpg","1","1","1","0","1","1","0.61362660001032","0.492810499970801","0.450320599949919","1","1","1","1","1","1","1","1","1"
"250062","img/neutralC/CFD-IM-635-010-N.jpg","img/neutralC/CFD-AM-225-102-N.jpg","img/neutralC/CFD-IM-632-097-N.jpg","1","1","1","1","0","0","0.450320599949919","0.61362660001032","0.463506400003098","1","1","1","1","1","1","1","1","1"
"250062","img/neutralC/CFD-IM-632-097-N.jpg","img/neutralC/CFD-IM-635-010-N.jpg","img/neutralC/CFD-WF-210-086-N.jpg","1","1","1","0","1","0","0.463506400003098","0.450320599949919","0.463923599920236","1","1","1","1","1","1","1","1","1"
"250062","img/neutralC/CFD-WF-210-086-N.jpg","img/neutralC/CFD-IM-632-097-N.jpg","img/neutralC/CFD-IF-732-260-N.jpg","1","1","1","0","0","0","0.463923599920236","0.463506400003098","0.509190200013109","1","1","1","1","1","1","1","1","1"
"250062","img/neutralC/CFD-IF-732-260-N.jpg","img/neutralC/CFD-WF-210-086-N.jpg","img/neutralC/CFD-WM-253-119-N.jpg","1","1","1","0","0","1","0.509190200013109","0.463923599920236","0.544905200018547","1","1","1","1","1","1","1","1","1"
"250062","img/neutralC/CFD-WM-253-119-N.jpg","img/neutralC/CFD-IF-732-260-N.jpg","img/neutralC/CFD-AF-244-168-N.jpg","1","1","1","1","0","0","0.544905200018547","0.509190200013109","0.530978100025095","1","1","1","1","1","1","1","1","1"
"250062","img/neutralC/CFD-AF-244-168-N.jpg","img/neutralC/CFD-WM-253-119-N.jpg","img/neutralC/CFD-AF-250-200-N.jpg","1","1","1","0","1","1","0.530978100025095","0.544905200018547","0.524248200003058","1","1","1","1","1","1","1","1","1"
"250062","img/neutralC/CFD-AF-250-200-N.jpg","img/neutralC/CFD-AF-244-168-N.jpg","img/neutralC/CFD-BF-217-189-N.jpg","1","1","1","1","0","0","0.524248200003058","0.530978100025095","0.434962400002405","1","1","1","1","1","1","1","1","1"
"250062","img/neutralC/CFD-BF-217-189-N.jpg","img/neutralC/CFD-AF-250-200-N.jpg","img/neutralC/CFD-MF-307-002-N.jpg","1","1","1","0","1","1","0.434962400002405","0.524248200003058","0.489375100005418","1","1","1","1","1","1","1","1","1"
"250062","img/neutralC/CFD-MF-307-002-N.jpg","img/neutralC/CFD-BF-217-189-N.jpg","img/neutralC/CFD-LM-241-125-N.jpg","1","1","1","1","0","1","0.489375100005418","0.434962400002405","0.428941300022416","1","1","1","1","1","1","1","1","1"
"250062","img/neutralC/CFD-LM-241-125-N.jpg","img/neutralC/CFD-MF-307-002-N.jpg","img/neutralC/CFD-WF-235-121-N.jpg","1","1","1","1","1","0","0.428941300022416","0.489375100005418","0.424020400037989","1","1","1","1","1","1","1","1","1"
"250062","img/neutralC/CFD-WF-235-121-N.jpg","img/neutralC/CFD-LM-241-125-N.jpg","img/neutralC/CFD-IM-678-482-N.jpg","1","1","1","0","1","0","0.424020400037989","0.428941300022416","0.523715800023638","1","1","1","1","1","1","1","1","1"
"250062","img/neutralC/CFD-IM-678-482-N.jpg","img/neutralC/CFD-WF-235-121-N.jpg","img/neutralC/CFD-WM-018-002-N.jpg","1","1","1","0","0","0","0.523715800023638","0.424020400037989","0.515341499936767","1","1","1","1","1","1","1","1","1"
"250062","img/neutralC/CFD-WM-018-002-N.jpg","img/neutralC/CFD-IM-678-482-N.jpg","img/neutralC/CFD-AF-234-208-N.jpg","1","1","1","0","0","1","0.515341499936767","0.523715800023638","0.427679600077681","1","1","1","1","1","1","1","1","1"
"250062","img/neutralC/CFD-AF-234-208-N.jpg","img/neutralC/CFD-WM-018-002-N.jpg","img/neutralC/CFD-BM-215-155-N.jpg","1","1","1","1","0","0","0.427679600077681","0.515341499936767","0.399549100082368","1","1","1","1","1","1","1","1","1"
"250062","img/neutralC/CFD-BM-215-155-N.jpg","img/neutralC/CFD-AF-234-208-N.jpg","img/neutralC/CFD-LM-204-001-N.jpg","1","1","1","0","1","0","0.399549100082368","0.427679600077681","0.448898100061342","1","1","1","1","1","1","1","1","1"
"250062","img/neutralC/CFD-LM-204-001-N.jpg","img/neutralC/CFD-BM-215-155-N.jpg","img/neutralC/CFD-BF-206-143-N.jpg","1","1","1","0","0","1","0.448898100061342","0.399549100082368","0.408626900054514","1","1","1","1","1","1","1","1","1"
"250062","img/neutralC/CFD-BF-206-143-N.jpg","img/neutralC/CFD-LM-204-001-N.jpg",NA,"1","1",NA,"1","0",NA,"0.408626900054514","0.448898100061342",NA,"1","1",NA,"1","1",NA,"1","1",NA
"250062","img/neutralC/CFD-IM-719-221-N.jpg",NA,"img/neutralC/CFD-WF-226-095-N.jpg","1",NA,"1","0",NA,"1","0.538806300028227",NA,"0.606274700025097","1",NA,"1","1",NA,"1","1",NA,"1"
"250062","img/neutralC/CFD-WF-226-095-N.jpg","img/neutralC/CFD-IM-719-221-N.jpg","img/neutralC/CFD-AM-244-222-N.jpg","1","1","1","1","0","0","0.606274700025097","0.538806300028227","0.512255899957381","1","1","1","1","1","1","1","1","1"
"250062","img/neutralC/CFD-AM-244-222-N.jpg","img/neutralC/CFD-WF-226-095-N.jpg","img/neutralC/CFD-LF-215-157-N.jpg","1","1","1","0","1","0","0.512255899957381","0.606274700025097","0.460441900067963","1","1","1","1","1","1","1","1","1"
"250062","img/neutralC/CFD-LF-215-157-N.jpg","img/neutralC/CFD-AM-244-222-N.jpg","img/neutralC/CFD-BM-023-029-N.jpg","1","1","1","0","0","1","0.460441900067963","0.512255899957381","0.426397899980657","1","1","1","1","1","1","1","1","1"
"250062","img/neutralC/CFD-BM-023-029-N.jpg","img/neutralC/CFD-LF-215-157-N.jpg","img/neutralC/CFD-WM-201-063-N.jpg","1","1","1","1","0","1","0.426397899980657","0.460441900067963","0.422239599982277","1","1","1","1","1","1","1","1","1"
"250062","img/neutralC/CFD-WM-201-063-N.jpg","img/neutralC/CFD-BM-023-029-N.jpg","img/neutralC/CFD-MF-342-022-N.jpg","1","1","1","1","1","1","0.422239599982277","0.426397899980657","0.482413699966855","1","1","1","1","1","1","1","1","1"
"250062","img/neutralC/CFD-MF-342-022-N.jpg","img/neutralC/CFD-WM-201-063-N.jpg","img/neutralC/CFD-WM-013-001-N.jpg","1","1","1","1","1","1","0.482413699966855","0.422239599982277","0.409659500000998","1","1","1","1","1","1","1","1","1"
"250062","img/neutralC/CFD-WM-013-001-N.jpg","img/neutralC/CFD-MF-342-022-N.jpg","img/neutralC/CFD-MM-321-021-N.jpg","1","1","1","1","1","0","0.409659500000998","0.482413699966855","0.464498499990441","1","1","1","1","1","1","1","1","1"
"250062","img/neutralC/CFD-MM-321-021-N.jpg","img/neutralC/CFD-WM-013-001-N.jpg","img/neutralC/CFD-WM-237-052-N.jpg","1","1","1","0","1","1","0.464498499990441","0.409659500000998","0.453005300019868","1","1","1","1","1","1","1","1","1"
"250062","img/neutralC/CFD-WM-237-052-N.jpg","img/neutralC/CFD-MM-321-021-N.jpg","img/neutralC/CFD-AF-232-078-N.jpg","1","1","1","1","0","1","0.453005300019868","0.464498499990441","0.436138299992308","1","1","1","1","1","1","1","1","1"
"250062","img/neutralC/CFD-AF-232-078-N.jpg","img/neutralC/CFD-WM-237-052-N.jpg","img/neutralC/CFD-AF-221-147-N.jpg","1","1","1","1","1","0","0.436138299992308","0.453005300019868","0.51501139998436","1","1","1","1","1","1","1","1","1"
"250062","img/neutralC/CFD-AF-221-147-N.jpg","img/neutralC/CFD-AF-232-078-N.jpg","img/neutralC/CFD-MF-318-022-N.jpg","1","1","1","0","1","1","0.51501139998436","0.436138299992308","0.513239899999462","1","1","1","1","1","1","1","1","1"
"250062","img/neutralC/CFD-MF-318-022-N.jpg","img/neutralC/CFD-AF-221-147-N.jpg","img/neutralC/CFD-BF-254-201-N.jpg","1","1","1","1","0","0","0.513239899999462","0.51501139998436","0.43025650002528","1","1","1","1","1","1","1","1","1"
"250062","img/neutralC/CFD-BF-254-201-N.jpg","img/neutralC/CFD-MF-318-022-N.jpg","img/neutralC/CFD-IF-629-234-N.jpg","1","1","1","0","1","0","0.43025650002528","0.513239899999462","0.401815199991688","1","1","1","1","1","1","1","1","1"
"250062","img/neutralC/CFD-IF-629-234-N.jpg","img/neutralC/CFD-BF-254-201-N.jpg","img/neutralC/CFD-LF-211-003-N.jpg","1","1","1","0","0","0","0.401815199991688","0.43025650002528","0.492225600057282","1","1","1","1","1","1","1","1","1"
"250062","img/neutralC/CFD-LF-211-003-N.jpg","img/neutralC/CFD-IF-629-234-N.jpg","img/neutralC/CFD-MF-321-003-N.jpg","1","1","1","0","0","0","0.492225600057282","0.401815199991688","0.468758999952115","1","1","1","1","1","1","1","1","1"
"250062","img/neutralC/CFD-MF-321-003-N.jpg","img/neutralC/CFD-LF-211-003-N.jpg","img/neutralC/CFD-LM-253-075-N.jpg","1","1","1","0","0","0","0.468758999952115","0.492225600057282","0.489962099934928","1","1","1","1","1","1","1","1","1"
"250062","img/neutralC/CFD-LM-253-075-N.jpg","img/neutralC/CFD-MF-321-003-N.jpg","img/neutralC/CFD-WM-009-002-N.jpg","1","1","1","0","0","0","0.489962099934928","0.468758999952115","0.500263000023551","1","1","1","1","1","1","1","1","1"
"250062","img/neutralC/CFD-WM-009-002-N.jpg","img/neutralC/CFD-LM-253-075-N.jpg","img/neutralC/CFD-BM-204-003-N.jpg","1","1","1","0","0","0","0.500263000023551","0.489962099934928","0.53943080001045","1","1","1","1","1","1","1","1","1"
"250062","img/neutralC/CFD-BM-204-003-N.jpg","img/neutralC/CFD-WM-009-002-N.jpg","img/neutralC/CFD-WM-255-219-N.jpg","1","1","1","0","0","0","0.53943080001045","0.500263000023551","0.49043999996502","1","1","1","1","1","1","1","1","1"
"250062","img/neutralC/CFD-WM-255-219-N.jpg","img/neutralC/CFD-BM-204-003-N.jpg","img/neutralC/CFD-BM-200-046-N.jpg","1","1","1","0","0","0","0.49043999996502","0.53943080001045","0.465428299969062","1","1","1","1","1","1","1","1","1"
"250062","img/neutralC/CFD-BM-200-046-N.jpg","img/neutralC/CFD-WM-255-219-N.jpg","img/neutralC/CFD-IM-700-009-N.jpg","1","1","1","0","0","1","0.465428299969062","0.49043999996502","0.461144999950193","1","1","1","1","1","1","1","1","1"
"250062","img/neutralC/CFD-IM-700-009-N.jpg","img/neutralC/CFD-BM-200-046-N.jpg","img/neutralC/CFD-WM-221-091-N.jpg","1","1","1","1","0","0","0.461144999950193","0.465428299969062","0.456716699991375","1","1","1","1","1","1","1","1","1"
"250062","img/neutralC/CFD-WM-221-091-N.jpg","img/neutralC/CFD-IM-700-009-N.jpg","img/neutralC/CFD-WF-027-003-N.jpg","1","1","1","0","1","1","0.456716699991375","0.461144999950193","0.462240400025621","1","1","1","1","1","1","1","1","1"
"250062","img/neutralC/CFD-WF-027-003-N.jpg","img/neutralC/CFD-WM-221-091-N.jpg","img/neutralC/CFD-WF-018-017-N.jpg","1","1","1","1","0","1","0.462240400025621","0.456716699991375","0.46823110000696","1","1","1","1","1","1","1","1","1"
"250062","img/neutralC/CFD-WF-018-017-N.jpg","img/neutralC/CFD-WF-027-003-N.jpg","img/neutralC/CFD-WF-245-084-N.jpg","1","1","1","1","1","1","0.46823110000696","0.462240400025621","0.460218599997461","1","1","1","1","1","1","1","1","1"
"250062","img/neutralC/CFD-WF-245-084-N.jpg","img/neutralC/CFD-WF-018-017-N.jpg","img/neutralC/CFD-WF-023-003-N.jpg","1","1","1","1","1","1","0.460218599997461","0.46823110000696","0.43678860005457","1","1","1","1","1","1","1","1","1"
"250062","img/neutralC/CFD-WF-023-003-N.jpg","img/neutralC/CFD-WF-245-084-N.jpg","img/neutralC/CFD-IM-627-178-N.jpg","1","1","1","1","1","1","0.43678860005457","0.460218599997461","0.411852599936537","1","1","1","1","1","1","1","1","1"
"250062","img/neutralC/CFD-IM-627-178-N.jpg","img/neutralC/CFD-WF-023-003-N.jpg","img/neutralC/CFD-BF-018-039-N.jpg","1","1","1","1","1","1","0.411852599936537","0.43678860005457","0.384029899956658","1","1","1","1","1","1","1","1","1"
"250062","img/neutralC/CFD-BF-018-039-N.jpg","img/neutralC/CFD-IM-627-178-N.jpg","img/neutralC/CFD-BF-218-207-N.jpg","1","1","1","1","1","1","0.384029899956658","0.411852599936537","0.456394000095315","1","1","1","1","1","1","1","1","1"
"250062","img/neutralC/CFD-BF-218-207-N.jpg","img/neutralC/CFD-BF-018-039-N.jpg","img/neutralC/CFD-WF-238-023-N.jpg","1","1","1","1","1","0","0.456394000095315","0.384029899956658","0.541471700067632","1","1","1","1","1","1","1","1","1"
"250062","img/neutralC/CFD-WF-238-023-N.jpg","img/neutralC/CFD-BF-218-207-N.jpg",NA,"1","1",NA,"0","1",NA,"0.541471700067632","0.456394000095315",NA,"1","1",NA,"1","1",NA,"1","1",NA
"250062","img/neutralC/CFD-IM-606-008-N.jpg",NA,"img/neutralC/CFD-BM-030-003-N.jpg","1",NA,"1","0",NA,"0","0.54701009998098",NA,"0.642863599932753","1",NA,"1","1",NA,"1","1",NA,"1"
"250062","img/neutralC/CFD-BM-030-003-N.jpg","img/neutralC/CFD-IM-606-008-N.jpg","img/neutralC/CFD-BM-021-021-N.jpg","1","1","1","0","0","1","0.642863599932753","0.54701009998098","0.515021599945612","1","1","1","1","1","1","1","1","1"
"250062","img/neutralC/CFD-BM-021-021-N.jpg","img/neutralC/CFD-BM-030-003-N.jpg","img/neutralC/CFD-WF-221-005-N.jpg","1","1","1","1","0","0","0.515021599945612","0.642863599932753","0.53998669993598","1","1","1","1","1","1","1","1","1"
"250062","img/neutralC/CFD-WF-221-005-N.jpg","img/neutralC/CFD-BM-021-021-N.jpg","img/neutralC/CFD-BF-244-231-N.jpg","1","1","1","0","1","1","0.53998669993598","0.515021599945612","0.522371899918653","1","1","1","1","1","1","1","1","1"
"250062","img/neutralC/CFD-BF-244-231-N.jpg","img/neutralC/CFD-WF-221-005-N.jpg","img/neutralC/CFD-AM-249-163-N.jpg","1","1","1","1","0","1","0.522371899918653","0.53998669993598","0.429468699963763","1","1","1","1","1","1","1","1","1"
"250062","img/neutralC/CFD-AM-249-163-N.jpg","img/neutralC/CFD-BF-244-231-N.jpg","img/neutralC/CFD-BM-020-001-N.jpg","1","1","1","1","1","0","0.429468699963763","0.522371899918653","0.434924600063823","1","1","1","1","1","1","1","1","1"
"250062","img/neutralC/CFD-BM-020-001-N.jpg","img/neutralC/CFD-AM-249-163-N.jpg","img/neutralC/CFD-LM-240-013-N.jpg","1","1","1","0","1","1","0.434924600063823","0.429468699963763","0.418864600011148","1","1","1","1","1","1","1","1","1"
"250062","img/neutralC/CFD-LM-240-013-N.jpg","img/neutralC/CFD-BM-020-001-N.jpg","img/neutralC/CFD-BM-227-191-N.jpg","1","1","1","1","0","1","0.418864600011148","0.434924600063823","0.432937099947594","1","1","1","1","1","1","1","1","1"
"250062","img/neutralC/CFD-BM-227-191-N.jpg","img/neutralC/CFD-LM-240-013-N.jpg","img/neutralC/CFD-AF-237-223-N.jpg","1","1","1","1","1","0","0.432937099947594","0.418864600011148","0.419347199960612","1","1","1","1","1","1","1","1","1"
"250062","img/neutralC/CFD-AF-237-223-N.jpg","img/neutralC/CFD-BM-227-191-N.jpg","img/neutralC/CFD-AM-219-101-N.jpg","1","1","1","0","1","0","0.419347199960612","0.432937099947594","0.531472399947233","1","1","1","1","1","1","1","1","1"
"250062","img/neutralC/CFD-AM-219-101-N.jpg","img/neutralC/CFD-AF-237-223-N.jpg","img/neutralC/CFD-LF-222-147-N.jpg","1","1","1","0","0","0","0.531472399947233","0.419347199960612","0.519541800022125","1","1","1","1","1","1","1","1","1"
"250062","img/neutralC/CFD-LF-222-147-N.jpg","img/neutralC/CFD-AM-219-101-N.jpg","img/neutralC/CFD-AM-205-153-N.jpg","1","1","1","0","0","1","0.519541800022125","0.531472399947233","0.42908220004756","1","1","1","1","1","1","1","1","1"
"250062","img/neutralC/CFD-AM-205-153-N.jpg","img/neutralC/CFD-LF-222-147-N.jpg","img/neutralC/CFD-IM-697-015-N.jpg","1","1","1","1","0","1","0.42908220004756","0.519541800022125","0.438407900044695","1","1","1","1","1","1","1","1","1"
"250062","img/neutralC/CFD-IM-697-015-N.jpg","img/neutralC/CFD-AM-205-153-N.jpg","img/neutralC/CFD-WF-207-014-N.jpg","1","1","1","1","1","1","0.438407900044695","0.42908220004756","0.440424400032498","1","1","1","1","1","1","1","1","1"
"250062","img/neutralC/CFD-WF-207-014-N.jpg","img/neutralC/CFD-IM-697-015-N.jpg","img/neutralC/CFD-BM-043-071-N.jpg","1","1","1","1","1","0","0.440424400032498","0.438407900044695","0.659612199990079","1","1","1","1","1","1","1","1","1"
"250062","img/neutralC/CFD-BM-043-071-N.jpg","img/neutralC/CFD-WF-207-014-N.jpg","img/neutralC/CFD-WM-025-002-N.jpg","1","1","1","0","1","0","0.659612199990079","0.440424400032498","0.463514700066298","1","1","1","1","1","1","1","1","1"
"250062","img/neutralC/CFD-WM-025-002-N.jpg","img/neutralC/CFD-BM-043-071-N.jpg","img/neutralC/CFD-MM-306-010-N.jpg","1","1","1","0","0","0","0.463514700066298","0.659612199990079","0.434120199992321","1","1","1","1","1","1","1","1","1"
"250062","img/neutralC/CFD-MM-306-010-N.jpg","img/neutralC/CFD-WM-025-002-N.jpg","img/neutralC/CFD-AM-243-212-N.jpg","1","1","1","0","0","1","0.434120199992321","0.463514700066298","0.388032899936661","1","1","1","1","1","1","1","1","1"
"250062","img/neutralC/CFD-AM-243-212-N.jpg","img/neutralC/CFD-MM-306-010-N.jpg","img/neutralC/CFD-BF-012-001-N.jpg","1","1","1","1","0","0","0.388032899936661","0.434120199992321","0.453156900010072","1","1","1","1","1","1","1","1","1"
"250062","img/neutralC/CFD-BF-012-001-N.jpg","img/neutralC/CFD-AM-243-212-N.jpg","img/neutralC/CFD-LF-238-154-N.jpg","1","1","1","0","1","1","0.453156900010072","0.388032899936661","0.405038599972613","1","1","1","1","1","1","1","1","1"
"250062","img/neutralC/CFD-LF-238-154-N.jpg","img/neutralC/CFD-BF-012-001-N.jpg","img/neutralC/CFD-WM-023-001-N.jpg","1","1","1","1","0","0","0.405038599972613","0.453156900010072","0.397641999996267","1","1","1","1","1","1","1","1","1"
"250062","img/neutralC/CFD-WM-023-001-N.jpg","img/neutralC/CFD-LF-238-154-N.jpg","img/neutralC/CFD-WF-009-001-N.jpg","1","1","1","0","1","1","0.397641999996267","0.405038599972613","0.453909000032581","1","1","1","1","1","1","1","1","1"
"250062","img/neutralC/CFD-WF-009-001-N.jpg","img/neutralC/CFD-WM-023-001-N.jpg","img/neutralC/CFD-WF-243-148-N.jpg","1","1","1","1","0","0","0.453909000032581","0.397641999996267","0.469048000057228","1","1","1","1","1","1","1","1","1"
"250062","img/neutralC/CFD-WF-243-148-N.jpg","img/neutralC/CFD-WF-009-001-N.jpg","img/neutralC/CFD-BM-009-002-N.jpg","1","1","1","0","1","1","0.469048000057228","0.453909000032581","0.452245800057426","1","1","1","1","1","1","1","1","1"
"250062","img/neutralC/CFD-BM-009-002-N.jpg","img/neutralC/CFD-WF-243-148-N.jpg","img/neutralC/CFD-IF-676-017-N.jpg","1","1","1","1","0","1","0.452245800057426","0.469048000057228","0.47422109998297","1","1","1","1","1","1","1","1","1"
"250062","img/neutralC/CFD-IF-676-017-N.jpg","img/neutralC/CFD-BM-009-002-N.jpg","img/neutralC/CFD-IM-689-263-N.jpg","1","1","1","1","1","1","0.47422109998297","0.452245800057426","0.453189200023189","1","1","1","1","1","1","1","1","1"
"250062","img/neutralC/CFD-IM-689-263-N.jpg","img/neutralC/CFD-IF-676-017-N.jpg","img/neutralC/CFD-LF-212-066-N.jpg","1","1","1","1","1","1","0.453189200023189","0.47422109998297","0.520255899988115","1","1","1","1","1","1","1","1","1"
"250062","img/neutralC/CFD-LF-212-066-N.jpg","img/neutralC/CFD-IM-689-263-N.jpg","img/neutralC/CFD-IM-615-167-N.jpg","1","1","1","1","1","0","0.520255899988115","0.453189200023189","0.455143500003032","1","1","1","1","1","1","1","1","1"
"250062","img/neutralC/CFD-IM-615-167-N.jpg","img/neutralC/CFD-LF-212-066-N.jpg","img/neutralC/CFD-MF-328-020-N.jpg","1","1","1","0","1","0","0.455143500003032","0.520255899988115","0.510041299974546","1","1","1","1","1","1","1","1","1"
"250062","img/neutralC/CFD-MF-328-020-N.jpg","img/neutralC/CFD-IM-615-167-N.jpg","img/neutralC/CFD-WF-241-210-N.jpg","1","1","1","0","0","0","0.510041299974546","0.455143500003032","0.740950800012797","1","1","1","1","1","1","1","1","1"
"250062","img/neutralC/CFD-WF-241-210-N.jpg","img/neutralC/CFD-MF-328-020-N.jpg","img/neutralC/CFD-WM-028-003-N.jpg","1","1","1","0","0","1","0.740950800012797","0.510041299974546","0.464253999991342","1","1","1","1","1","1","1","1","1"
"250062","img/neutralC/CFD-WM-028-003-N.jpg","img/neutralC/CFD-WF-241-210-N.jpg",NA,"1","1",NA,"1","0",NA,"0.464253999991342","0.740950800012797",NA,"1","1",NA,"1","1",NA,"1","1",NA
"250062","img/neutralC/CFD-BM-019-002-N.jpg",NA,"img/neutralC/CFD-IM-684-008-N.jpg","1",NA,"1","0",NA,"1","0.480794999981299",NA,"0.558950700098649","1",NA,"1","1",NA,"1","1",NA,"1"
"250062","img/neutralC/CFD-IM-684-008-N.jpg","img/neutralC/CFD-BM-019-002-N.jpg","img/neutralC/CFD-LM-218-183-N.jpg","1","1","1","1","0","1","0.558950700098649","0.480794999981299","0.625320199993439","1","1","1","1","1","1","1","1","1"
"250062","img/neutralC/CFD-LM-218-183-N.jpg","img/neutralC/CFD-IM-684-008-N.jpg","img/neutralC/CFD-IF-634-382-N.jpg","1","1","1","1","1","1","0.625320199993439","0.558950700098649","0.413598699960858","1","1","1","1","1","1","1","1","1"
"250062","img/neutralC/CFD-IF-634-382-N.jpg","img/neutralC/CFD-LM-218-183-N.jpg","img/neutralC/CFD-AF-231-357-N.jpg","1","1","1","1","1","1","0.413598699960858","0.625320199993439","0.548922400106676","1","1","1","1","1","1","1","1","1"
"250062","img/neutralC/CFD-AF-231-357-N.jpg","img/neutralC/CFD-IF-634-382-N.jpg","img/neutralC/CFD-IF-693-172-N.jpg","1","1","1","1","1","0","0.548922400106676","0.413598699960858","0.448913200059906","1","1","1","1","1","1","1","1","1"
"250062","img/neutralC/CFD-IF-693-172-N.jpg","img/neutralC/CFD-AF-231-357-N.jpg","img/neutralC/CFD-WM-011-002-N.jpg","1","1","1","0","1","0","0.448913200059906","0.548922400106676","0.546430399990641","1","1","1","1","1","1","1","1","1"
"250062","img/neutralC/CFD-WM-011-002-N.jpg","img/neutralC/CFD-IF-693-172-N.jpg","img/neutralC/CFD-BF-253-202-N.jpg","1","1","1","0","0","0","0.546430399990641","0.448913200059906","0.434998900047503","1","1","1","1","1","1","1","1","1"
"250062","img/neutralC/CFD-BF-253-202-N.jpg","img/neutralC/CFD-WM-011-002-N.jpg","img/neutralC/CFD-BM-033-003-N.jpg","1","1","1","0","0","0","0.434998900047503","0.546430399990641","0.461808299995027","1","1","1","1","1","1","1","1","1"
"250062","img/neutralC/CFD-BM-033-003-N.jpg","img/neutralC/CFD-BF-253-202-N.jpg","img/neutralC/CFD-BF-205-141-N.jpg","1","1","1","0","0","0","0.461808299995027","0.434998900047503","0.417198900016956","1","1","1","1","1","1","1","1","1"
"250062","img/neutralC/CFD-BF-205-141-N.jpg","img/neutralC/CFD-BM-033-003-N.jpg","img/neutralC/CFD-WF-213-031-N.jpg","1","1","1","0","0","1","0.417198900016956","0.461808299995027","0.516265699989162","1","1","1","1","1","1","1","1","1"
"250062","img/neutralC/CFD-WF-213-031-N.jpg","img/neutralC/CFD-BF-205-141-N.jpg","img/neutralC/CFD-LF-230-203-N.jpg","1","1","1","1","0","0","0.516265699989162","0.417198900016956","0.450558400014415","1","1","1","1","1","1","1","1","1"
"250062","img/neutralC/CFD-LF-230-203-N.jpg","img/neutralC/CFD-WF-213-031-N.jpg","img/neutralC/CFD-IM-651-308-N.jpg","1","1","1","0","1","0","0.450558400014415","0.516265699989162","0.483849299955182","1","1","1","1","1","1","1","1","1"
"250062","img/neutralC/CFD-IM-651-308-N.jpg","img/neutralC/CFD-LF-230-203-N.jpg","img/neutralC/CFD-AM-212-050-N.jpg","1","1","1","0","0","1","0.483849299955182","0.450558400014415","0.486316099995747","1","1","1","1","1","1","1","1","1"
"250062","img/neutralC/CFD-AM-212-050-N.jpg","img/neutralC/CFD-IM-651-308-N.jpg","img/neutralC/CFD-LF-214-090-N.jpg","1","1","1","1","0","0","0.486316099995747","0.483849299955182","0.471941799973138","1","1","1","1","1","1","1","1","1"
"250062","img/neutralC/CFD-LF-214-090-N.jpg","img/neutralC/CFD-AM-212-050-N.jpg","img/neutralC/CFD-LF-205-100-N.jpg","1","1","1","0","1","1","0.471941799973138","0.486316099995747","0.450306199956685","1","1","1","1","1","1","1","1","1"
"250062","img/neutralC/CFD-LF-205-100-N.jpg","img/neutralC/CFD-LF-214-090-N.jpg","img/neutralC/CFD-BF-213-188-N.jpg","1","1","1","1","0","1","0.450306199956685","0.471941799973138","0.431058299960569","1","1","1","1","1","1","1","1","1"
"250062","img/neutralC/CFD-BF-213-188-N.jpg","img/neutralC/CFD-LF-205-100-N.jpg","img/neutralC/CFD-WM-041-021-N.jpg","1","1","1","1","1","0","0.431058299960569","0.450306199956685","0.455059299943969","1","1","1","1","1","1","1","1","1"
"250062","img/neutralC/CFD-WM-041-021-N.jpg","img/neutralC/CFD-BF-213-188-N.jpg","img/neutralC/CFD-IF-710-016-N.jpg","1","1","1","0","1","0","0.455059299943969","0.431058299960569","0.411436699912883","1","1","1","1","1","1","1","1","1"
"250062","img/neutralC/CFD-IF-710-016-N.jpg","img/neutralC/CFD-WM-041-021-N.jpg","img/neutralC/CFD-BM-239-136-N.jpg","1","1","1","0","0","1","0.411436699912883","0.455059299943969","0.447405299986713","1","1","1","1","1","1","1","1","1"
"250062","img/neutralC/CFD-BM-239-136-N.jpg","img/neutralC/CFD-IF-710-016-N.jpg","img/neutralC/CFD-WF-224-099-N.jpg","1","1","1","1","0","0","0.447405299986713","0.411436699912883","0.387344300048426","1","1","1","1","1","1","1","1","1"
"250062","img/neutralC/CFD-WF-224-099-N.jpg","img/neutralC/CFD-BM-239-136-N.jpg","img/neutralC/CFD-WM-021-001-N.jpg","1","1","1","0","1","1","0.387344300048426","0.447405299986713","0.423709700000472","1","1","1","1","1","1","1","1","1"
"250062","img/neutralC/CFD-WM-021-001-N.jpg","img/neutralC/CFD-WF-224-099-N.jpg","img/neutralC/CFD-AM-201-076-N.jpg","1","1","1","1","0","1","0.423709700000472","0.387344300048426","0.491501400014386","1","1","1","1","1","1","1","1","1"
"250062","img/neutralC/CFD-AM-201-076-N.jpg","img/neutralC/CFD-WM-021-001-N.jpg","img/neutralC/CFD-LF-224-176-N.jpg","1","1","1","1","1","0","0.491501400014386","0.423709700000472","0.53303930000402","1","1","1","1","1","1","1","1","1"
"250062","img/neutralC/CFD-LF-224-176-N.jpg","img/neutralC/CFD-AM-201-076-N.jpg","img/neutralC/CFD-WF-250-167-N.jpg","1","1","1","0","1","1","0.53303930000402","0.491501400014386","0.433474100078456","1","1","1","1","1","1","1","1","1"
"250062","img/neutralC/CFD-WF-250-167-N.jpg","img/neutralC/CFD-LF-224-176-N.jpg","img/neutralC/CFD-LF-203-066-N.jpg","1","1","1","1","0","0","0.433474100078456","0.53303930000402","0.513454100000672","1","1","1","1","1","1","1","1","1"
"250062","img/neutralC/CFD-LF-203-066-N.jpg","img/neutralC/CFD-WF-250-167-N.jpg","img/neutralC/CFD-MF-337-026-N.jpg","1","1","1","0","1","1","0.513454100000672","0.433474100078456","0.435041900025681","1","1","1","1","1","1","1","1","1"
"250062","img/neutralC/CFD-MF-337-026-N.jpg","img/neutralC/CFD-LF-203-066-N.jpg","img/neutralC/CFD-BF-039-031-N.jpg","1","1","1","1","0","1","0.435041900025681","0.513454100000672","0.566334399976768","1","1","1","1","1","1","1","1","1"
"250062","img/neutralC/CFD-BF-039-031-N.jpg","img/neutralC/CFD-MF-337-026-N.jpg","img/neutralC/CFD-BF-029-031-N.jpg","1","1","1","1","1","1","0.566334399976768","0.435041900025681","0.476631499943323","1","1","1","1","1","1","1","1","1"
"250062","img/neutralC/CFD-BF-029-031-N.jpg","img/neutralC/CFD-BF-039-031-N.jpg","img/neutralC/CFD-LM-215-247-N.jpg","1","1","1","1","1","0","0.476631499943323","0.566334399976768","0.48916380002629","1","1","1","1","1","1","1","1","1"
"250062","img/neutralC/CFD-LM-215-247-N.jpg","img/neutralC/CFD-BF-029-031-N.jpg","img/neutralC/CFD-MM-316-156-N.jpg","1","1","1","0","1","1","0.48916380002629","0.476631499943323","0.419946699985303","1","1","1","1","1","1","1","1","1"
"250062","img/neutralC/CFD-MM-316-156-N.jpg","img/neutralC/CFD-LM-215-247-N.jpg","img/neutralC/CFD-BM-041-035-N.jpg","1","1","1","1","0","0","0.419946699985303","0.48916380002629","0.587183300056495","1","1","1","1","1","1","1","1","1"
"250062","img/neutralC/CFD-BM-041-035-N.jpg","img/neutralC/CFD-MM-316-156-N.jpg",NA,"1","1",NA,"0","1",NA,"0.587183300056495","0.419946699985303",NA,"1","1",NA,"1","1",NA,"1","1",NA
"250062","img/neutralC/CFD-BF-228-212-N.jpg",NA,"img/neutralC/CFD-LM-214-165-N.jpg","1",NA,"1","0",NA,"1","0.453055699937977",NA,"0.464310000068508","1",NA,"1","1",NA,"1","1",NA,"1"
"250062","img/neutralC/CFD-LM-214-165-N.jpg","img/neutralC/CFD-BF-228-212-N.jpg","img/neutralC/CFD-WM-026-001-N.jpg","1","1","1","1","0","1","0.464310000068508","0.453055699937977","0.418709899997339","1","1","1","1","1","1","1","1","1"
"250062","img/neutralC/CFD-WM-026-001-N.jpg","img/neutralC/CFD-LM-214-165-N.jpg","img/neutralC/CFD-WF-005-010-N.jpg","1","1","1","1","1","0","0.418709899997339","0.464310000068508","0.469096400076523","1","1","1","1","1","1","1","1","1"
"250062","img/neutralC/CFD-WF-005-010-N.jpg","img/neutralC/CFD-WM-026-001-N.jpg","img/neutralC/CFD-WM-012-001-N.jpg","1","1","1","0","1","1","0.469096400076523","0.418709899997339","0.439062900026329","1","1","1","1","1","1","1","1","1"
"250062","img/neutralC/CFD-WM-012-001-N.jpg","img/neutralC/CFD-WF-005-010-N.jpg","img/neutralC/CFD-BM-251-013-N.jpg","1","1","1","1","0","1","0.439062900026329","0.469096400076523","0.514379200059921","1","1","1","1","1","1","1","1","1"
"250062","img/neutralC/CFD-BM-251-013-N.jpg","img/neutralC/CFD-WM-012-001-N.jpg","img/neutralC/CFD-MF-309-002-N.jpg","1","1","1","1","1","0","0.514379200059921","0.439062900026329","0.518909799982794","1","1","1","1","1","1","1","1","1"
"250062","img/neutralC/CFD-MF-309-002-N.jpg","img/neutralC/CFD-BM-251-013-N.jpg","img/neutralC/CFD-MF-335-002-N.jpg","1","1","1","0","1","0","0.518909799982794","0.514379200059921","0.485366599983536","1","1","1","1","1","1","1","1","1"
"250062","img/neutralC/CFD-MF-335-002-N.jpg","img/neutralC/CFD-MF-309-002-N.jpg","img/neutralC/CFD-WM-006-002-N.jpg","1","1","1","0","0","0","0.485366599983536","0.518909799982794","0.456760900095105","1","1","1","1","1","1","1","1","1"
"250062","img/neutralC/CFD-WM-006-002-N.jpg","img/neutralC/CFD-MF-335-002-N.jpg","img/neutralC/CFD-LM-201-057-N.jpg","1","1","1","0","0","1","0.456760900095105","0.485366599983536","0.479230100056157","1","1","1","1","1","1","1","1","1"
"250062","img/neutralC/CFD-LM-201-057-N.jpg","img/neutralC/CFD-WM-006-002-N.jpg","img/neutralC/CFD-WF-228-196-N.jpg","1","1","1","1","0","0","0.479230100056157","0.456760900095105","0.539512500050478","1","1","1","1","1","1","1","1","1"
"250062","img/neutralC/CFD-WF-228-196-N.jpg","img/neutralC/CFD-LM-201-057-N.jpg","img/neutralC/CFD-BF-212-315-N.jpg","1","1","1","0","1","1","0.539512500050478","0.479230100056157","0.439349799999036","1","1","1","1","1","1","1","1","1"
"250062","img/neutralC/CFD-BF-212-315-N.jpg","img/neutralC/CFD-WF-228-196-N.jpg","img/neutralC/CFD-LM-244-068-N.jpg","1","1","1","1","0","1","0.439349799999036","0.539512500050478","0.485474499990232","1","1","1","1","1","1","1","1","1"
"250062","img/neutralC/CFD-LM-244-068-N.jpg","img/neutralC/CFD-BF-212-315-N.jpg","img/neutralC/CFD-IM-646-023-N.jpg","1","1","1","1","1","1","0.485474499990232","0.439349799999036","0.459490800043568","1","1","1","1","1","1","1","1","1"
"250062","img/neutralC/CFD-IM-646-023-N.jpg","img/neutralC/CFD-LM-244-068-N.jpg","img/neutralC/CFD-LM-216-082-N.jpg","1","1","1","1","1","0","0.459490800043568","0.485474499990232","0.521287300041877","1","1","1","1","1","1","1","1","1"
"250062","img/neutralC/CFD-LM-216-082-N.jpg","img/neutralC/CFD-IM-646-023-N.jpg","img/neutralC/CFD-WM-212-097-N.jpg","1","1","1","0","1","0","0.521287300041877","0.459490800043568","0.494853599928319","1","1","1","1","1","1","1","1","1"
"250062","img/neutralC/CFD-WM-212-097-N.jpg","img/neutralC/CFD-LM-216-082-N.jpg","img/neutralC/CFD-MM-317-061-N.jpg","1","1","1","0","0","1","0.494853599928319","0.521287300041877","0.474721500067972","1","1","1","1","1","1","1","1","1"
"250062","img/neutralC/CFD-MM-317-061-N.jpg","img/neutralC/CFD-WM-212-097-N.jpg","img/neutralC/CFD-IM-648-337-N.jpg","1","1","1","1","0","0","0.474721500067972","0.494853599928319","0.597735599963926","1","1","1","1","1","1","1","1","1"
"250062","img/neutralC/CFD-IM-648-337-N.jpg","img/neutralC/CFD-MM-317-061-N.jpg","img/neutralC/CFD-WF-017-003-N.jpg","1","1","1","0","1","1","0.597735599963926","0.474721500067972","0.489769299980253","1","1","1","1","1","1","1","1","1"
"250062","img/neutralC/CFD-WF-017-003-N.jpg","img/neutralC/CFD-IM-648-337-N.jpg","img/neutralC/CFD-WF-240-083-N.jpg","1","1","1","1","0","0","0.489769299980253","0.597735599963926","0.494485600036569","1","1","1","1","1","1","1","1","1"
"250062","img/neutralC/CFD-WF-240-083-N.jpg","img/neutralC/CFD-WF-017-003-N.jpg","img/neutralC/CFD-IF-642-295-N.jpg","1","1","1","0","1","1","0.494485600036569","0.489769299980253","0.478741700062528","1","1","1","1","1","1","1","1","1"
"250062","img/neutralC/CFD-IF-642-295-N.jpg","img/neutralC/CFD-WF-240-083-N.jpg","img/neutralC/CFD-BF-041-001-N.jpg","1","1","1","1","0","1","0.478741700062528","0.494485600036569","0.49149759998545","1","1","1","1","1","1","1","1","1"
"250062","img/neutralC/CFD-BF-041-001-N.jpg","img/neutralC/CFD-IF-642-295-N.jpg","img/neutralC/CFD-BM-205-001-N.jpg","1","1","1","1","1","0","0.49149759998545","0.478741700062528","0.425427299924195","1","1","1","1","1","1","1","1","1"
"250062","img/neutralC/CFD-BM-205-001-N.jpg","img/neutralC/CFD-BF-041-001-N.jpg","img/neutralC/CFD-AF-240-206-N.jpg","1","1","1","0","1","0","0.425427299924195","0.49149759998545","0.57820859993808","1","1","1","1","1","1","1","1","1"
"250062","img/neutralC/CFD-AF-240-206-N.jpg","img/neutralC/CFD-BM-205-001-N.jpg","img/neutralC/CFD-BF-202-109-N.jpg","1","1","1","0","0","1","0.57820859993808","0.425427299924195","0.53757239994593","1","1","1","1","1","1","1","1","1"
"250062","img/neutralC/CFD-BF-202-109-N.jpg","img/neutralC/CFD-AF-240-206-N.jpg","img/neutralC/CFD-BM-248-128-N.jpg","1","1","1","1","0","0","0.53757239994593","0.57820859993808","0.464867000002414","1","1","1","1","1","1","1","1","1"
"250062","img/neutralC/CFD-BM-248-128-N.jpg","img/neutralC/CFD-BF-202-109-N.jpg","img/neutralC/CFD-AM-247-165-N.jpg","1","1","1","0","1","1","0.464867000002414","0.53757239994593","0.430874700075947","1","1","1","1","1","1","1","1","1"
"250062","img/neutralC/CFD-AM-247-165-N.jpg","img/neutralC/CFD-BM-248-128-N.jpg","img/neutralC/CFD-BF-025-002-N.jpg","1","1","1","1","0","0","0.430874700075947","0.464867000002414","0.486574299982749","1","1","1","1","1","1","1","1","1"
"250062","img/neutralC/CFD-BF-025-002-N.jpg","img/neutralC/CFD-AM-247-165-N.jpg","img/neutralC/CFD-LM-243-075-N.jpg","1","1","1","0","1","0","0.486574299982749","0.430874700075947","0.597945000045002","1","1","1","1","1","1","1","1","1"
"250062","img/neutralC/CFD-LM-243-075-N.jpg","img/neutralC/CFD-BF-025-002-N.jpg","img/neutralC/CFD-WM-215-041-N.jpg","1","1","1","0","0","0","0.597945000045002","0.486574299982749","0.509000499965623","1","1","1","1","1","1","1","1","1"
"250062","img/neutralC/CFD-WM-215-041-N.jpg","img/neutralC/CFD-LM-243-075-N.jpg","img/neutralC/CFD-WM-249-239-N.jpg","1","1","1","0","0","1","0.509000499965623","0.597945000045002","0.489421700011007","1","1","1","1","1","1","1","1","1"
"250062","img/neutralC/CFD-WM-249-239-N.jpg","img/neutralC/CFD-WM-215-041-N.jpg","img/neutralC/CFD-WM-019-003-N.jpg","1","1","1","1","0","1","0.489421700011007","0.509000499965623","0.471400800044648","1","1","1","1","1","1","1","1","1"
"250062","img/neutralC/CFD-WM-019-003-N.jpg","img/neutralC/CFD-WM-249-239-N.jpg",NA,"1","1",NA,"1","1",NA,"0.471400800044648","0.489421700011007",NA,"1","1",NA,"1","1",NA,"1","1",NA
"250062","img/neutralC/CFD-BF-214-308-N.jpg",NA,"img/neutralC/CFD-BF-247-179-N.jpg","1",NA,"1","1",NA,"0","0.536175199900754",NA,"0.515756699955091","1",NA,"1","1",NA,"1","1",NA,"1"
"250062","img/neutralC/CFD-BF-247-179-N.jpg","img/neutralC/CFD-BF-214-308-N.jpg","img/neutralC/CFD-IM-696-001-N.jpg","1","1","1","0","1","0","0.515756699955091","0.536175199900754","0.472483700024895","1","1","1","1","1","1","1","1","1"
"250062","img/neutralC/CFD-IM-696-001-N.jpg","img/neutralC/CFD-BF-247-179-N.jpg","img/neutralC/CFD-WF-234-086-N.jpg","1","1","1","0","0","1","0.472483700024895","0.515756699955091","0.649086600053124","1","1","1","1","1","1","1","1","1"
"250062","img/neutralC/CFD-WF-234-086-N.jpg","img/neutralC/CFD-IM-696-001-N.jpg","img/neutralC/CFD-BF-002-001-N.jpg","1","1","1","1","0","0","0.649086600053124","0.472483700024895","0.514646700001322","1","1","1","1","1","1","1","1","1"
"250062","img/neutralC/CFD-BF-002-001-N.jpg","img/neutralC/CFD-WF-234-086-N.jpg","img/neutralC/CFD-WM-014-002-N.jpg","1","1","1","0","1","0","0.514646700001322","0.649086600053124","0.495851299958304","1","1","1","1","1","1","1","1","1"
"250062","img/neutralC/CFD-WM-014-002-N.jpg","img/neutralC/CFD-BF-002-001-N.jpg","img/neutralC/CFD-WF-208-068-N.jpg","1","1","1","0","0","1","0.495851299958304","0.514646700001322","0.477141000097618","1","1","1","1","1","1","1","1","1"
"250062","img/neutralC/CFD-WF-208-068-N.jpg","img/neutralC/CFD-WM-014-002-N.jpg","img/neutralC/CFD-WF-233-112-N.jpg","1","1","1","1","0","1","0.477141000097618","0.495851299958304","0.444198900018819","1","1","1","1","1","1","1","1","1"
"250062","img/neutralC/CFD-WF-233-112-N.jpg","img/neutralC/CFD-WF-208-068-N.jpg","img/neutralC/CFD-WF-029-002-N.jpg","1","1","1","1","1","0","0.444198900018819","0.477141000097618","0.445500100031495","1","1","1","1","1","1","1","1","1"
"250062","img/neutralC/CFD-WF-029-002-N.jpg","img/neutralC/CFD-WF-233-112-N.jpg","img/neutralC/CFD-IM-721-341-N.jpg","1","1","1","0","1","1","0.445500100031495","0.444198900018819","0.457951399963349","1","1","1","1","1","1","1","1","1"
"250062","img/neutralC/CFD-IM-721-341-N.jpg","img/neutralC/CFD-WF-029-002-N.jpg","img/neutralC/CFD-AM-230-150-N.jpg","1","1","1","1","0","0","0.457951399963349","0.445500100031495","0.462631599977612","1","1","1","1","1","1","1","1","1"
"250062","img/neutralC/CFD-AM-230-150-N.jpg","img/neutralC/CFD-IM-721-341-N.jpg","img/neutralC/CFD-BM-207-024-N.jpg","1","1","1","0","1","1","0.462631599977612","0.457951399963349","0.438138799974695","1","1","1","1","1","1","1","1","1"
"250062","img/neutralC/CFD-BM-207-024-N.jpg","img/neutralC/CFD-AM-230-150-N.jpg","img/neutralC/CFD-IM-726-248-N.jpg","1","1","1","1","0","0","0.438138799974695","0.462631599977612","0.502753299893811","1","1","1","1","1","1","1","1","1"
"250062","img/neutralC/CFD-IM-726-248-N.jpg","img/neutralC/CFD-BM-207-024-N.jpg","img/neutralC/CFD-BF-027-002-N.jpg","1","1","1","0","1","1","0.502753299893811","0.438138799974695","0.474793100031093","1","1","1","1","1","1","1","1","1"
"250062","img/neutralC/CFD-BF-027-002-N.jpg","img/neutralC/CFD-IM-726-248-N.jpg","img/neutralC/CFD-BF-006-017-N.jpg","1","1","1","1","0","0","0.474793100031093","0.502753299893811","0.434724399936386","1","1","1","1","1","1","1","1","1"
"250062","img/neutralC/CFD-BF-006-017-N.jpg","img/neutralC/CFD-BF-027-002-N.jpg","img/neutralC/CFD-BM-241-235-N.jpg","1","1","1","0","1","0","0.434724399936386","0.474793100031093","0.492364299949259","1","1","1","1","1","1","1","1","1"
"250062","img/neutralC/CFD-BM-241-235-N.jpg","img/neutralC/CFD-BF-006-017-N.jpg","img/neutralC/CFD-BF-036-027-N.jpg","1","1","1","0","0","0","0.492364299949259","0.434724399936386","0.51920840004459","1","1","1","1","1","1","1","1","1"
"250062","img/neutralC/CFD-BF-036-027-N.jpg","img/neutralC/CFD-BM-241-235-N.jpg","img/neutralC/CFD-IF-677-452-1-N.jpg","1","1","1","0","0","1","0.51920840004459","0.492364299949259","0.503929099999368","1","1","1","1","1","1","1","1","1"
"250062","img/neutralC/CFD-IF-677-452-1-N.jpg","img/neutralC/CFD-BF-036-027-N.jpg","img/neutralC/CFD-LF-204-133-N.jpg","1","1","1","1","0","1","0.503929099999368","0.51920840004459","0.383912999997847","1","1","1","1","1","1","1","1","1"
"250062","img/neutralC/CFD-LF-204-133-N.jpg","img/neutralC/CFD-IF-677-452-1-N.jpg","img/neutralC/CFD-IM-707-105-N.jpg","1","1","1","1","1","1","0.383912999997847","0.503929099999368","0.497571400017478","1","1","1","1","1","1","1","1","1"
"250062","img/neutralC/CFD-IM-707-105-N.jpg","img/neutralC/CFD-LF-204-133-N.jpg","img/neutralC/CFD-BF-207-004-N.jpg","1","1","1","1","1","1","0.497571400017478","0.383912999997847","0.405249600065872","1","1","1","1","1","1","1","1","1"
"250062","img/neutralC/CFD-BF-207-004-N.jpg","img/neutralC/CFD-IM-707-105-N.jpg","img/neutralC/CFD-IF-742-103-N.jpg","1","1","1","1","1","1","0.405249600065872","0.497571400017478","0.421690199989825","1","1","1","1","1","1","1","1","1"
"250062","img/neutralC/CFD-IF-742-103-N.jpg","img/neutralC/CFD-BF-207-004-N.jpg","img/neutralC/CFD-BM-036-003-N.jpg","1","1","1","1","1","1","0.421690199989825","0.405249600065872","0.446713299956173","1","1","1","1","1","1","1","1","1"
"250062","img/neutralC/CFD-BM-036-003-N.jpg","img/neutralC/CFD-IF-742-103-N.jpg","img/neutralC/CFD-BF-011-002-N.jpg","1","1","1","1","1","1","0.446713299956173","0.421690199989825","0.480349099962041","1","1","1","1","1","1","1","1","1"
"250062","img/neutralC/CFD-BF-011-002-N.jpg","img/neutralC/CFD-BM-036-003-N.jpg","img/neutralC/CFD-MF-301-024-N.jpg","1","1","1","1","1","0","0.480349099962041","0.446713299956173","0.422944399993867","1","1","1","1","1","1","1","1","1"
"250062","img/neutralC/CFD-MF-301-024-N.jpg","img/neutralC/CFD-BF-011-002-N.jpg","img/neutralC/CFD-WM-248-036-N.jpg","1","1","1","0","1","1","0.422944399993867","0.480349099962041","0.506243900046684","1","1","1","1","1","1","1","1","1"
"250062","img/neutralC/CFD-WM-248-036-N.jpg","img/neutralC/CFD-MF-301-024-N.jpg","img/neutralC/CFD-BF-044-034-N.jpg","1","1","1","1","0","0","0.506243900046684","0.422944399993867","0.473242099978961","1","1","1","1","1","1","1","1","1"
"250062","img/neutralC/CFD-BF-044-034-N.jpg","img/neutralC/CFD-WM-248-036-N.jpg","img/neutralC/CFD-BM-238-242-N.jpg","1","1","1","0","1","0","0.473242099978961","0.506243900046684","0.443385599995963","1","1","1","1","1","1","1","1","1"
"250062","img/neutralC/CFD-BM-238-242-N.jpg","img/neutralC/CFD-BF-044-034-N.jpg","img/neutralC/CFD-WM-034-030-N.jpg","1","1","1","0","0","1","0.443385599995963","0.473242099978961","0.428795699961483","1","1","1","1","1","1","1","1","1"
"250062","img/neutralC/CFD-WM-034-030-N.jpg","img/neutralC/CFD-BM-238-242-N.jpg","img/neutralC/CFD-IF-729-393-N.jpg","1","1","1","1","0","0","0.428795699961483","0.443385599995963","0.608414999907836","1","1","1","1","1","1","1","1","1"
"250062","img/neutralC/CFD-IF-729-393-N.jpg","img/neutralC/CFD-WM-034-030-N.jpg","img/neutralC/CFD-BF-236-177-N.jpg","1","1","1","0","1","0","0.608414999907836","0.428795699961483","0.462135000037961","1","1","1","1","1","1","1","1","1"
"250062","img/neutralC/CFD-BF-236-177-N.jpg","img/neutralC/CFD-IF-729-393-N.jpg","img/neutralC/CFD-LM-213-061-N.jpg","1","1","1","0","0","0","0.462135000037961","0.608414999907836","0.482119400054216","1","1","1","1","1","1","1","1","1"
"250062","img/neutralC/CFD-LM-213-061-N.jpg","img/neutralC/CFD-BF-236-177-N.jpg",NA,"1","1",NA,"0","0",NA,"0.482119400054216","0.462135000037961",NA,"1","1",NA,"1","1",NA,"1","1",NA
"250062","img/neutralC/CFD-LM-225-130-N.jpg",NA,"img/neutralC/CFD-MM-324-069-N.jpg","1",NA,"1","0",NA,"1","0.4861346000107",NA,"0.47960520000197","1",NA,"1","1",NA,"1","1",NA,"1"
"250062","img/neutralC/CFD-MM-324-069-N.jpg","img/neutralC/CFD-LM-225-130-N.jpg","img/neutralC/CFD-MF-316-001-N.jpg","1","1","1","1","0","0","0.47960520000197","0.4861346000107","0.529310700017959","1","1","1","1","1","1","1","1","1"
"250062","img/neutralC/CFD-MF-316-001-N.jpg","img/neutralC/CFD-MM-324-069-N.jpg","img/neutralC/CFD-WF-030-002-N.jpg","1","1","1","0","1","0","0.529310700017959","0.47960520000197","0.471402799943462","1","1","1","1","1","1","1","1","1"
"250062","img/neutralC/CFD-WF-030-002-N.jpg","img/neutralC/CFD-MF-316-001-N.jpg","img/neutralC/CFD-LF-255-088-N.jpg","1","1","1","0","0","0","0.471402799943462","0.529310700017959","0.442551499931142","1","1","1","1","1","1","1","1","1"
"250062","img/neutralC/CFD-LF-255-088-N.jpg","img/neutralC/CFD-WF-030-002-N.jpg","img/neutralC/CFD-WF-007-001-N.jpg","1","1","1","0","0","1","0.442551499931142","0.471402799943462","0.434872999903746","1","1","1","1","1","1","1","1","1"
"250062","img/neutralC/CFD-WF-007-001-N.jpg","img/neutralC/CFD-LF-255-088-N.jpg","img/neutralC/CFD-IM-667-369-N.jpg","1","1","1","1","0","0","0.434872999903746","0.442551499931142","0.45281819999218","1","1","1","1","1","1","1","1","1"
"250062","img/neutralC/CFD-IM-667-369-N.jpg","img/neutralC/CFD-WF-007-001-N.jpg","img/neutralC/CFD-IM-706-002-N.jpg","1","1","1","0","1","0","0.45281819999218","0.434872999903746","0.400727999978699","1","1","1","1","1","1","1","1","1"
"250062","img/neutralC/CFD-IM-706-002-N.jpg","img/neutralC/CFD-IM-667-369-N.jpg","img/neutralC/CFD-BM-217-082-N.jpg","1","1","1","0","0","0","0.400727999978699","0.45281819999218","0.46267560007982","1","1","1","1","1","1","1","1","1"
"250062","img/neutralC/CFD-BM-217-082-N.jpg","img/neutralC/CFD-IM-706-002-N.jpg","img/neutralC/CFD-BM-001-014-N.jpg","1","1","1","0","0","0","0.46267560007982","0.400727999978699","0.4943726999918","1","1","1","1","1","1","1","1","1"
"250062","img/neutralC/CFD-BM-001-014-N.jpg","img/neutralC/CFD-BM-217-082-N.jpg","img/neutralC/CFD-BM-250-170-N.jpg","1","1","1","0","0","1","0.4943726999918","0.46267560007982","0.662610500003211","1","1","1","1","1","1","1","1","1"
"250062","img/neutralC/CFD-BM-250-170-N.jpg","img/neutralC/CFD-BM-001-014-N.jpg","img/neutralC/CFD-MF-303-013-N.jpg","1","1","1","1","0","0","0.662610500003211","0.4943726999918","0.621146099991165","1","1","1","1","1","1","1","1","1"
"250062","img/neutralC/CFD-MF-303-013-N.jpg","img/neutralC/CFD-BM-250-170-N.jpg","img/neutralC/CFD-IF-660-464-N.jpg","1","1","1","0","1","0","0.621146099991165","0.662610500003211","0.54130299994722","1","1","1","1","1","1","1","1","1"
"250062","img/neutralC/CFD-IF-660-464-N.jpg","img/neutralC/CFD-MF-303-013-N.jpg","img/neutralC/CFD-LM-200-045-N.jpg","1","1","1","0","0","1","0.54130299994722","0.621146099991165","0.469694000086747","1","1","1","1","1","1","1","1","1"
"250062","img/neutralC/CFD-LM-200-045-N.jpg","img/neutralC/CFD-IF-660-464-N.jpg","img/neutralC/CFD-MF-357-002-N.jpg","1","1","1","1","0","0","0.469694000086747","0.54130299994722","0.438673399970867","1","1","1","1","1","1","1","1","1"
"250062","img/neutralC/CFD-MF-357-002-N.jpg","img/neutralC/CFD-LM-200-045-N.jpg","img/neutralC/CFD-WF-244-163-N.jpg","1","1","1","0","1","1","0.438673399970867","0.469694000086747","0.448994199978188","1","1","1","1","1","1","1","1","1"
"250062","img/neutralC/CFD-WF-244-163-N.jpg","img/neutralC/CFD-MF-357-002-N.jpg","img/neutralC/CFD-IM-680-369-N.jpg","1","1","1","1","0","1","0.448994199978188","0.438673399970867","0.502771900035441","1","1","1","1","1","1","1","1","1"
"250062","img/neutralC/CFD-IM-680-369-N.jpg","img/neutralC/CFD-WF-244-163-N.jpg","img/neutralC/CFD-AF-253-130-N.jpg","1","1","1","1","1","1","0.502771900035441","0.448994199978188","0.443116400041618","1","1","1","1","1","1","1","1","1"
"250062","img/neutralC/CFD-AF-253-130-N.jpg","img/neutralC/CFD-IM-680-369-N.jpg","img/neutralC/CFD-AF-233-190-N.jpg","1","1","1","1","1","0","0.443116400041618","0.502771900035441","0.486305700032972","1","1","1","1","1","1","1","1","1"
"250062","img/neutralC/CFD-AF-233-190-N.jpg","img/neutralC/CFD-AF-253-130-N.jpg","img/neutralC/CFD-IF-626-375-N.jpg","1","1","1","0","1","0","0.486305700032972","0.443116400041618","0.411244099959731","1","1","1","1","1","1","1","1","1"
"250062","img/neutralC/CFD-IF-626-375-N.jpg","img/neutralC/CFD-AF-233-190-N.jpg","img/neutralC/CFD-WF-222-092-N.jpg","1","1","1","0","0","1","0.411244099959731","0.486305700032972","0.451194299967028","1","1","1","1","1","1","1","1","1"
"250062","img/neutralC/CFD-WF-222-092-N.jpg","img/neutralC/CFD-IF-626-375-N.jpg","img/neutralC/CFD-WM-015-002-N.jpg","1","1","1","1","0","0","0.451194299967028","0.411244099959731","0.552668299991637","1","1","1","1","1","1","1","1","1"
"250062","img/neutralC/CFD-WM-015-002-N.jpg","img/neutralC/CFD-WF-222-092-N.jpg","img/neutralC/CFD-MF-343-001-N.jpg","1","1","1","0","1","1","0.552668299991637","0.451194299967028","0.513992300024256","1","1","1","1","1","1","1","1","1"
"250062","img/neutralC/CFD-MF-343-001-N.jpg","img/neutralC/CFD-WM-015-002-N.jpg","img/neutralC/CFD-AM-220-134-N.jpg","1","1","1","1","0","0","0.513992300024256","0.552668299991637","0.507941600051709","1","1","1","1","1","1","1","1","1"
"250062","img/neutralC/CFD-AM-220-134-N.jpg","img/neutralC/CFD-MF-343-001-N.jpg","img/neutralC/CFD-IM-702-101-N.jpg","1","1","1","0","1","1","0.507941600051709","0.513992300024256","0.491295399959199","1","1","1","1","1","1","1","1","1"
"250062","img/neutralC/CFD-IM-702-101-N.jpg","img/neutralC/CFD-AM-220-134-N.jpg","img/neutralC/CFD-LF-206-078-N.jpg","1","1","1","1","0","1","0.491295399959199","0.507941600051709","0.451570100034587","1","1","1","1","1","1","1","1","1"
"250062","img/neutralC/CFD-LF-206-078-N.jpg","img/neutralC/CFD-IM-702-101-N.jpg","img/neutralC/CFD-WM-218-074-N.jpg","1","1","1","1","1","1","0.451570100034587","0.491295399959199","0.44506860000547","1","1","1","1","1","1","1","1","1"
"250062","img/neutralC/CFD-WM-218-074-N.jpg","img/neutralC/CFD-LF-206-078-N.jpg","img/neutralC/CFD-BF-237-172-N.jpg","1","1","1","1","1","1","0.44506860000547","0.451570100034587","0.436989999958314","1","1","1","1","1","1","1","1","1"
"250062","img/neutralC/CFD-BF-237-172-N.jpg","img/neutralC/CFD-WM-218-074-N.jpg","img/neutralC/CFD-WM-209-038-N.jpg","1","1","1","1","1","0","0.436989999958314","0.44506860000547","0.654107599984854","1","1","1","1","1","1","1","1","1"
"250062","img/neutralC/CFD-WM-209-038-N.jpg","img/neutralC/CFD-BF-237-172-N.jpg","img/neutralC/CFD-MF-305-014-N.jpg","1","1","1","0","1","1","0.654107599984854","0.436989999958314","0.453742099925876","1","1","1","1","1","1","1","1","1"
"250062","img/neutralC/CFD-MF-305-014-N.jpg","img/neutralC/CFD-WM-209-038-N.jpg","img/neutralC/CFD-IM-664-651-N.jpg","1","1","1","1","0","1","0.453742099925876","0.654107599984854","0.455386999994516","1","1","1","1","1","1","1","1","1"
"250062","img/neutralC/CFD-IM-664-651-N.jpg","img/neutralC/CFD-MF-305-014-N.jpg","img/neutralC/CFD-BF-014-002-N.jpg","1","1","1","1","1","1","0.455386999994516","0.453742099925876","0.429378900094889","1","1","1","1","1","1","1","1","1"
"250062","img/neutralC/CFD-BF-014-002-N.jpg","img/neutralC/CFD-IM-664-651-N.jpg",NA,"1","1",NA,"1","1",NA,"0.429378900094889","0.455386999994516",NA,"1","1",NA,"1","1",NA,"1","1",NA
