"participant_id","current_trial_face","pre_trial_face","post_trial_face","current_trial_accuracy","pre_trial_accuracy","post_trial_accuracy","current_trial_congruency","pre_trial_congruency","post_trial_congruency","current_trial_rt","pre_trial_rt","post_trial_rt","current_trial_responded","pre_trial_responded","post_trial_responded","current_trial_legitResponse","pre_trial_legitResponse","post_trial_legitResponse","current_trial_resp_nums","pre_trial_resp_nums","post_trial_resp_nums"
"250063","img/neutralC/CFD-BF-029-031-N.jpg",NA,"img/neutralC/CFD-LF-214-090-N.jpg","1",NA,"0","1",NA,"0","0.872534999973141",NA,"1.59112390002701","1",NA,"1","1",NA,"1","1",NA,"1"
"250063","img/neutralC/CFD-LF-214-090-N.jpg","img/neutralC/CFD-BF-029-031-N.jpg","img/neutralC/CFD-BF-039-031-N.jpg","0","1","1","0","1","1","1.59112390002701","0.872534999973141","0.662595900008455","1","1","1","1","1","1","1","1","1"
"250063","img/neutralC/CFD-BF-039-031-N.jpg","img/neutralC/CFD-LF-214-090-N.jpg","img/neutralC/CFD-BM-239-136-N.jpg","1","0","1","1","0","1","0.662595900008455","1.59112390002701","0.652210499974899","1","1","1","1","1","1","1","1","1"
"250063","img/neutralC/CFD-BM-239-136-N.jpg","img/neutralC/CFD-BF-039-031-N.jpg","img/neutralC/CFD-MM-316-156-N.jpg","1","1","1","1","1","1","0.652210499974899","0.662595900008455","0.679559899959713","1","1","1","1","1","1","1","1","1"
"250063","img/neutralC/CFD-MM-316-156-N.jpg","img/neutralC/CFD-BM-239-136-N.jpg","img/neutralC/CFD-WF-250-167-N.jpg","1","1","1","1","1","1","0.679559899959713","0.652210499974899","0.738499099970795","1","1","1","1","1","1","1","1","1"
"250063","img/neutralC/CFD-WF-250-167-N.jpg","img/neutralC/CFD-MM-316-156-N.jpg","img/neutralC/CFD-AM-201-076-N.jpg","1","1","1","1","1","1","0.738499099970795","0.679559899959713","0.74461799999699","1","1","1","1","1","1","1","1","1"
"250063","img/neutralC/CFD-AM-201-076-N.jpg","img/neutralC/CFD-WF-250-167-N.jpg","img/neutralC/CFD-IF-710-016-N.jpg","1","1","1","1","1","0","0.74461799999699","0.738499099970795","0.702317500021309","1","1","1","1","1","1","1","1","1"
"250063","img/neutralC/CFD-IF-710-016-N.jpg","img/neutralC/CFD-AM-201-076-N.jpg","img/neutralC/CFD-MF-337-026-N.jpg","1","1","1","0","1","1","0.702317500021309","0.74461799999699","0.847237500012852","1","1","1","1","1","1","1","1","1"
"250063","img/neutralC/CFD-MF-337-026-N.jpg","img/neutralC/CFD-IF-710-016-N.jpg","img/neutralC/CFD-LF-230-203-N.jpg","1","1","1","1","0","0","0.847237500012852","0.702317500021309","0.714013700024225","1","1","1","1","1","1","1","1","1"
"250063","img/neutralC/CFD-LF-230-203-N.jpg","img/neutralC/CFD-MF-337-026-N.jpg","img/neutralC/CFD-IM-684-008-N.jpg","1","1","1","0","1","1","0.714013700024225","0.847237500012852","0.698871999979019","1","1","1","1","1","1","1","1","1"
"250063","img/neutralC/CFD-IM-684-008-N.jpg","img/neutralC/CFD-LF-230-203-N.jpg","img/neutralC/CFD-LM-218-183-N.jpg","1","1","1","1","0","1","0.698871999979019","0.714013700024225","0.8786680001067","1","1","1","1","1","1","1","1","1"
"250063","img/neutralC/CFD-LM-218-183-N.jpg","img/neutralC/CFD-IM-684-008-N.jpg","img/neutralC/CFD-WF-213-031-N.jpg","1","1","1","1","1","1","0.8786680001067","0.698871999979019","0.680455000023358","1","1","1","1","1","1","1","1","1"
"250063","img/neutralC/CFD-WF-213-031-N.jpg","img/neutralC/CFD-LM-218-183-N.jpg","img/neutralC/CFD-WF-224-099-N.jpg","1","1","1","1","1","0","0.680455000023358","0.8786680001067","0.731216999934986","1","1","1","1","1","1","1","1","1"
"250063","img/neutralC/CFD-WF-224-099-N.jpg","img/neutralC/CFD-WF-213-031-N.jpg","img/neutralC/CFD-IF-634-382-N.jpg","1","1","1","0","1","1","0.731216999934986","0.680455000023358","0.653607900021598","1","1","1","1","1","1","1","1","1"
"250063","img/neutralC/CFD-IF-634-382-N.jpg","img/neutralC/CFD-WF-224-099-N.jpg","img/neutralC/CFD-AM-212-050-N.jpg","1","1","1","1","0","1","0.653607900021598","0.731216999934986","0.659640299971215","1","1","1","1","1","1","1","1","1"
"250063","img/neutralC/CFD-AM-212-050-N.jpg","img/neutralC/CFD-IF-634-382-N.jpg","img/neutralC/CFD-LF-205-100-N.jpg","1","1","1","1","1","1","0.659640299971215","0.653607900021598","0.601750300033018","1","1","1","1","1","1","1","1","1"
"250063","img/neutralC/CFD-LF-205-100-N.jpg","img/neutralC/CFD-AM-212-050-N.jpg","img/neutralC/CFD-BM-019-002-N.jpg","1","1","1","1","1","0","0.601750300033018","0.659640299971215","0.761372999986634","1","1","1","1","1","1","1","1","1"
"250063","img/neutralC/CFD-BM-019-002-N.jpg","img/neutralC/CFD-LF-205-100-N.jpg","img/neutralC/CFD-WM-041-021-N.jpg","1","1","0","0","1","0","0.761372999986634","0.601750300033018","1.25376560003497","1","1","1","1","1","1","1","1","1"
"250063","img/neutralC/CFD-WM-041-021-N.jpg","img/neutralC/CFD-BM-019-002-N.jpg","img/neutralC/CFD-LM-215-247-N.jpg","0","1","1","0","0","0","1.25376560003497","0.761372999986634","0.654344700044021","1","1","1","1","1","1","1","1","1"
"250063","img/neutralC/CFD-LM-215-247-N.jpg","img/neutralC/CFD-WM-041-021-N.jpg","img/neutralC/CFD-AF-231-357-N.jpg","1","0","1","0","0","1","0.654344700044021","1.25376560003497","0.645780200022273","1","1","1","1","1","1","1","1","1"
"250063","img/neutralC/CFD-AF-231-357-N.jpg","img/neutralC/CFD-LM-215-247-N.jpg","img/neutralC/CFD-BF-205-141-N.jpg","1","1","1","1","0","0","0.645780200022273","0.654344700044021","0.703655099961907","1","1","1","1","1","1","1","1","1"
"250063","img/neutralC/CFD-BF-205-141-N.jpg","img/neutralC/CFD-AF-231-357-N.jpg","img/neutralC/CFD-BM-033-003-N.jpg","1","1","1","0","1","0","0.703655099961907","0.645780200022273","0.755056900088675","1","1","1","1","1","1","1","1","1"
"250063","img/neutralC/CFD-BM-033-003-N.jpg","img/neutralC/CFD-BF-205-141-N.jpg","img/neutralC/CFD-WM-021-001-N.jpg","1","1","1","0","0","1","0.755056900088675","0.703655099961907","0.786413500085473","1","1","1","1","1","1","1","1","1"
"250063","img/neutralC/CFD-WM-021-001-N.jpg","img/neutralC/CFD-BM-033-003-N.jpg","img/neutralC/CFD-IM-651-308-N.jpg","1","1","1","1","0","0","0.786413500085473","0.755056900088675","0.886318199918605","1","1","1","1","1","1","1","1","1"
"250063","img/neutralC/CFD-IM-651-308-N.jpg","img/neutralC/CFD-WM-021-001-N.jpg","img/neutralC/CFD-BM-041-035-N.jpg","1","1","1","0","1","0","0.886318199918605","0.786413500085473","1.44697990000714","1","1","1","1","1","1","1","1","1"
"250063","img/neutralC/CFD-BM-041-035-N.jpg","img/neutralC/CFD-IM-651-308-N.jpg","img/neutralC/CFD-WM-011-002-N.jpg","1","1","1","0","0","0","1.44697990000714","0.886318199918605","0.78713189996779","1","1","1","1","1","1","1","1","1"
"250063","img/neutralC/CFD-WM-011-002-N.jpg","img/neutralC/CFD-BM-041-035-N.jpg","img/neutralC/CFD-BF-253-202-N.jpg","1","1","1","0","0","0","0.78713189996779","1.44697990000714","0.686263200012036","1","1","1","1","1","1","1","1","1"
"250063","img/neutralC/CFD-BF-253-202-N.jpg","img/neutralC/CFD-WM-011-002-N.jpg","img/neutralC/CFD-LF-224-176-N.jpg","1","1","1","0","0","0","0.686263200012036","0.78713189996779","0.660115700098686","1","1","1","1","1","1","1","1","1"
"250063","img/neutralC/CFD-LF-224-176-N.jpg","img/neutralC/CFD-BF-253-202-N.jpg","img/neutralC/CFD-IF-693-172-N.jpg","1","1","1","0","0","0","0.660115700098686","0.686263200012036","1.02283589995932","1","1","1","1","1","1","1","1","1"
"250063","img/neutralC/CFD-IF-693-172-N.jpg","img/neutralC/CFD-LF-224-176-N.jpg","img/neutralC/CFD-LF-203-066-N.jpg","1","1","1","0","0","0","1.02283589995932","0.660115700098686","0.668715000036173","1","1","1","1","1","1","1","1","1"
"250063","img/neutralC/CFD-LF-203-066-N.jpg","img/neutralC/CFD-IF-693-172-N.jpg","img/neutralC/CFD-BF-213-188-N.jpg","1","1","1","0","0","1","0.668715000036173","1.02283589995932","0.661247899988666","1","1","1","1","1","1","1","1","1"
"250063","img/neutralC/CFD-BF-213-188-N.jpg","img/neutralC/CFD-LF-203-066-N.jpg",NA,"1","1",NA,"1","0",NA,"0.661247899988666","0.668715000036173",NA,"1","1",NA,"1","1",NA,"1","1",NA
"250063","img/neutralC/CFD-BM-207-024-N.jpg",NA,"img/neutralC/CFD-WM-248-036-N.jpg","1",NA,"1","1",NA,"1","0.504777700058185",NA,"0.541198899969459","1",NA,"1","1",NA,"1","1",NA,"1"
"250063","img/neutralC/CFD-WM-248-036-N.jpg","img/neutralC/CFD-BM-207-024-N.jpg","img/neutralC/CFD-BF-036-027-N.jpg","1","1","1","1","1","0","0.541198899969459","0.504777700058185","0.533190099988133","1","1","1","1","1","1","1","1","1"
"250063","img/neutralC/CFD-BF-036-027-N.jpg","img/neutralC/CFD-WM-248-036-N.jpg","img/neutralC/CFD-BF-027-002-N.jpg","1","1","1","0","1","1","0.533190099988133","0.541198899969459","0.544075399986468","1","1","1","1","1","1","1","1","1"
"250063","img/neutralC/CFD-BF-027-002-N.jpg","img/neutralC/CFD-BF-036-027-N.jpg","img/neutralC/CFD-BM-238-242-N.jpg","1","1","1","1","0","0","0.544075399986468","0.533190099988133","0.526648900005966","1","1","1","1","1","1","1","1","1"
"250063","img/neutralC/CFD-BM-238-242-N.jpg","img/neutralC/CFD-BF-027-002-N.jpg","img/neutralC/CFD-BF-006-017-N.jpg","1","1","1","0","1","0","0.526648900005966","0.544075399986468","0.501864499994554","1","1","1","1","1","1","1","1","1"
"250063","img/neutralC/CFD-BF-006-017-N.jpg","img/neutralC/CFD-BM-238-242-N.jpg","img/neutralC/CFD-IM-707-105-N.jpg","1","1","1","0","0","1","0.501864499994554","0.526648900005966","0.42203320004046","1","1","1","1","1","1","1","1","1"
"250063","img/neutralC/CFD-IM-707-105-N.jpg","img/neutralC/CFD-BF-006-017-N.jpg","img/neutralC/CFD-BM-036-003-N.jpg","1","1","1","1","0","1","0.42203320004046","0.501864499994554","0.481823200010695","1","1","1","1","1","1","1","1","1"
"250063","img/neutralC/CFD-BM-036-003-N.jpg","img/neutralC/CFD-IM-707-105-N.jpg","img/neutralC/CFD-WF-234-086-N.jpg","1","1","1","1","1","1","0.481823200010695","0.42203320004046","0.436762000084855","1","1","1","1","1","1","1","1","1"
"250063","img/neutralC/CFD-WF-234-086-N.jpg","img/neutralC/CFD-BM-036-003-N.jpg","img/neutralC/CFD-BF-011-002-N.jpg","1","1","1","1","1","1","0.436762000084855","0.481823200010695","0.422452899976633","1","1","1","1","1","1","1","1","1"
"250063","img/neutralC/CFD-BF-011-002-N.jpg","img/neutralC/CFD-WF-234-086-N.jpg","img/neutralC/CFD-BF-207-004-N.jpg","1","1","1","1","1","1","0.422452899976633","0.436762000084855","0.466879500076175","1","1","1","1","1","1","1","1","1"
"250063","img/neutralC/CFD-BF-207-004-N.jpg","img/neutralC/CFD-BF-011-002-N.jpg","img/neutralC/CFD-AM-230-150-N.jpg","1","1","1","1","1","0","0.466879500076175","0.422452899976633","0.553646499989554","1","1","1","1","1","1","1","1","1"
"250063","img/neutralC/CFD-AM-230-150-N.jpg","img/neutralC/CFD-BF-207-004-N.jpg","img/neutralC/CFD-WF-208-068-N.jpg","1","1","1","0","1","1","0.553646499989554","0.466879500076175","0.444189499947242","1","1","1","1","1","1","1","1","1"
"250063","img/neutralC/CFD-WF-208-068-N.jpg","img/neutralC/CFD-AM-230-150-N.jpg","img/neutralC/CFD-LM-213-061-N.jpg","1","1","1","1","0","0","0.444189499947242","0.553646499989554","0.615114499931224","1","1","1","1","1","1","1","1","1"
"250063","img/neutralC/CFD-LM-213-061-N.jpg","img/neutralC/CFD-WF-208-068-N.jpg","img/neutralC/CFD-WM-014-002-N.jpg","1","1","1","0","1","0","0.615114499931224","0.444189499947242","0.635396600002423","1","1","1","1","1","1","1","1","1"
"250063","img/neutralC/CFD-WM-014-002-N.jpg","img/neutralC/CFD-LM-213-061-N.jpg","img/neutralC/CFD-BF-002-001-N.jpg","1","1","0","0","0","0","0.635396600002423","0.615114499931224","0.531809999956749","1","1","1","1","1","1","1","1","1"
"250063","img/neutralC/CFD-BF-002-001-N.jpg","img/neutralC/CFD-WM-014-002-N.jpg","img/neutralC/CFD-IF-729-393-N.jpg","0","1","1","0","0","0","0.531809999956749","0.635396600002423","0.511781899956986","1","1","1","1","1","1","1","1","1"
"250063","img/neutralC/CFD-IF-729-393-N.jpg","img/neutralC/CFD-BF-002-001-N.jpg","img/neutralC/CFD-IF-677-452-1-N.jpg","1","0","1","0","0","1","0.511781899956986","0.531809999956749","0.520788799971342","1","1","1","1","1","1","1","1","1"
"250063","img/neutralC/CFD-IF-677-452-1-N.jpg","img/neutralC/CFD-IF-729-393-N.jpg","img/neutralC/CFD-LF-204-133-N.jpg","1","1","1","1","0","1","0.520788799971342","0.511781899956986","0.467943800031208","1","1","1","1","1","1","1","1","1"
"250063","img/neutralC/CFD-LF-204-133-N.jpg","img/neutralC/CFD-IF-677-452-1-N.jpg","img/neutralC/CFD-MF-301-024-N.jpg","1","1","1","1","1","0","0.467943800031208","0.520788799971342","0.533099899999797","1","1","1","1","1","1","1","1","1"
"250063","img/neutralC/CFD-MF-301-024-N.jpg","img/neutralC/CFD-LF-204-133-N.jpg","img/neutralC/CFD-WF-233-112-N.jpg","1","1","1","0","1","1","0.533099899999797","0.467943800031208","0.601885300013237","1","1","1","1","1","1","1","1","1"
"250063","img/neutralC/CFD-WF-233-112-N.jpg","img/neutralC/CFD-MF-301-024-N.jpg","img/neutralC/CFD-IM-696-001-N.jpg","1","1","1","1","0","0","0.601885300013237","0.533099899999797","1.19524540007114","1","1","1","1","1","1","1","1","1"
"250063","img/neutralC/CFD-IM-696-001-N.jpg","img/neutralC/CFD-WF-233-112-N.jpg","img/neutralC/CFD-IM-726-248-N.jpg","1","1","1","0","1","0","1.19524540007114","0.601885300013237","0.507093199994415","1","1","1","1","1","1","1","1","1"
"250063","img/neutralC/CFD-IM-726-248-N.jpg","img/neutralC/CFD-IM-696-001-N.jpg","img/neutralC/CFD-BF-214-308-N.jpg","1","1","1","0","0","1","0.507093199994415","1.19524540007114","0.461044399999082","1","1","1","1","1","1","1","1","1"
"250063","img/neutralC/CFD-BF-214-308-N.jpg","img/neutralC/CFD-IM-726-248-N.jpg","img/neutralC/CFD-IF-742-103-N.jpg","1","1","1","1","0","1","0.461044399999082","0.507093199994415","0.562539899954572","1","1","1","1","1","1","1","1","1"
"250063","img/neutralC/CFD-IF-742-103-N.jpg","img/neutralC/CFD-BF-214-308-N.jpg","img/neutralC/CFD-BM-241-235-N.jpg","1","1","1","1","1","0","0.562539899954572","0.461044399999082","0.475132500054315","1","1","1","1","1","1","1","1","1"
"250063","img/neutralC/CFD-BM-241-235-N.jpg","img/neutralC/CFD-IF-742-103-N.jpg","img/neutralC/CFD-WF-029-002-N.jpg","1","1","1","0","1","0","0.475132500054315","0.562539899954572","0.519543600035831","1","1","1","1","1","1","1","1","1"
"250063","img/neutralC/CFD-WF-029-002-N.jpg","img/neutralC/CFD-BM-241-235-N.jpg","img/neutralC/CFD-BF-247-179-N.jpg","1","1","1","0","0","0","0.519543600035831","0.475132500054315","0.462797899963334","1","1","1","1","1","1","1","1","1"
"250063","img/neutralC/CFD-BF-247-179-N.jpg","img/neutralC/CFD-WF-029-002-N.jpg","img/neutralC/CFD-IM-721-341-N.jpg","1","1","1","0","0","1","0.462797899963334","0.519543600035831","0.438570099999197","1","1","1","1","1","1","1","1","1"
"250063","img/neutralC/CFD-IM-721-341-N.jpg","img/neutralC/CFD-BF-247-179-N.jpg","img/neutralC/CFD-BF-236-177-N.jpg","1","1","1","1","0","0","0.438570099999197","0.462797899963334","0.578050500014797","1","1","1","1","1","1","1","1","1"
"250063","img/neutralC/CFD-BF-236-177-N.jpg","img/neutralC/CFD-IM-721-341-N.jpg","img/neutralC/CFD-BF-044-034-N.jpg","1","1","1","0","1","0","0.578050500014797","0.438570099999197","0.714414000045508","1","1","1","1","1","1","1","1","1"
"250063","img/neutralC/CFD-BF-044-034-N.jpg","img/neutralC/CFD-BF-236-177-N.jpg","img/neutralC/CFD-WM-034-030-N.jpg","1","1","1","0","0","1","0.714414000045508","0.578050500014797","0.443738500005566","1","1","1","1","1","1","1","1","1"
"250063","img/neutralC/CFD-WM-034-030-N.jpg","img/neutralC/CFD-BF-044-034-N.jpg",NA,"1","1",NA,"1","0",NA,"0.443738500005566","0.714414000045508",NA,"1","1",NA,"1","1",NA,"1","1",NA
"250063","img/neutralC/CFD-IM-604-014-N.jpg",NA,"img/neutralC/CFD-WF-008-002-N.jpg","1",NA,"1","0",NA,"1","0.552145699970424",NA,"0.500154600013047","1",NA,"1","1",NA,"1","1",NA,"1"
"250063","img/neutralC/CFD-WF-008-002-N.jpg","img/neutralC/CFD-IM-604-014-N.jpg","img/neutralC/CFD-MF-329-001-N.jpg","1","1","1","1","0","0","0.500154600013047","0.552145699970424","0.555313900113106","1","1","1","1","1","1","1","1","1"
"250063","img/neutralC/CFD-MF-329-001-N.jpg","img/neutralC/CFD-WF-008-002-N.jpg","img/neutralC/CFD-MF-300-002-N.jpg","1","1","1","0","1","0","0.555313900113106","0.500154600013047","0.521026199916378","1","1","1","1","1","1","1","1","1"
"250063","img/neutralC/CFD-MF-300-002-N.jpg","img/neutralC/CFD-MF-329-001-N.jpg","img/neutralC/CFD-LF-201-035-N.jpg","1","1","1","0","0","1","0.521026199916378","0.555313900113106","0.540922600077465","1","1","1","1","1","1","1","1","1"
"250063","img/neutralC/CFD-LF-201-035-N.jpg","img/neutralC/CFD-MF-300-002-N.jpg","img/neutralC/CFD-MF-327-002-N.jpg","1","1","1","1","0","0","0.540922600077465","0.521026199916378","0.533281199983321","1","1","1","1","1","1","1","1","1"
"250063","img/neutralC/CFD-MF-327-002-N.jpg","img/neutralC/CFD-LF-201-035-N.jpg","img/neutralC/CFD-IM-685-004-N.jpg","1","1","1","0","1","1","0.533281199983321","0.540922600077465","0.424824299989268","1","1","1","1","1","1","1","1","1"
"250063","img/neutralC/CFD-IM-685-004-N.jpg","img/neutralC/CFD-MF-327-002-N.jpg","img/neutralC/CFD-WM-024-015-N.jpg","1","1","1","1","0","1","0.424824299989268","0.533281199983321","0.419794299989007","1","1","1","1","1","1","1","1","1"
"250063","img/neutralC/CFD-WM-024-015-N.jpg","img/neutralC/CFD-IM-685-004-N.jpg","img/neutralC/CFD-WF-217-085-N.jpg","1","1","1","1","1","1","0.419794299989007","0.424824299989268","0.558640800067224","1","1","1","1","1","1","1","1","1"
"250063","img/neutralC/CFD-WF-217-085-N.jpg","img/neutralC/CFD-WM-024-015-N.jpg","img/neutralC/CFD-WM-213-076-N.jpg","1","1","1","1","1","1","0.558640800067224","0.419794299989007","0.389393899939023","1","1","1","1","1","1","1","1","1"
"250063","img/neutralC/CFD-WM-213-076-N.jpg","img/neutralC/CFD-WF-217-085-N.jpg","img/neutralC/CFD-WM-232-070-N.jpg","1","1","1","1","1","0","0.389393899939023","0.558640800067224","0.384091000072658","1","1","1","1","1","1","1","1","1"
"250063","img/neutralC/CFD-WM-232-070-N.jpg","img/neutralC/CFD-WM-213-076-N.jpg","img/neutralC/CFD-IM-709-103-N.jpg","1","1","1","0","1","0","0.384091000072658","0.389393899939023","0.694219199940562","1","1","1","1","1","1","1","1","1"
"250063","img/neutralC/CFD-IM-709-103-N.jpg","img/neutralC/CFD-WM-232-070-N.jpg","img/neutralC/CFD-MF-340-026-N.jpg","1","1","1","0","0","1","0.694219199940562","0.384091000072658","0.547451199963689","1","1","1","1","1","1","1","1","1"
"250063","img/neutralC/CFD-MF-340-026-N.jpg","img/neutralC/CFD-IM-709-103-N.jpg","img/neutralC/CFD-AM-236-090-N.jpg","1","1","1","1","0","1","0.547451199963689","0.694219199940562","0.44683469994925","1","1","1","1","1","1","1","1","1"
"250063","img/neutralC/CFD-AM-236-090-N.jpg","img/neutralC/CFD-MF-340-026-N.jpg","img/neutralC/CFD-LF-226-174-N.jpg","1","1","1","1","1","0","0.44683469994925","0.547451199963689","1.09196430002339","1","1","1","1","1","1","1","1","1"
"250063","img/neutralC/CFD-LF-226-174-N.jpg","img/neutralC/CFD-AM-236-090-N.jpg","img/neutralC/CFD-BM-039-029-N.jpg","1","1","1","0","1","1","1.09196430002339","0.44683469994925","0.432960700010881","1","1","1","1","1","1","1","1","1"
"250063","img/neutralC/CFD-BM-039-029-N.jpg","img/neutralC/CFD-LF-226-174-N.jpg","img/neutralC/CFD-IM-675-015-N.jpg","1","1","1","1","0","1","0.432960700010881","1.09196430002339","0.479694299981929","1","1","1","1","1","1","1","1","1"
"250063","img/neutralC/CFD-IM-675-015-N.jpg","img/neutralC/CFD-BM-039-029-N.jpg","img/neutralC/CFD-IM-637-007-N.jpg","1","1","1","1","1","0","0.479694299981929","0.432960700010881","0.568543700035661","1","1","1","1","1","1","1","1","1"
"250063","img/neutralC/CFD-IM-637-007-N.jpg","img/neutralC/CFD-IM-675-015-N.jpg","img/neutralC/CFD-BF-051-035-N.jpg","1","1","0","0","1","0","0.568543700035661","0.479694299981929","0.862889499985613","1","1","1","1","1","1","1","1","1"
"250063","img/neutralC/CFD-BF-051-035-N.jpg","img/neutralC/CFD-IM-637-007-N.jpg","img/neutralC/CFD-BF-043-003-N.jpg","0","1","1","0","0","0","0.862889499985613","0.568543700035661","0.589418399962597","1","1","1","1","1","1","1","1","1"
"250063","img/neutralC/CFD-BF-043-003-N.jpg","img/neutralC/CFD-BF-051-035-N.jpg","img/neutralC/CFD-BM-243-218-N.jpg","1","0","1","0","0","1","0.589418399962597","0.862889499985613","0.490967300022021","1","1","1","1","1","1","1","1","1"
"250063","img/neutralC/CFD-BM-243-218-N.jpg","img/neutralC/CFD-BF-043-003-N.jpg","img/neutralC/CFD-IF-608-390-N.jpg","1","1","1","1","0","1","0.490967300022021","0.589418399962597","0.475953800021671","1","1","1","1","1","1","1","1","1"
"250063","img/neutralC/CFD-IF-608-390-N.jpg","img/neutralC/CFD-BM-243-218-N.jpg","img/neutralC/CFD-WF-248-129-N.jpg","1","1","1","1","1","0","0.475953800021671","0.490967300022021","0.900805599987507","1","1","1","1","1","1","1","1","1"
"250063","img/neutralC/CFD-WF-248-129-N.jpg","img/neutralC/CFD-IF-608-390-N.jpg","img/neutralC/CFD-AF-229-160-N.jpg","1","1","1","0","1","0","0.900805599987507","0.475953800021671","0.683978199958801","1","1","1","1","1","1","1","1","1"
"250063","img/neutralC/CFD-AF-229-160-N.jpg","img/neutralC/CFD-WF-248-129-N.jpg","img/neutralC/CFD-LM-217-162-N.jpg","1","1","1","0","0","0","0.683978199958801","0.900805599987507","0.552777400007471","1","1","1","1","1","1","1","1","1"
"250063","img/neutralC/CFD-LM-217-162-N.jpg","img/neutralC/CFD-AF-229-160-N.jpg","img/neutralC/CFD-WF-212-050-N.jpg","1","1","1","0","0","0","0.552777400007471","0.683978199958801","0.560878400108777","1","1","1","1","1","1","1","1","1"
"250063","img/neutralC/CFD-WF-212-050-N.jpg","img/neutralC/CFD-LM-217-162-N.jpg","img/neutralC/CFD-IF-619-197-N.jpg","1","1","1","0","0","0","0.560878400108777","0.552777400007471","0.606041899998672","1","1","1","1","1","1","1","1","1"
"250063","img/neutralC/CFD-IF-619-197-N.jpg","img/neutralC/CFD-WF-212-050-N.jpg","img/neutralC/CFD-WF-012-002-N.jpg","1","1","1","0","0","1","0.606041899998672","0.560878400108777","0.56879339995794","1","1","1","1","1","1","1","1","1"
"250063","img/neutralC/CFD-WF-012-002-N.jpg","img/neutralC/CFD-IF-619-197-N.jpg","img/neutralC/CFD-AF-215-70-N.jpg","1","1","1","1","0","0","0.56879339995794","0.606041899998672","0.552882099989802","1","1","1","1","1","1","1","1","1"
"250063","img/neutralC/CFD-AF-215-70-N.jpg","img/neutralC/CFD-WF-012-002-N.jpg","img/neutralC/CFD-MM-304-002-N.jpg","1","1","1","0","1","1","0.552882099989802","0.56879339995794","0.530975900008343","1","1","1","1","1","1","1","1","1"
"250063","img/neutralC/CFD-MM-304-002-N.jpg","img/neutralC/CFD-AF-215-70-N.jpg","img/neutralC/CFD-BF-224-002-N.jpg","1","1","1","1","0","1","0.530975900008343","0.552882099989802","0.76381399994716","1","1","1","1","1","1","1","1","1"
"250063","img/neutralC/CFD-BF-224-002-N.jpg","img/neutralC/CFD-MM-304-002-N.jpg","img/neutralC/CFD-AF-254-167-N.jpg","1","1","1","1","1","1","0.76381399994716","0.530975900008343","0.585108100087382","1","1","1","1","1","1","1","1","1"
"250063","img/neutralC/CFD-AF-254-167-N.jpg","img/neutralC/CFD-BF-224-002-N.jpg",NA,"1","1",NA,"1","1",NA,"0.585108100087382","0.76381399994716",NA,"1","1",NA,"1","1",NA,"1","1",NA
"250063","img/neutralC/CFD-WF-240-083-N.jpg",NA,"img/neutralC/CFD-LM-243-075-N.jpg","0",NA,"1","0",NA,"0","0.819822899997234",NA,"0.587760500027798","1",NA,"1","1",NA,"1","1",NA,"1"
"250063","img/neutralC/CFD-LM-243-075-N.jpg","img/neutralC/CFD-WF-240-083-N.jpg","img/neutralC/CFD-BF-228-212-N.jpg","1","0","1","0","0","0","0.587760500027798","0.819822899997234","0.523717400035821","1","1","1","1","1","1","1","1","1"
"250063","img/neutralC/CFD-BF-228-212-N.jpg","img/neutralC/CFD-LM-243-075-N.jpg","img/neutralC/CFD-AF-240-206-N.jpg","1","1","1","0","0","0","0.523717400035821","0.587760500027798","0.636873400071636","1","1","1","1","1","1","1","1","1"
"250063","img/neutralC/CFD-AF-240-206-N.jpg","img/neutralC/CFD-BF-228-212-N.jpg","img/neutralC/CFD-WM-215-041-N.jpg","1","1","1","0","0","0","0.636873400071636","0.523717400035821","0.500011200085282","1","1","1","1","1","1","1","1","1"
"250063","img/neutralC/CFD-WM-215-041-N.jpg","img/neutralC/CFD-AF-240-206-N.jpg","img/neutralC/CFD-MM-317-061-N.jpg","1","1","1","0","0","1","0.500011200085282","0.636873400071636","0.497825299971737","1","1","1","1","1","1","1","1","1"
"250063","img/neutralC/CFD-MM-317-061-N.jpg","img/neutralC/CFD-WM-215-041-N.jpg","img/neutralC/CFD-LM-216-082-N.jpg","1","1","1","1","0","0","0.497825299971737","0.500011200085282","0.555438000010327","1","1","1","1","1","1","1","1","1"
"250063","img/neutralC/CFD-LM-216-082-N.jpg","img/neutralC/CFD-MM-317-061-N.jpg","img/neutralC/CFD-WM-006-002-N.jpg","1","1","1","0","1","0","0.555438000010327","0.497825299971737","0.491673600045033","1","1","1","1","1","1","1","1","1"
"250063","img/neutralC/CFD-WM-006-002-N.jpg","img/neutralC/CFD-LM-216-082-N.jpg","img/neutralC/CFD-WM-249-239-N.jpg","1","1","1","0","0","1","0.491673600045033","0.555438000010327","0.466707600047812","1","1","1","1","1","1","1","1","1"
"250063","img/neutralC/CFD-WM-249-239-N.jpg","img/neutralC/CFD-WM-006-002-N.jpg","img/neutralC/CFD-WM-019-003-N.jpg","1","1","1","1","0","1","0.466707600047812","0.491673600045033","0.5465978999855","1","1","1","1","1","1","1","1","1"
"250063","img/neutralC/CFD-WM-019-003-N.jpg","img/neutralC/CFD-WM-249-239-N.jpg","img/neutralC/CFD-LM-201-057-N.jpg","1","1","1","1","1","1","0.5465978999855","0.466707600047812","0.507735799998045","1","1","1","1","1","1","1","1","1"
"250063","img/neutralC/CFD-LM-201-057-N.jpg","img/neutralC/CFD-WM-019-003-N.jpg","img/neutralC/CFD-LM-244-068-N.jpg","1","1","1","1","1","1","0.507735799998045","0.5465978999855","0.479733500047587","1","1","1","1","1","1","1","1","1"
"250063","img/neutralC/CFD-LM-244-068-N.jpg","img/neutralC/CFD-LM-201-057-N.jpg","img/neutralC/CFD-BM-205-001-N.jpg","1","1","1","1","1","0","0.479733500047587","0.507735799998045","0.449963300023228","1","1","1","1","1","1","1","1","1"
"250063","img/neutralC/CFD-BM-205-001-N.jpg","img/neutralC/CFD-LM-244-068-N.jpg","img/neutralC/CFD-MF-309-002-N.jpg","1","1","1","0","1","0","0.449963300023228","0.479733500047587","0.514606100041419","1","1","1","1","1","1","1","1","1"
"250063","img/neutralC/CFD-MF-309-002-N.jpg","img/neutralC/CFD-BM-205-001-N.jpg","img/neutralC/CFD-WM-012-001-N.jpg","1","1","1","0","0","1","0.514606100041419","0.449963300023228","0.529298100038432","1","1","1","1","1","1","1","1","1"
"250063","img/neutralC/CFD-WM-012-001-N.jpg","img/neutralC/CFD-MF-309-002-N.jpg","img/neutralC/CFD-MF-335-002-N.jpg","1","1","1","1","0","0","0.529298100038432","0.514606100041419","0.80664570000954","1","1","1","1","1","1","1","1","1"
"250063","img/neutralC/CFD-MF-335-002-N.jpg","img/neutralC/CFD-WM-012-001-N.jpg","img/neutralC/CFD-WM-212-097-N.jpg","1","1","1","0","1","0","0.80664570000954","0.529298100038432","0.56400669994764","1","1","1","1","1","1","1","1","1"
"250063","img/neutralC/CFD-WM-212-097-N.jpg","img/neutralC/CFD-MF-335-002-N.jpg","img/neutralC/CFD-BF-202-109-N.jpg","1","1","1","0","0","1","0.56400669994764","0.80664570000954","0.515018600039184","1","1","1","1","1","1","1","1","1"
"250063","img/neutralC/CFD-BF-202-109-N.jpg","img/neutralC/CFD-WM-212-097-N.jpg","img/neutralC/CFD-IM-648-337-N.jpg","1","1","1","1","0","0","0.515018600039184","0.56400669994764","0.638777300016955","1","1","1","1","1","1","1","1","1"
"250063","img/neutralC/CFD-IM-648-337-N.jpg","img/neutralC/CFD-BF-202-109-N.jpg","img/neutralC/CFD-BF-025-002-N.jpg","1","1","1","0","1","0","0.638777300016955","0.515018600039184","0.589876199956052","1","1","1","1","1","1","1","1","1"
"250063","img/neutralC/CFD-BF-025-002-N.jpg","img/neutralC/CFD-IM-648-337-N.jpg","img/neutralC/CFD-BM-248-128-N.jpg","1","1","1","0","0","0","0.589876199956052","0.638777300016955","0.837742700008675","1","1","1","1","1","1","1","1","1"
"250063","img/neutralC/CFD-BM-248-128-N.jpg","img/neutralC/CFD-BF-025-002-N.jpg","img/neutralC/CFD-IM-646-023-N.jpg","1","1","1","0","0","1","0.837742700008675","0.589876199956052","0.622749400092289","1","1","1","1","1","1","1","1","1"
"250063","img/neutralC/CFD-IM-646-023-N.jpg","img/neutralC/CFD-BM-248-128-N.jpg","img/neutralC/CFD-WF-017-003-N.jpg","1","1","1","1","0","1","0.622749400092289","0.837742700008675","0.574688100023195","1","1","1","1","1","1","1","1","1"
"250063","img/neutralC/CFD-WF-017-003-N.jpg","img/neutralC/CFD-IM-646-023-N.jpg","img/neutralC/CFD-WF-005-010-N.jpg","1","1","1","1","1","0","0.574688100023195","0.622749400092289","0.521749299950898","1","1","1","1","1","1","1","1","1"
"250063","img/neutralC/CFD-WF-005-010-N.jpg","img/neutralC/CFD-WF-017-003-N.jpg","img/neutralC/CFD-IF-642-295-N.jpg","1","1","1","0","1","1","0.521749299950898","0.574688100023195","0.577289500040933","1","1","1","1","1","1","1","1","1"
"250063","img/neutralC/CFD-IF-642-295-N.jpg","img/neutralC/CFD-WF-005-010-N.jpg","img/neutralC/CFD-AM-247-165-N.jpg","1","1","1","1","0","1","0.577289500040933","0.521749299950898","0.840235400013626","1","1","1","1","1","1","1","1","1"
"250063","img/neutralC/CFD-AM-247-165-N.jpg","img/neutralC/CFD-IF-642-295-N.jpg","img/neutralC/CFD-WM-026-001-N.jpg","1","1","1","1","1","1","0.840235400013626","0.577289500040933","0.540273300022818","1","1","1","1","1","1","1","1","1"
"250063","img/neutralC/CFD-WM-026-001-N.jpg","img/neutralC/CFD-AM-247-165-N.jpg","img/neutralC/CFD-BF-212-315-N.jpg","1","1","1","1","1","1","0.540273300022818","0.840235400013626","0.873082000063732","1","1","1","1","1","1","1","1","1"
"250063","img/neutralC/CFD-BF-212-315-N.jpg","img/neutralC/CFD-WM-026-001-N.jpg","img/neutralC/CFD-WF-228-196-N.jpg","1","1","1","1","1","0","0.873082000063732","0.540273300022818","0.442256100010127","1","1","1","1","1","1","1","1","1"
"250063","img/neutralC/CFD-WF-228-196-N.jpg","img/neutralC/CFD-BF-212-315-N.jpg","img/neutralC/CFD-LM-214-165-N.jpg","1","1","1","0","1","1","0.442256100010127","0.873082000063732","0.503330699983053","1","1","1","1","1","1","1","1","1"
"250063","img/neutralC/CFD-LM-214-165-N.jpg","img/neutralC/CFD-WF-228-196-N.jpg","img/neutralC/CFD-BF-041-001-N.jpg","1","1","1","1","0","1","0.503330699983053","0.442256100010127","0.466514199972153","1","1","1","1","1","1","1","1","1"
"250063","img/neutralC/CFD-BF-041-001-N.jpg","img/neutralC/CFD-LM-214-165-N.jpg","img/neutralC/CFD-BM-251-013-N.jpg","1","1","1","1","1","1","0.466514199972153","0.503330699983053","0.437634100089781","1","1","1","1","1","1","1","1","1"
"250063","img/neutralC/CFD-BM-251-013-N.jpg","img/neutralC/CFD-BF-041-001-N.jpg",NA,"1","1",NA,"1","1",NA,"0.437634100089781","0.466514199972153",NA,"1","1",NA,"1","1",NA,"1","1",NA
"250063","img/neutralC/CFD-IM-738-191-N.jpg",NA,"img/neutralC/CFD-LM-247-095-N.jpg","1",NA,"0","0",NA,"0","0.811846400029026",NA,"0.34552650002297","1",NA,"1","1",NA,"1","1",NA,"1"
"250063","img/neutralC/CFD-LM-247-095-N.jpg","img/neutralC/CFD-IM-738-191-N.jpg","img/neutralC/CFD-WM-202-107-N.jpg","0","1","1","0","0","1","0.34552650002297","0.811846400029026","0.454999899957329","1","1","1","1","1","1","1","1","1"
"250063","img/neutralC/CFD-WM-202-107-N.jpg","img/neutralC/CFD-LM-247-095-N.jpg","img/neutralC/CFD-BM-003-003-N.jpg","1","0","1","1","0","0","0.454999899957329","0.34552650002297","0.489832999999635","1","1","1","1","1","1","1","1","1"
"250063","img/neutralC/CFD-BM-003-003-N.jpg","img/neutralC/CFD-WM-202-107-N.jpg","img/neutralC/CFD-LF-208-127-N.jpg","1","1","1","0","1","0","0.489832999999635","0.454999899957329","0.575525599997491","1","1","1","1","1","1","1","1","1"
"250063","img/neutralC/CFD-LF-208-127-N.jpg","img/neutralC/CFD-BM-003-003-N.jpg","img/neutralC/CFD-WF-006-002-N.jpg","1","1","1","0","0","0","0.575525599997491","0.489832999999635","0.521927600027993","1","1","1","1","1","1","1","1","1"
"250063","img/neutralC/CFD-WF-006-002-N.jpg","img/neutralC/CFD-LF-208-127-N.jpg","img/neutralC/CFD-MF-312-002-N.jpg","1","1","1","0","0","1","0.521927600027993","0.575525599997491","0.502427499974146","1","1","1","1","1","1","1","1","1"
"250063","img/neutralC/CFD-MF-312-002-N.jpg","img/neutralC/CFD-WF-006-002-N.jpg","img/neutralC/CFD-BF-045-003-N.jpg","1","1","1","1","0","0","0.502427499974146","0.521927600027993","0.518401900073513","1","1","1","1","1","1","1","1","1"
"250063","img/neutralC/CFD-BF-045-003-N.jpg","img/neutralC/CFD-MF-312-002-N.jpg","img/neutralC/CFD-BM-010-003-N.jpg","1","1","1","0","1","0","0.518401900073513","0.502427499974146","0.471648400067352","1","1","1","1","1","1","1","1","1"
"250063","img/neutralC/CFD-BM-010-003-N.jpg","img/neutralC/CFD-BF-045-003-N.jpg","img/neutralC/CFD-BM-213-134-N.jpg","1","1","1","0","0","1","0.471648400067352","0.518401900073513","0.458281500032172","1","1","1","1","1","1","1","1","1"
"250063","img/neutralC/CFD-BM-213-134-N.jpg","img/neutralC/CFD-BM-010-003-N.jpg","img/neutralC/CFD-AF-227-207-N.jpg","1","1","1","1","0","1","0.458281500032172","0.471648400067352","0.415106499916874","1","1","1","1","1","1","1","1","1"
"250063","img/neutralC/CFD-AF-227-207-N.jpg","img/neutralC/CFD-BM-213-134-N.jpg","img/neutralC/CFD-WM-228-065-N.jpg","1","1","1","1","1","0","0.415106499916874","0.458281500032172","0.503810500027612","1","1","1","1","1","1","1","1","1"
"250063","img/neutralC/CFD-WM-228-065-N.jpg","img/neutralC/CFD-AF-227-207-N.jpg","img/neutralC/CFD-WF-033-002-N.jpg","1","1","1","0","1","1","0.503810500027612","0.415106499916874","0.424444500007667","1","1","1","1","1","1","1","1","1"
"250063","img/neutralC/CFD-WF-033-002-N.jpg","img/neutralC/CFD-WM-228-065-N.jpg","img/neutralC/CFD-AF-210-050-N.jpg","1","1","1","1","0","1","0.424444500007667","0.503810500027612","0.370124200009741","1","1","1","1","1","1","1","1","1"
"250063","img/neutralC/CFD-AF-210-050-N.jpg","img/neutralC/CFD-WF-033-002-N.jpg","img/neutralC/CFD-WF-223-133-N.jpg","1","1","1","1","1","0","0.370124200009741","0.424444500007667","0.433604000019841","1","1","1","1","1","1","1","1","1"
"250063","img/neutralC/CFD-WF-223-133-N.jpg","img/neutralC/CFD-AF-210-050-N.jpg","img/neutralC/CFD-BF-222-240-N.jpg","1","1","1","0","1","0","0.433604000019841","0.370124200009741","0.508383499924093","1","1","1","1","1","1","1","1","1"
"250063","img/neutralC/CFD-BF-222-240-N.jpg","img/neutralC/CFD-WF-223-133-N.jpg","img/neutralC/CFD-IF-744-114-N.jpg","1","1","0","0","0","0","0.508383499924093","0.433604000019841","0.388526600087062","1","1","1","1","1","1","1","1","1"
"250063","img/neutralC/CFD-IF-744-114-N.jpg","img/neutralC/CFD-BF-222-240-N.jpg","img/neutralC/CFD-LF-210-220-N.jpg","0","1","1","0","0","1","0.388526600087062","0.508383499924093","0.710112400003709","1","1","1","1","1","1","1","1","1"
"250063","img/neutralC/CFD-LF-210-220-N.jpg","img/neutralC/CFD-IF-744-114-N.jpg","img/neutralC/CFD-IM-701-312-N.jpg","1","0","1","1","0","0","0.710112400003709","0.388526600087062","1.09760340000503","1","1","1","1","1","1","1","1","1"
"250063","img/neutralC/CFD-IM-701-312-N.jpg","img/neutralC/CFD-LF-210-220-N.jpg","img/neutralC/CFD-MF-336-016-N.jpg","1","1","1","0","1","1","1.09760340000503","0.710112400003709","0.552828199928626","1","1","1","1","1","1","1","1","1"
"250063","img/neutralC/CFD-MF-336-016-N.jpg","img/neutralC/CFD-IM-701-312-N.jpg","img/neutralC/CFD-AM-221-184-N.jpg","1","1","1","1","0","1","0.552828199928626","1.09760340000503","0.599622700014152","1","1","1","1","1","1","1","1","1"
"250063","img/neutralC/CFD-AM-221-184-N.jpg","img/neutralC/CFD-MF-336-016-N.jpg","img/neutralC/CFD-LF-241-188-N.jpg","1","1","1","1","1","0","0.599622700014152","0.552828199928626","0.63550109998323","1","1","1","1","1","1","1","1","1"
"250063","img/neutralC/CFD-LF-241-188-N.jpg","img/neutralC/CFD-AM-221-184-N.jpg","img/neutralC/CFD-IF-625-225-N.jpg","1","1","1","0","1","0","0.63550109998323","0.599622700014152","0.485870099975727","1","1","1","1","1","1","1","1","1"
"250063","img/neutralC/CFD-IF-625-225-N.jpg","img/neutralC/CFD-LF-241-188-N.jpg","img/neutralC/CFD-IM-659-359-N.jpg","1","1","1","0","0","0","0.485870099975727","0.63550109998323","0.487968800007366","1","1","1","1","1","1","1","1","1"
"250063","img/neutralC/CFD-IM-659-359-N.jpg","img/neutralC/CFD-IF-625-225-N.jpg","img/neutralC/CFD-IF-673-389-N.jpg","1","1","1","0","0","0","0.487968800007366","0.485870099975727","0.57307360006962","1","1","1","1","1","1","1","1","1"
"250063","img/neutralC/CFD-IF-673-389-N.jpg","img/neutralC/CFD-IM-659-359-N.jpg","img/neutralC/CFD-BM-013-002-N.jpg","1","1","1","0","0","1","0.57307360006962","0.487968800007366","0.462363000027835","1","1","1","1","1","1","1","1","1"
"250063","img/neutralC/CFD-BM-013-002-N.jpg","img/neutralC/CFD-IF-673-389-N.jpg","img/neutralC/CFD-WM-254-152-N.jpg","1","1","1","1","0","1","0.462363000027835","0.57307360006962","0.409930399968289","1","1","1","1","1","1","1","1","1"
"250063","img/neutralC/CFD-WM-254-152-N.jpg","img/neutralC/CFD-BM-013-002-N.jpg","img/neutralC/CFD-BM-028-002-N.jpg","1","1","1","1","1","1","0.409930399968289","0.462363000027835","0.458052500034682","1","1","1","1","1","1","1","1","1"
"250063","img/neutralC/CFD-BM-028-002-N.jpg","img/neutralC/CFD-WM-254-152-N.jpg","img/neutralC/CFD-BF-004-014-N.jpg","1","1","1","1","1","1","0.458052500034682","0.409930399968289","0.42797249997966","1","1","1","1","1","1","1","1","1"
"250063","img/neutralC/CFD-BF-004-014-N.jpg","img/neutralC/CFD-BM-028-002-N.jpg","img/neutralC/CFD-LM-238-129-N.jpg","1","1","1","1","1","1","0.42797249997966","0.458052500034682","0.48524599999655","1","1","1","1","1","1","1","1","1"
"250063","img/neutralC/CFD-LM-238-129-N.jpg","img/neutralC/CFD-BF-004-014-N.jpg","img/neutralC/CFD-AF-239-171-N.jpg","1","1","1","1","1","1","0.48524599999655","0.42797249997966","0.767682099947706","1","1","1","1","1","1","1","1","1"
"250063","img/neutralC/CFD-AF-239-171-N.jpg","img/neutralC/CFD-LM-238-129-N.jpg","img/neutralC/CFD-LF-225-164-N.jpg","1","1","1","1","1","1","0.767682099947706","0.48524599999655","0.360567800002173","1","1","1","1","1","1","1","1","1"
"250063","img/neutralC/CFD-LF-225-164-N.jpg","img/neutralC/CFD-AF-239-171-N.jpg",NA,"1","1",NA,"1","1",NA,"0.360567800002173","0.767682099947706",NA,"1","1",NA,"1","1",NA,"1","1",NA
"250063","img/neutralC/CFD-AM-225-102-N.jpg",NA,"img/neutralC/CFD-WM-253-119-N.jpg","1",NA,"1","0",NA,"1","0.494216300081462",NA,"0.392392799956724","1",NA,"1","1",NA,"1","1",NA,"1"
"250063","img/neutralC/CFD-WM-253-119-N.jpg","img/neutralC/CFD-AM-225-102-N.jpg","img/neutralC/CFD-BF-235-168-N.jpg","1","1","1","1","0","1","0.392392799956724","0.494216300081462","0.433477699989453","1","1","1","1","1","1","1","1","1"
"250063","img/neutralC/CFD-BF-235-168-N.jpg","img/neutralC/CFD-WM-253-119-N.jpg","img/neutralC/CFD-AF-244-168-N.jpg","1","1","0","1","1","0","0.433477699989453","0.392392799956724","0.438521099975333","1","1","1","1","1","1","1","1","1"
"250063","img/neutralC/CFD-AF-244-168-N.jpg","img/neutralC/CFD-BF-235-168-N.jpg","img/neutralC/CFD-IM-632-097-N.jpg","0","1","1","0","1","0","0.438521099975333","0.433477699989453","0.486041199997999","1","1","1","1","1","1","1","1","1"
"250063","img/neutralC/CFD-IM-632-097-N.jpg","img/neutralC/CFD-AF-244-168-N.jpg","img/neutralC/CFD-WF-235-121-N.jpg","1","0","1","0","0","0","0.486041199997999","0.438521099975333","0.690566100063734","1","1","1","1","1","1","1","1","1"
"250063","img/neutralC/CFD-WF-235-121-N.jpg","img/neutralC/CFD-IM-632-097-N.jpg","img/neutralC/CFD-AM-245-111-N.jpg","1","1","0","0","0","1","0.690566100063734","0.486041199997999","0.935588299995288","1","1","1","1","1","1","1","1","1"
"250063","img/neutralC/CFD-AM-245-111-N.jpg","img/neutralC/CFD-WF-235-121-N.jpg","img/neutralC/CFD-IM-669-111-N.jpg","0","1","1","1","0","1","0.935588299995288","0.690566100063734","0.494736299966462","1","1","1","1","1","1","1","1","1"
"250063","img/neutralC/CFD-IM-669-111-N.jpg","img/neutralC/CFD-AM-245-111-N.jpg","img/neutralC/CFD-WM-018-002-N.jpg","1","0","1","1","1","0","0.494736299966462","0.935588299995288","0.575189199997112","1","1","1","1","1","1","1","1","1"
"250063","img/neutralC/CFD-WM-018-002-N.jpg","img/neutralC/CFD-IM-669-111-N.jpg","img/neutralC/CFD-BF-206-143-N.jpg","1","1","1","0","1","1","0.575189199997112","0.494736299966462","0.491080700070597","1","1","1","1","1","1","1","1","1"
"250063","img/neutralC/CFD-BF-206-143-N.jpg","img/neutralC/CFD-WM-018-002-N.jpg","img/neutralC/CFD-AF-234-208-N.jpg","1","1","1","1","0","1","0.491080700070597","0.575189199997112","0.514583899988793","1","1","1","1","1","1","1","1","1"
"250063","img/neutralC/CFD-AF-234-208-N.jpg","img/neutralC/CFD-BF-206-143-N.jpg","img/neutralC/CFD-BF-040-003-N.jpg","1","1","1","1","1","1","0.514583899988793","0.491080700070597","0.663632599986158","1","1","1","1","1","1","1","1","1"
"250063","img/neutralC/CFD-BF-040-003-N.jpg","img/neutralC/CFD-AF-234-208-N.jpg","img/neutralC/CFD-AF-250-200-N.jpg","1","1","1","1","1","1","0.663632599986158","0.514583899988793","0.454341200063936","1","1","1","1","1","1","1","1","1"
"250063","img/neutralC/CFD-AF-250-200-N.jpg","img/neutralC/CFD-BF-040-003-N.jpg","img/neutralC/CFD-BM-004-002-N.jpg","1","1","0","1","1","0","0.454341200063936","0.663632599986158","0.477480300003663","1","1","1","1","1","1","1","1","2"
"250063","img/neutralC/CFD-BM-004-002-N.jpg","img/neutralC/CFD-AF-250-200-N.jpg","img/neutralC/CFD-LF-239-148-N.jpg","0","1","1","0","1","0","0.477480300003663","0.454341200063936","0.791337399976328","1","1","1","1","1","1","2","1","1"
"250063","img/neutralC/CFD-LF-239-148-N.jpg","img/neutralC/CFD-BM-004-002-N.jpg","img/neutralC/CFD-LM-241-125-N.jpg","1","0","1","0","0","1","0.791337399976328","0.477480300003663","1.02699670009315","1","1","1","1","1","1","1","2","1"
"250063","img/neutralC/CFD-LM-241-125-N.jpg","img/neutralC/CFD-LF-239-148-N.jpg","img/neutralC/CFD-MF-302-027-N.jpg","1","1","1","1","0","0","1.02699670009315","0.791337399976328","0.508305599913001","1","1","1","1","1","1","1","1","1"
"250063","img/neutralC/CFD-MF-302-027-N.jpg","img/neutralC/CFD-LM-241-125-N.jpg","img/neutralC/CFD-AF-246-242-N.jpg","1","1","1","0","1","0","0.508305599913001","1.02699670009315","0.520586800063029","1","1","1","1","1","1","1","1","1"
"250063","img/neutralC/CFD-AF-246-242-N.jpg","img/neutralC/CFD-MF-302-027-N.jpg","img/neutralC/CFD-IM-678-482-N.jpg","1","1","0","0","0","0","0.520586800063029","0.508305599913001","0.476589499972761","1","1","1","1","1","1","1","1","1"
"250063","img/neutralC/CFD-IM-678-482-N.jpg","img/neutralC/CFD-AF-246-242-N.jpg","img/neutralC/CFD-IF-732-260-N.jpg","0","1","1","0","0","0","0.476589499972761","0.520586800063029","0.704228399903513","1","1","1","1","1","1","1","1","1"
"250063","img/neutralC/CFD-IF-732-260-N.jpg","img/neutralC/CFD-IM-678-482-N.jpg","img/neutralC/CFD-IM-635-010-N.jpg","1","0","1","0","0","1","0.704228399903513","0.476589499972761","0.551837900071405","1","1","1","1","1","1","1","1","1"
"250063","img/neutralC/CFD-IM-635-010-N.jpg","img/neutralC/CFD-IF-732-260-N.jpg","img/neutralC/CFD-BM-215-155-N.jpg","1","1","1","1","0","0","0.551837900071405","0.704228399903513","0.537330600083806","1","1","1","1","1","1","1","1","1"
"250063","img/neutralC/CFD-BM-215-155-N.jpg","img/neutralC/CFD-IM-635-010-N.jpg","img/neutralC/CFD-AF-213-126-N.jpg","1","1","1","0","1","1","0.537330600083806","0.551837900071405","0.476378599996678","1","1","1","1","1","1","1","1","1"
"250063","img/neutralC/CFD-AF-213-126-N.jpg","img/neutralC/CFD-BM-215-155-N.jpg","img/neutralC/CFD-AF-205-155-N.jpg","1","1","1","1","0","0","0.476378599996678","0.537330600083806","0.71057060000021","1","1","1","1","1","1","1","1","1"
"250063","img/neutralC/CFD-AF-205-155-N.jpg","img/neutralC/CFD-AF-213-126-N.jpg","img/neutralC/CFD-LM-204-001-N.jpg","1","1","1","0","1","0","0.71057060000021","0.476378599996678","0.566262400010601","1","1","1","1","1","1","1","1","1"
"250063","img/neutralC/CFD-LM-204-001-N.jpg","img/neutralC/CFD-AF-205-155-N.jpg","img/neutralC/CFD-MF-307-002-N.jpg","1","1","1","0","0","1","0.566262400010601","0.71057060000021","0.488564200000838","1","1","1","1","1","1","1","1","1"
"250063","img/neutralC/CFD-MF-307-002-N.jpg","img/neutralC/CFD-LM-204-001-N.jpg","img/neutralC/CFD-BF-217-189-N.jpg","1","1","1","1","0","0","0.488564200000838","0.566262400010601","0.535298800095916","1","1","1","1","1","1","1","1","1"
"250063","img/neutralC/CFD-BF-217-189-N.jpg","img/neutralC/CFD-MF-307-002-N.jpg","img/neutralC/CFD-WF-210-086-N.jpg","1","1","1","0","1","0","0.535298800095916","0.488564200000838","0.646266499999911","1","1","1","1","1","1","1","1","1"
"250063","img/neutralC/CFD-WF-210-086-N.jpg","img/neutralC/CFD-BF-217-189-N.jpg","img/neutralC/CFD-BF-020-002-N.jpg","1","1","1","0","0","1","0.646266499999911","0.535298800095916","0.496010100003332","1","1","1","1","1","1","1","1","1"
"250063","img/neutralC/CFD-BF-020-002-N.jpg","img/neutralC/CFD-WF-210-086-N.jpg","img/neutralC/CFD-AM-233-236-N.jpg","1","1","1","1","0","1","0.496010100003332","0.646266499999911","0.509327900013886","1","1","1","1","1","1","1","1","1"
"250063","img/neutralC/CFD-AM-233-236-N.jpg","img/neutralC/CFD-BF-020-002-N.jpg","img/neutralC/CFD-IF-636-011-N.jpg","1","1","1","1","1","1","0.509327900013886","0.496010100003332","0.961195100098848","1","1","1","1","1","1","1","1","1"
"250063","img/neutralC/CFD-IF-636-011-N.jpg","img/neutralC/CFD-AM-233-236-N.jpg","img/neutralC/CFD-BF-042-026-N.jpg","1","1","1","1","1","1","0.961195100098848","0.509327900013886","0.507987100048922","1","1","1","1","1","1","1","1","1"
"250063","img/neutralC/CFD-BF-042-026-N.jpg","img/neutralC/CFD-IF-636-011-N.jpg",NA,"1","1",NA,"1","1",NA,"0.507987100048922","0.961195100098848",NA,"1","1",NA,"1","1",NA,"1","1",NA
"250063","img/neutralC/CFD-BF-208-266-N.jpg",NA,"img/neutralC/CFD-LF-236-221-N.jpg","0",NA,"1","0",NA,"1","1.57175120001193",NA,"0.558639499940909","1",NA,"1","1",NA,"1","1",NA,"1"
"250063","img/neutralC/CFD-LF-236-221-N.jpg","img/neutralC/CFD-BF-208-266-N.jpg","img/neutralC/CFD-BM-211-174-N.jpg","1","0","1","1","0","0","0.558639499940909","1.57175120001193","0.505559299956076","1","1","1","1","1","1","1","1","1"
"250063","img/neutralC/CFD-BM-211-174-N.jpg","img/neutralC/CFD-LF-236-221-N.jpg","img/neutralC/CFD-BM-027-001-N.jpg","1","1","1","0","1","0","0.505559299956076","0.558639499940909","0.705083500011824","1","1","1","1","1","1","1","1","1"
"250063","img/neutralC/CFD-BM-027-001-N.jpg","img/neutralC/CFD-BM-211-174-N.jpg","img/neutralC/CFD-WF-026-002-N.jpg","1","1","1","0","0","1","0.705083500011824","0.505559299956076","0.656042800052091","1","1","1","1","1","1","1","1","1"
"250063","img/neutralC/CFD-WF-026-002-N.jpg","img/neutralC/CFD-BM-027-001-N.jpg","img/neutralC/CFD-WM-225-127-N.jpg","1","1","1","1","0","0","0.656042800052091","0.705083500011824","0.529550399980508","1","1","1","1","1","1","1","1","1"
"250063","img/neutralC/CFD-WM-225-127-N.jpg","img/neutralC/CFD-WF-026-002-N.jpg","img/neutralC/CFD-BF-003-003-N.jpg","1","1","1","0","1","0","0.529550399980508","0.656042800052091","0.490212799981236","1","1","1","1","1","1","1","1","1"
"250063","img/neutralC/CFD-BF-003-003-N.jpg","img/neutralC/CFD-WM-225-127-N.jpg","img/neutralC/CFD-IF-672-305-N.jpg","1","1","1","0","0","0","0.490212799981236","0.529550399980508","0.511592300026678","1","1","1","1","1","1","1","1","1"
"250063","img/neutralC/CFD-IF-672-305-N.jpg","img/neutralC/CFD-BF-003-003-N.jpg","img/neutralC/CFD-WF-022-017-N.jpg","1","1","0","0","0","0","0.511592300026678","0.490212799981236","0.495160600054078","1","1","1","1","1","1","1","1","1"
"250063","img/neutralC/CFD-WF-022-017-N.jpg","img/neutralC/CFD-IF-672-305-N.jpg","img/neutralC/CFD-IM-728-041-N.jpg","0","1","1","0","0","0","0.495160600054078","0.511592300026678","0.686647199909203","1","1","1","1","1","1","1","1","1"
"250063","img/neutralC/CFD-IM-728-041-N.jpg","img/neutralC/CFD-WF-022-017-N.jpg","img/neutralC/CFD-BM-015-015-N.jpg","1","0","1","0","0","0","0.686647199909203","0.495160600054078","0.549367400002666","1","1","1","1","1","1","1","1","1"
"250063","img/neutralC/CFD-BM-015-015-N.jpg","img/neutralC/CFD-IM-728-041-N.jpg","img/neutralC/CFD-BM-029-024-N.jpg","1","1","1","0","0","1","0.549367400002666","0.686647199909203","0.805780899943784","1","1","1","1","1","1","1","1","1"
"250063","img/neutralC/CFD-BM-029-024-N.jpg","img/neutralC/CFD-BM-015-015-N.jpg","img/neutralC/CFD-BF-255-140-N.jpg","1","1","1","1","0","1","0.805780899943784","0.549367400002666","0.687354100053199","1","1","1","1","1","1","1","1","1"
"250063","img/neutralC/CFD-BF-255-140-N.jpg","img/neutralC/CFD-BM-029-024-N.jpg","img/neutralC/CFD-IF-718-001-N.jpg","1","1","1","1","1","1","0.687354100053199","0.805780899943784","0.593763899989426","1","1","1","1","1","1","1","1","1"
"250063","img/neutralC/CFD-IF-718-001-N.jpg","img/neutralC/CFD-BF-255-140-N.jpg","img/neutralC/CFD-AM-235-241-N.jpg","1","1","1","1","1","0","0.593763899989426","0.687354100053199","0.617607199936174","1","1","1","1","1","1","1","1","1"
"250063","img/neutralC/CFD-AM-235-241-N.jpg","img/neutralC/CFD-IF-718-001-N.jpg","img/neutralC/CFD-AM-215-120-N.jpg","1","1","1","0","1","1","0.617607199936174","0.593763899989426","0.503223699983209","1","1","1","1","1","1","1","1","1"
"250063","img/neutralC/CFD-AM-215-120-N.jpg","img/neutralC/CFD-AM-235-241-N.jpg","img/neutralC/CFD-BF-201-080-N.jpg","1","1","1","1","0","1","0.503223699983209","0.617607199936174","0.512107799993828","1","1","1","1","1","1","1","1","1"
"250063","img/neutralC/CFD-BF-201-080-N.jpg","img/neutralC/CFD-AM-215-120-N.jpg","img/neutralC/CFD-WM-040-022-N.jpg","1","1","1","1","1","0","0.512107799993828","0.503223699983209","0.512606000062078","1","1","1","1","1","1","1","1","1"
"250063","img/neutralC/CFD-WM-040-022-N.jpg","img/neutralC/CFD-BF-201-080-N.jpg","img/neutralC/CFD-BF-023-010-N.jpg","1","1","1","0","1","1","0.512606000062078","0.512107799993828","0.470657199970447","1","1","1","1","1","1","1","1","1"
"250063","img/neutralC/CFD-BF-023-010-N.jpg","img/neutralC/CFD-WM-040-022-N.jpg","img/neutralC/CFD-IM-639-263-N.jpg","1","1","1","1","0","1","0.470657199970447","0.512606000062078","0.621372499968857","1","1","1","1","1","1","1","1","1"
"250063","img/neutralC/CFD-IM-639-263-N.jpg","img/neutralC/CFD-BF-023-010-N.jpg","img/neutralC/CFD-AM-217-085-N.jpg","1","1","1","1","1","0","0.621372499968857","0.470657199970447","0.5960827000672","1","1","1","1","1","1","1","1","1"
"250063","img/neutralC/CFD-AM-217-085-N.jpg","img/neutralC/CFD-IM-639-263-N.jpg","img/neutralC/CFD-BF-204-189-N.jpg","1","1","1","0","1","1","0.5960827000672","0.621372499968857","0.446040599956177","1","1","1","1","1","1","1","1","1"
"250063","img/neutralC/CFD-BF-204-189-N.jpg","img/neutralC/CFD-AM-217-085-N.jpg","img/neutralC/CFD-IM-674-281-N.jpg","1","1","1","1","0","1","0.446040599956177","0.5960827000672","0.480881499941461","1","1","1","1","1","1","1","1","1"
"250063","img/neutralC/CFD-IM-674-281-N.jpg","img/neutralC/CFD-BF-204-189-N.jpg","img/neutralC/CFD-LF-216-121-N.jpg","1","1","1","1","1","1","0.480881499941461","0.446040599956177","0.504306199960411","1","1","1","1","1","1","1","1","1"
"250063","img/neutralC/CFD-LF-216-121-N.jpg","img/neutralC/CFD-IM-674-281-N.jpg","img/neutralC/CFD-WM-257-161-N.jpg","1","1","1","1","1","1","0.504306199960411","0.480881499941461","0.448065300006419","1","1","1","1","1","1","1","1","1"
"250063","img/neutralC/CFD-WM-257-161-N.jpg","img/neutralC/CFD-LF-216-121-N.jpg","img/neutralC/CFD-WM-002-009-N.jpg","1","1","1","1","1","0","0.448065300006419","0.504306199960411","0.659246800001711","1","1","1","1","1","1","1","1","1"
"250063","img/neutralC/CFD-WM-002-009-N.jpg","img/neutralC/CFD-WM-257-161-N.jpg","img/neutralC/CFD-LM-252-076-N.jpg","1","1","1","0","1","1","0.659246800001711","0.448065300006419","0.495896399952471","1","1","1","1","1","1","1","1","1"
"250063","img/neutralC/CFD-LM-252-076-N.jpg","img/neutralC/CFD-WM-002-009-N.jpg","img/neutralC/CFD-BF-028-001-N.jpg","1","1","1","1","0","1","0.495896399952471","0.659246800001711","0.562116699991748","1","1","1","1","1","1","1","1","1"
"250063","img/neutralC/CFD-BF-028-001-N.jpg","img/neutralC/CFD-LM-252-076-N.jpg","img/neutralC/CFD-WM-038-003-N.jpg","1","1","1","1","1","0","0.562116699991748","0.495896399952471","0.691638300078921","1","1","1","1","1","1","1","1","1"
"250063","img/neutralC/CFD-WM-038-003-N.jpg","img/neutralC/CFD-BF-028-001-N.jpg","img/neutralC/CFD-WF-002-004-N.jpg","1","1","1","0","1","0","0.691638300078921","0.562116699991748","0.621708999969997","1","1","1","1","1","1","1","1","1"
"250063","img/neutralC/CFD-WF-002-004-N.jpg","img/neutralC/CFD-WM-038-003-N.jpg","img/neutralC/CFD-BM-247-240-N.jpg","1","1","1","0","0","0","0.621708999969997","0.691638300078921","0.58591299992986","1","1","1","1","1","1","1","1","1"
"250063","img/neutralC/CFD-BM-247-240-N.jpg","img/neutralC/CFD-WF-002-004-N.jpg","img/neutralC/CFD-MM-319-052-N.jpg","1","1","1","0","0","1","0.58591299992986","0.621708999969997","0.86423599999398","1","1","1","1","1","1","1","1","1"
"250063","img/neutralC/CFD-MM-319-052-N.jpg","img/neutralC/CFD-BM-247-240-N.jpg",NA,"1","1",NA,"1","0",NA,"0.86423599999398","0.58591299992986",NA,"1","1",NA,"1","1",NA,"1","1",NA
"250063","img/neutralC/CFD-MF-352-054-N.jpg",NA,"img/neutralC/CFD-IM-671-601-N.jpg","1",NA,"1","0",NA,"0","0.619484399911016",NA,"0.407230100012384","1",NA,"1","1",NA,"1","1",NA,"1"
"250063","img/neutralC/CFD-IM-671-601-N.jpg","img/neutralC/CFD-MF-352-054-N.jpg","img/neutralC/CFD-BF-229-179-N.jpg","1","1","1","0","0","0","0.407230100012384","0.619484399911016","0.610093499999493","1","1","1","1","1","1","1","1","1"
"250063","img/neutralC/CFD-BF-229-179-N.jpg","img/neutralC/CFD-IM-671-601-N.jpg","img/neutralC/CFD-IF-623-129-N.jpg","1","1","1","0","0","1","0.610093499999493","0.407230100012384","0.472295199986547","1","1","1","1","1","1","1","1","1"
"250063","img/neutralC/CFD-IF-623-129-N.jpg","img/neutralC/CFD-BF-229-179-N.jpg","img/neutralC/CFD-BM-225-154-N.jpg","1","1","1","1","0","1","0.472295199986547","0.610093499999493","0.515733200008981","1","1","1","1","1","1","1","1","1"
"250063","img/neutralC/CFD-BM-225-154-N.jpg","img/neutralC/CFD-IF-623-129-N.jpg","img/neutralC/CFD-MF-333-012-N.jpg","1","1","1","1","1","0","0.515733200008981","0.472295199986547","0.537895600078627","1","1","1","1","1","1","1","1","1"
"250063","img/neutralC/CFD-MF-333-012-N.jpg","img/neutralC/CFD-BM-225-154-N.jpg","img/neutralC/CFD-WM-004-010-N.jpg","1","1","1","0","1","0","0.537895600078627","0.515733200008981","0.769895200035535","1","1","1","1","1","1","1","1","1"
"250063","img/neutralC/CFD-WM-004-010-N.jpg","img/neutralC/CFD-MF-333-012-N.jpg","img/neutralC/CFD-BF-232-187-N.jpg","1","1","1","0","0","1","0.769895200035535","0.537895600078627","0.551478900015354","1","1","1","1","1","1","1","1","1"
"250063","img/neutralC/CFD-BF-232-187-N.jpg","img/neutralC/CFD-WM-004-010-N.jpg","img/neutralC/CFD-IF-650-315-N.jpg","1","1","1","1","0","0","0.551478900015354","0.769895200035535","0.649590999935754","1","1","1","1","1","1","1","1","1"
"250063","img/neutralC/CFD-IF-650-315-N.jpg","img/neutralC/CFD-BF-232-187-N.jpg","img/neutralC/CFD-AM-242-176-N.jpg","1","1","1","0","1","1","0.649590999935754","0.551478900015354","0.60921500006225","1","1","1","1","1","1","1","1","1"
"250063","img/neutralC/CFD-AM-242-176-N.jpg","img/neutralC/CFD-IF-650-315-N.jpg","img/neutralC/CFD-BF-226-119-N.jpg","1","1","1","1","0","1","0.60921500006225","0.649590999935754","0.457180400029756","1","1","1","1","1","1","1","1","1"
"250063","img/neutralC/CFD-BF-226-119-N.jpg","img/neutralC/CFD-AM-242-176-N.jpg","img/neutralC/CFD-LM-228-188-N.jpg","1","1","1","1","1","1","0.457180400029756","0.60921500006225","0.478180699981749","1","1","1","1","1","1","1","1","1"
"250063","img/neutralC/CFD-LM-228-188-N.jpg","img/neutralC/CFD-BF-226-119-N.jpg","img/neutralC/CFD-MF-359-019-N.jpg","1","1","1","1","1","0","0.478180699981749","0.457180400029756","0.544226199970581","1","1","1","1","1","1","1","1","1"
"250063","img/neutralC/CFD-MF-359-019-N.jpg","img/neutralC/CFD-LM-228-188-N.jpg","img/neutralC/CFD-WF-001-003-N.jpg","1","1","1","0","1","1","0.544226199970581","0.478180699981749","0.49573219998274","1","1","1","1","1","1","1","1","1"
"250063","img/neutralC/CFD-WF-001-003-N.jpg","img/neutralC/CFD-MF-359-019-N.jpg","img/neutralC/CFD-WF-214-122-N.jpg","1","1","1","1","0","1","0.49573219998274","0.544226199970581","0.506220999988727","1","1","1","1","1","1","1","1","1"
"250063","img/neutralC/CFD-WF-214-122-N.jpg","img/neutralC/CFD-WF-001-003-N.jpg","img/neutralC/CFD-LM-237-264-N.jpg","1","1","0","1","1","0","0.506220999988727","0.49573219998274","0.767323500011116","1","1","1","1","1","1","1","1","1"
"250063","img/neutralC/CFD-LM-237-264-N.jpg","img/neutralC/CFD-WF-214-122-N.jpg","img/neutralC/CFD-LF-218-072-N.jpg","0","1","1","0","1","0","0.767323500011116","0.506220999988727","0.62404989998322","1","1","1","1","1","1","1","1","1"
"250063","img/neutralC/CFD-LF-218-072-N.jpg","img/neutralC/CFD-LM-237-264-N.jpg","img/neutralC/CFD-WF-200-099-N.jpg","1","0","1","0","0","0","0.62404989998322","0.767323500011116","0.545067900093272","1","1","1","1","1","1","1","1","1"
"250063","img/neutralC/CFD-WF-200-099-N.jpg","img/neutralC/CFD-LF-218-072-N.jpg","img/neutralC/CFD-WF-036-023-N.jpg","1","1","1","0","0","0","0.545067900093272","0.62404989998322","0.518421400105581","1","1","1","1","1","1","1","1","1"
"250063","img/neutralC/CFD-WF-036-023-N.jpg","img/neutralC/CFD-WF-200-099-N.jpg","img/neutralC/CFD-IM-703-182-N.jpg","1","1","1","0","0","1","0.518421400105581","0.545067900093272","0.473568400018848","1","1","1","1","1","1","1","1","1"
"250063","img/neutralC/CFD-IM-703-182-N.jpg","img/neutralC/CFD-WF-036-023-N.jpg","img/neutralC/CFD-WM-219-008-N.jpg","1","1","1","1","0","0","0.473568400018848","0.518421400105581","0.422068699961528","1","1","1","1","1","1","1","1","1"
"250063","img/neutralC/CFD-WM-219-008-N.jpg","img/neutralC/CFD-IM-703-182-N.jpg","img/neutralC/CFD-AM-251-124-N.jpg","1","1","1","0","1","0","0.422068699961528","0.473568400018848","0.803430099971592","1","1","1","1","1","1","1","1","1"
"250063","img/neutralC/CFD-AM-251-124-N.jpg","img/neutralC/CFD-WM-219-008-N.jpg","img/neutralC/CFD-BF-038-037-N.jpg","1","1","1","0","0","1","0.803430099971592","0.422068699961528","0.510751500027254","1","1","1","1","1","1","1","1","1"
"250063","img/neutralC/CFD-BF-038-037-N.jpg","img/neutralC/CFD-AM-251-124-N.jpg","img/neutralC/CFD-WM-020-001-N.jpg","1","1","1","1","0","1","0.510751500027254","0.803430099971592","0.464227599906735","1","1","1","1","1","1","1","1","1"
"250063","img/neutralC/CFD-WM-020-001-N.jpg","img/neutralC/CFD-BF-038-037-N.jpg","img/neutralC/CFD-IM-743-006-N.jpg","1","1","1","1","1","1","0.464227599906735","0.510751500027254","0.521866200026125","1","1","1","1","1","1","1","1","1"
"250063","img/neutralC/CFD-IM-743-006-N.jpg","img/neutralC/CFD-WM-020-001-N.jpg","img/neutralC/CFD-WM-235-147-N.jpg","1","1","1","1","1","0","0.521866200026125","0.464227599906735","0.872739500016905","1","1","1","1","1","1","1","1","1"
"250063","img/neutralC/CFD-WM-235-147-N.jpg","img/neutralC/CFD-IM-743-006-N.jpg","img/neutralC/CFD-IM-616-214-N.jpg","1","1","1","0","1","0","0.872739500016905","0.521866200026125","0.564356299932115","1","1","1","1","1","1","1","1","1"
"250063","img/neutralC/CFD-IM-616-214-N.jpg","img/neutralC/CFD-WM-235-147-N.jpg","img/neutralC/CFD-LF-220-120-N.jpg","1","1","1","0","0","1","0.564356299932115","0.872739500016905","0.53147419996094","1","1","1","1","1","1","1","1","1"
"250063","img/neutralC/CFD-LF-220-120-N.jpg","img/neutralC/CFD-IM-616-214-N.jpg","img/neutralC/CFD-IM-645-001-N.jpg","1","1","1","1","0","0","0.53147419996094","0.564356299932115","0.466454499983229","1","1","1","1","1","1","1","1","1"
"250063","img/neutralC/CFD-IM-645-001-N.jpg","img/neutralC/CFD-LF-220-120-N.jpg","img/neutralC/CFD-BM-253-004-N.jpg","1","1","1","0","1","1","0.466454499983229","0.53147419996094","0.982543700025417","1","1","1","1","1","1","1","1","1"
"250063","img/neutralC/CFD-BM-253-004-N.jpg","img/neutralC/CFD-IM-645-001-N.jpg","img/neutralC/CFD-AM-211-052-N.jpg","1","1","1","1","0","1","0.982543700025417","0.466454499983229","0.867904599988833","1","1","1","1","1","1","1","1","1"
"250063","img/neutralC/CFD-AM-211-052-N.jpg","img/neutralC/CFD-BM-253-004-N.jpg","img/neutralC/CFD-WM-033-025-N.jpg","1","1","1","1","1","1","0.867904599988833","0.982543700025417","0.550932200043462","1","1","1","1","1","1","1","1","1"
"250063","img/neutralC/CFD-WM-033-025-N.jpg","img/neutralC/CFD-AM-211-052-N.jpg",NA,"1","1",NA,"1","1",NA,"0.550932200043462","0.867904599988833",NA,"1","1",NA,"1","1",NA,"1","1",NA
"250063","img/neutralC/CFD-BM-204-003-N.jpg",NA,"img/neutralC/CFD-AF-232-078-N.jpg","0",NA,"1","0",NA,"1","0.936464700032957",NA,"0.525322200031951","1",NA,"1","1",NA,"1","1",NA,"1"
"250063","img/neutralC/CFD-AF-232-078-N.jpg","img/neutralC/CFD-BM-204-003-N.jpg","img/neutralC/CFD-LM-253-075-N.jpg","1","0","1","1","0","0","0.525322200031951","0.936464700032957","0.46347680001054","1","1","1","1","1","1","1","1","1"
"250063","img/neutralC/CFD-LM-253-075-N.jpg","img/neutralC/CFD-AF-232-078-N.jpg","img/neutralC/CFD-AF-221-147-N.jpg","1","1","1","0","1","0","0.46347680001054","0.525322200031951","0.452914799912833","1","1","1","1","1","1","1","1","1"
"250063","img/neutralC/CFD-AF-221-147-N.jpg","img/neutralC/CFD-LM-253-075-N.jpg","img/neutralC/CFD-IF-629-234-N.jpg","1","1","1","0","0","0","0.452914799912833","0.46347680001054","0.481401900062338","1","1","1","1","1","1","1","1","1"
"250063","img/neutralC/CFD-IF-629-234-N.jpg","img/neutralC/CFD-AF-221-147-N.jpg","img/neutralC/CFD-WF-245-084-N.jpg","1","1","1","0","0","1","0.481401900062338","0.452914799912833","0.404377999948338","1","1","1","1","1","1","1","1","1"
"250063","img/neutralC/CFD-WF-245-084-N.jpg","img/neutralC/CFD-IF-629-234-N.jpg","img/neutralC/CFD-MF-321-003-N.jpg","1","1","0","1","0","0","0.404377999948338","0.481401900062338","0.431548100081272","1","1","1","1","1","1","1","1","1"
"250063","img/neutralC/CFD-MF-321-003-N.jpg","img/neutralC/CFD-WF-245-084-N.jpg","img/neutralC/CFD-WM-255-219-N.jpg","0","1","1","0","1","0","0.431548100081272","0.404377999948338","0.658102300018072","1","1","1","1","1","1","1","1","1"
"250063","img/neutralC/CFD-WM-255-219-N.jpg","img/neutralC/CFD-MF-321-003-N.jpg","img/neutralC/CFD-AM-244-222-N.jpg","1","0","1","0","0","0","0.658102300018072","0.431548100081272","0.557684400002472","1","1","1","1","1","1","1","1","1"
"250063","img/neutralC/CFD-AM-244-222-N.jpg","img/neutralC/CFD-WM-255-219-N.jpg","img/neutralC/CFD-LF-215-157-N.jpg","1","1","1","0","0","0","0.557684400002472","0.658102300018072","0.614924800000153","1","1","1","1","1","1","1","1","1"
"250063","img/neutralC/CFD-LF-215-157-N.jpg","img/neutralC/CFD-AM-244-222-N.jpg","img/neutralC/CFD-WF-238-023-N.jpg","1","1","1","0","0","0","0.614924800000153","0.557684400002472","0.487408100045286","1","1","1","1","1","1","1","1","1"
"250063","img/neutralC/CFD-WF-238-023-N.jpg","img/neutralC/CFD-LF-215-157-N.jpg","img/neutralC/CFD-WM-013-001-N.jpg","1","1","1","0","0","1","0.487408100045286","0.614924800000153","0.45499890006613","1","1","1","1","1","1","1","1","1"
"250063","img/neutralC/CFD-WM-013-001-N.jpg","img/neutralC/CFD-WF-238-023-N.jpg","img/neutralC/CFD-WM-237-052-N.jpg","1","1","1","1","0","1","0.45499890006613","0.487408100045286","0.446508399909362","1","1","1","1","1","1","1","1","1"
"250063","img/neutralC/CFD-WM-237-052-N.jpg","img/neutralC/CFD-WM-013-001-N.jpg","img/neutralC/CFD-BF-254-201-N.jpg","1","1","1","1","1","0","0.446508399909362","0.45499890006613","0.50943799992092","1","1","1","1","1","1","1","1","1"
"250063","img/neutralC/CFD-BF-254-201-N.jpg","img/neutralC/CFD-WM-237-052-N.jpg","img/neutralC/CFD-LF-211-003-N.jpg","1","1","1","0","1","0","0.50943799992092","0.446508399909362","0.926371900015511","1","1","1","1","1","1","1","1","1"
"250063","img/neutralC/CFD-LF-211-003-N.jpg","img/neutralC/CFD-BF-254-201-N.jpg","img/neutralC/CFD-MM-321-021-N.jpg","1","1","0","0","0","0","0.926371900015511","0.50943799992092","1.01685690006707","1","1","1","1","1","1","1","1","1"
"250063","img/neutralC/CFD-MM-321-021-N.jpg","img/neutralC/CFD-LF-211-003-N.jpg","img/neutralC/CFD-WF-027-003-N.jpg","0","1","1","0","0","1","1.01685690006707","0.926371900015511","0.539311700034887","1","1","1","1","1","1","1","1","1"
"250063","img/neutralC/CFD-WF-027-003-N.jpg","img/neutralC/CFD-MM-321-021-N.jpg","img/neutralC/CFD-IM-719-221-N.jpg","1","0","1","1","0","0","0.539311700034887","1.01685690006707","0.59257360000629","1","1","1","1","1","1","1","1","1"
"250063","img/neutralC/CFD-IM-719-221-N.jpg","img/neutralC/CFD-WF-027-003-N.jpg","img/neutralC/CFD-WF-018-017-N.jpg","1","1","1","0","1","1","0.59257360000629","0.539311700034887","0.46377669996582","1","1","1","1","1","1","1","1","1"
"250063","img/neutralC/CFD-WF-018-017-N.jpg","img/neutralC/CFD-IM-719-221-N.jpg","img/neutralC/CFD-IM-700-009-N.jpg","1","1","1","1","0","1","0.46377669996582","0.59257360000629","0.570077399956062","1","1","1","1","1","1","1","1","1"
"250063","img/neutralC/CFD-IM-700-009-N.jpg","img/neutralC/CFD-WF-018-017-N.jpg","img/neutralC/CFD-WM-009-002-N.jpg","1","1","1","1","1","0","0.570077399956062","0.46377669996582","0.631923000095412","1","1","1","1","1","1","1","1","1"
"250063","img/neutralC/CFD-WM-009-002-N.jpg","img/neutralC/CFD-IM-700-009-N.jpg","img/neutralC/CFD-BF-218-207-N.jpg","1","1","1","0","1","1","0.631923000095412","0.570077399956062","0.521092999959365","1","1","1","1","1","1","1","1","1"
"250063","img/neutralC/CFD-BF-218-207-N.jpg","img/neutralC/CFD-WM-009-002-N.jpg","img/neutralC/CFD-MF-318-022-N.jpg","1","1","0","1","0","1","0.521092999959365","0.631923000095412","1.28258860006463","1","1","1","1","1","1","1","1","1"
"250063","img/neutralC/CFD-MF-318-022-N.jpg","img/neutralC/CFD-BF-218-207-N.jpg","img/neutralC/CFD-WF-023-003-N.jpg","0","1","1","1","1","1","1.28258860006463","0.521092999959365","0.514925600029528","1","1","1","1","1","1","1","1","1"
"250063","img/neutralC/CFD-WF-023-003-N.jpg","img/neutralC/CFD-MF-318-022-N.jpg","img/neutralC/CFD-BF-018-039-N.jpg","1","0","1","1","1","1","0.514925600029528","1.28258860006463","0.47978759999387","1","1","1","1","1","1","1","1","1"
"250063","img/neutralC/CFD-BF-018-039-N.jpg","img/neutralC/CFD-WF-023-003-N.jpg","img/neutralC/CFD-BM-200-046-N.jpg","1","1","1","1","1","0","0.47978759999387","0.514925600029528","0.984204199980013","1","1","1","1","1","1","1","1","1"
"250063","img/neutralC/CFD-BM-200-046-N.jpg","img/neutralC/CFD-BF-018-039-N.jpg","img/neutralC/CFD-WF-226-095-N.jpg","1","1","1","0","1","1","0.984204199980013","0.47978759999387","0.512029699981213","1","1","1","1","1","1","1","1","1"
"250063","img/neutralC/CFD-WF-226-095-N.jpg","img/neutralC/CFD-BM-200-046-N.jpg","img/neutralC/CFD-WM-221-091-N.jpg","1","1","1","1","0","0","0.512029699981213","0.984204199980013","0.862580199958757","1","1","1","1","1","1","1","1","1"
"250063","img/neutralC/CFD-WM-221-091-N.jpg","img/neutralC/CFD-WF-226-095-N.jpg","img/neutralC/CFD-MF-342-022-N.jpg","1","1","1","0","1","1","0.862580199958757","0.512029699981213","0.528288200031966","1","1","1","1","1","1","1","1","1"
"250063","img/neutralC/CFD-MF-342-022-N.jpg","img/neutralC/CFD-WM-221-091-N.jpg","img/neutralC/CFD-IM-627-178-N.jpg","1","1","1","1","0","1","0.528288200031966","0.862580199958757","1.00918090005871","1","1","1","1","1","1","1","1","1"
"250063","img/neutralC/CFD-IM-627-178-N.jpg","img/neutralC/CFD-MF-342-022-N.jpg","img/neutralC/CFD-BM-023-029-N.jpg","1","1","1","1","1","1","1.00918090005871","0.528288200031966","0.480602000025101","1","1","1","1","1","1","1","1","1"
"250063","img/neutralC/CFD-BM-023-029-N.jpg","img/neutralC/CFD-IM-627-178-N.jpg","img/neutralC/CFD-WM-201-063-N.jpg","1","1","1","1","1","1","0.480602000025101","1.00918090005871","0.486373299965635","1","1","1","1","1","1","1","1","1"
"250063","img/neutralC/CFD-WM-201-063-N.jpg","img/neutralC/CFD-BM-023-029-N.jpg",NA,"1","1",NA,"1","1",NA,"0.486373299965635","0.480602000025101",NA,"1","1",NA,"1","1",NA,"1","1",NA
"250063","img/neutralC/CFD-BM-212-117-N.jpg",NA,"img/neutralC/CFD-BF-033-028-N.jpg","1",NA,"1","0",NA,"0","0.793314500013366",NA,"0.467091299942695","1",NA,"1","1",NA,"1","1",NA,"1"
"250063","img/neutralC/CFD-BF-033-028-N.jpg","img/neutralC/CFD-BM-212-117-N.jpg","img/neutralC/CFD-LF-247-051-N.jpg","1","1","1","0","0","1","0.467091299942695","0.793314500013366","0.328760499949567","1","1","1","1","1","1","1","1","1"
"250063","img/neutralC/CFD-LF-247-051-N.jpg","img/neutralC/CFD-BF-033-028-N.jpg","img/neutralC/CFD-IM-653-008-N.jpg","1","1","0","1","0","0","0.328760499949567","0.467091299942695","0.41398479999043","1","1","1","1","1","1","1","1","1"
"250063","img/neutralC/CFD-IM-653-008-N.jpg","img/neutralC/CFD-LF-247-051-N.jpg","img/neutralC/CFD-IM-657-308-N.jpg","0","1","1","0","1","0","0.41398479999043","0.328760499949567","0.553258699947037","1","1","1","1","1","1","1","1","1"
"250063","img/neutralC/CFD-IM-657-308-N.jpg","img/neutralC/CFD-IM-653-008-N.jpg","img/neutralC/CFD-BF-238-190-N.jpg","1","0","1","0","0","1","0.553258699947037","0.41398479999043","0.535226500011049","1","1","1","1","1","1","1","1","1"
"250063","img/neutralC/CFD-BF-238-190-N.jpg","img/neutralC/CFD-IM-657-308-N.jpg","img/neutralC/CFD-LF-250-169-N.jpg","1","1","1","1","0","1","0.535226500011049","0.553258699947037","0.436081700026989","1","1","1","1","1","1","1","1","1"
"250063","img/neutralC/CFD-LF-250-169-N.jpg","img/neutralC/CFD-BF-238-190-N.jpg","img/neutralC/CFD-BF-010-001-N.jpg","1","1","1","1","1","1","0.436081700026989","0.535226500011049","0.423258600058034","1","1","1","1","1","1","1","1","1"
"250063","img/neutralC/CFD-BF-010-001-N.jpg","img/neutralC/CFD-LF-250-169-N.jpg","img/neutralC/CFD-WM-242-011-N.jpg","1","1","0","1","1","0","0.423258600058034","0.436081700026989","0.507419400033541","1","1","1","1","1","1","1","1","1"
"250063","img/neutralC/CFD-WM-242-011-N.jpg","img/neutralC/CFD-BF-010-001-N.jpg","img/neutralC/CFD-AF-206-079-N.jpg","0","1","1","0","1","1","0.507419400033541","0.423258600058034","0.705803699907847","1","1","1","1","1","1","1","1","1"
"250063","img/neutralC/CFD-AF-206-079-N.jpg","img/neutralC/CFD-WM-242-011-N.jpg","img/neutralC/CFD-AF-202-122-N.jpg","1","0","1","1","0","1","0.705803699907847","0.507419400033541","0.456510700052604","1","1","1","1","1","1","1","1","1"
"250063","img/neutralC/CFD-AF-202-122-N.jpg","img/neutralC/CFD-AF-206-079-N.jpg","img/neutralC/CFD-MF-313-002-N.jpg","1","1","1","1","1","0","0.456510700052604","0.705803699907847","0.537496500066482","1","1","1","1","1","1","1","1","1"
"250063","img/neutralC/CFD-MF-313-002-N.jpg","img/neutralC/CFD-AF-202-122-N.jpg","img/neutralC/CFD-IM-727-195-N.jpg","1","1","1","0","1","1","0.537496500066482","0.456510700052604","0.424388800049201","1","1","1","1","1","1","1","1","1"
"250063","img/neutralC/CFD-IM-727-195-N.jpg","img/neutralC/CFD-MF-313-002-N.jpg","img/neutralC/CFD-IM-638-250-1-N.jpg","1","1","1","1","0","1","0.424388800049201","0.537496500066482","0.479952199966647","1","1","1","1","1","1","1","1","1"
"250063","img/neutralC/CFD-IM-638-250-1-N.jpg","img/neutralC/CFD-IM-727-195-N.jpg","img/neutralC/CFD-WM-227-099-N.jpg","1","1","1","1","1","1","0.479952199966647","0.424388800049201","0.491292800055817","1","1","1","1","1","1","1","1","1"
"250063","img/neutralC/CFD-WM-227-099-N.jpg","img/neutralC/CFD-IM-638-250-1-N.jpg","img/neutralC/CFD-BM-026-002-N.jpg","1","1","1","1","1","0","0.491292800055817","0.479952199966647","0.526621300028637","1","1","1","1","1","1","1","1","1"
"250063","img/neutralC/CFD-BM-026-002-N.jpg","img/neutralC/CFD-WM-227-099-N.jpg","img/neutralC/CFD-IF-620-218-N.jpg","1","1","1","0","1","0","0.526621300028637","0.491292800055817","0.54115340008866","1","1","1","1","1","1","1","1","1"
"250063","img/neutralC/CFD-IF-620-218-N.jpg","img/neutralC/CFD-BM-026-002-N.jpg","img/neutralC/CFD-IF-665-015-N.jpg","1","1","0","0","0","0","0.54115340008866","0.526621300028637","0.81006809999235","1","1","1","1","1","1","1","1","1"
"250063","img/neutralC/CFD-IF-665-015-N.jpg","img/neutralC/CFD-IF-620-218-N.jpg","img/neutralC/CFD-LM-226-175-N.jpg","0","1","1","0","0","0","0.81006809999235","0.54115340008866","0.517217200016603","1","1","1","1","1","1","1","1","1"
"250063","img/neutralC/CFD-LM-226-175-N.jpg","img/neutralC/CFD-IF-665-015-N.jpg","img/neutralC/CFD-WF-209-052-N.jpg","1","0","1","0","0","1","0.517217200016603","0.81006809999235","0.455824699951336","1","1","1","1","1","1","1","1","1"
"250063","img/neutralC/CFD-WF-209-052-N.jpg","img/neutralC/CFD-LM-226-175-N.jpg","img/neutralC/CFD-IM-617-174-N.jpg","1","1","1","1","0","0","0.455824699951336","0.517217200016603","0.587377900024876","1","1","1","1","1","1","1","1","1"
"250063","img/neutralC/CFD-IM-617-174-N.jpg","img/neutralC/CFD-WF-209-052-N.jpg","img/neutralC/CFD-BM-018-001-N.jpg","1","1","0","0","1","1","0.587377900024876","0.455824699951336","1.60454039997421","1","1","1","1","1","1","1","1","1"
"250063","img/neutralC/CFD-BM-018-001-N.jpg","img/neutralC/CFD-IM-617-174-N.jpg","img/neutralC/CFD-LM-233-171-N.jpg","0","1","1","1","0","0","1.60454039997421","0.587377900024876","0.572833099984564","1","1","1","1","1","1","1","1","1"
"250063","img/neutralC/CFD-LM-233-171-N.jpg","img/neutralC/CFD-BM-018-001-N.jpg","img/neutralC/CFD-IM-686-097-N.jpg","1","0","1","0","1","0","0.572833099984564","1.60454039997421","0.46827770001255","1","1","1","1","1","1","1","1","1"
"250063","img/neutralC/CFD-IM-686-097-N.jpg","img/neutralC/CFD-LM-233-171-N.jpg","img/neutralC/CFD-WM-258-125-N.jpg","1","1","0","0","0","0","0.46827770001255","0.572833099984564","0.502196899964474","1","1","1","1","1","1","1","1","2"
"250063","img/neutralC/CFD-WM-258-125-N.jpg","img/neutralC/CFD-IM-686-097-N.jpg","img/neutralC/CFD-LF-242-121-N.jpg","0","1","1","0","0","0","0.502196899964474","0.46827770001255","0.535425000009127","1","1","1","1","1","1","2","1","1"
"250063","img/neutralC/CFD-LF-242-121-N.jpg","img/neutralC/CFD-WM-258-125-N.jpg","img/neutralC/CFD-BM-005-003-N.jpg","1","0","1","0","0","1","0.535425000009127","0.502196899964474","0.500065900036134","1","1","1","1","1","1","1","2","1"
"250063","img/neutralC/CFD-BM-005-003-N.jpg","img/neutralC/CFD-LF-242-121-N.jpg","img/neutralC/CFD-BM-231-155-N.jpg","1","1","1","1","0","1","0.500065900036134","0.535425000009127","0.527102000080049","1","1","1","1","1","1","1","1","1"
"250063","img/neutralC/CFD-BM-231-155-N.jpg","img/neutralC/CFD-BM-005-003-N.jpg","img/neutralC/CFD-AF-241-141-N.jpg","1","1","1","1","1","1","0.527102000080049","0.500065900036134","0.491645499947481","1","1","1","1","1","1","1","1","1"
"250063","img/neutralC/CFD-AF-241-141-N.jpg","img/neutralC/CFD-BM-231-155-N.jpg","img/neutralC/CFD-WM-017-002-N.jpg","1","1","1","1","1","0","0.491645499947481","0.527102000080049","0.666740600019693","1","1","1","1","1","1","1","1","1"
"250063","img/neutralC/CFD-WM-017-002-N.jpg","img/neutralC/CFD-AF-241-141-N.jpg","img/neutralC/CFD-LF-245-166-N.jpg","1","1","1","0","1","1","0.666740600019693","0.491645499947481","0.512232200009748","1","1","1","1","1","1","1","1","1"
"250063","img/neutralC/CFD-LF-245-166-N.jpg","img/neutralC/CFD-WM-017-002-N.jpg","img/neutralC/CFD-LM-219-295-N.jpg","1","1","1","1","0","1","0.512232200009748","0.666740600019693","0.559548299992457","1","1","1","1","1","1","1","1","1"
"250063","img/neutralC/CFD-LM-219-295-N.jpg","img/neutralC/CFD-LF-245-166-N.jpg",NA,"1","1",NA,"1","1",NA,"0.559548299992457","0.512232200009748",NA,"1","1",NA,"1","1",NA,"1","1",NA
"250063","img/neutralC/CFD-WF-030-002-N.jpg",NA,"img/neutralC/CFD-LF-255-088-N.jpg","1",NA,"1","0",NA,"0","1.02348129998427",NA,"0.531995999976061","1",NA,"1","1",NA,"1","1",NA,"1"
"250063","img/neutralC/CFD-LF-255-088-N.jpg","img/neutralC/CFD-WF-030-002-N.jpg","img/neutralC/CFD-IM-706-002-N.jpg","1","1","1","0","0","0","0.531995999976061","1.02348129998427","0.602410700055771","1","1","1","1","1","1","1","1","1"
"250063","img/neutralC/CFD-IM-706-002-N.jpg","img/neutralC/CFD-LF-255-088-N.jpg","img/neutralC/CFD-MF-305-014-N.jpg","1","1","1","0","0","1","0.602410700055771","0.531995999976061","0.470604500034824","1","1","1","1","1","1","1","1","1"
"250063","img/neutralC/CFD-MF-305-014-N.jpg","img/neutralC/CFD-IM-706-002-N.jpg","img/neutralC/CFD-BM-001-014-N.jpg","1","1","0","1","0","0","0.470604500034824","0.602410700055771","0.548121599946171","1","1","1","1","1","1","1","1","1"
"250063","img/neutralC/CFD-BM-001-014-N.jpg","img/neutralC/CFD-MF-305-014-N.jpg","img/neutralC/CFD-BM-250-170-N.jpg","0","1","1","0","1","1","0.548121599946171","0.470604500034824","0.50596520002","1","1","1","1","1","1","1","1","1"
"250063","img/neutralC/CFD-BM-250-170-N.jpg","img/neutralC/CFD-BM-001-014-N.jpg","img/neutralC/CFD-WF-244-163-N.jpg","1","0","1","1","0","1","0.50596520002","0.548121599946171","0.504524999996647","1","1","1","1","1","1","1","1","1"
"250063","img/neutralC/CFD-WF-244-163-N.jpg","img/neutralC/CFD-BM-250-170-N.jpg","img/neutralC/CFD-WM-209-038-N.jpg","1","1","1","1","1","0","0.504524999996647","0.50596520002","0.55691519996617","1","1","1","1","1","1","1","1","1"
"250063","img/neutralC/CFD-WM-209-038-N.jpg","img/neutralC/CFD-WF-244-163-N.jpg","img/neutralC/CFD-AF-233-190-N.jpg","1","1","1","0","1","0","0.55691519996617","0.504524999996647","0.515877600060776","1","1","1","1","1","1","1","1","1"
"250063","img/neutralC/CFD-AF-233-190-N.jpg","img/neutralC/CFD-WM-209-038-N.jpg","img/neutralC/CFD-IM-680-369-N.jpg","1","1","1","0","0","1","0.515877600060776","0.55691519996617","0.530859800055623","1","1","1","1","1","1","1","1","1"
"250063","img/neutralC/CFD-IM-680-369-N.jpg","img/neutralC/CFD-AF-233-190-N.jpg","img/neutralC/CFD-MM-324-069-N.jpg","1","1","1","1","0","1","0.530859800055623","0.515877600060776","0.531120599946007","1","1","1","1","1","1","1","1","1"
"250063","img/neutralC/CFD-MM-324-069-N.jpg","img/neutralC/CFD-IM-680-369-N.jpg","img/neutralC/CFD-BF-237-172-N.jpg","1","1","1","1","1","1","0.531120599946007","0.530859800055623","0.676747400080785","1","1","1","1","1","1","1","1","1"
"250063","img/neutralC/CFD-BF-237-172-N.jpg","img/neutralC/CFD-MM-324-069-N.jpg","img/neutralC/CFD-LF-206-078-N.jpg","1","1","1","1","1","1","0.676747400080785","0.531120599946007","2.59206860000268","1","1","1","1","1","1","1","1","1"
"250063","img/neutralC/CFD-LF-206-078-N.jpg","img/neutralC/CFD-BF-237-172-N.jpg","img/neutralC/CFD-MF-316-001-N.jpg","1","1","1","1","1","0","2.59206860000268","0.676747400080785","0.592338500078768","1","1","1","1","1","1","1","1","1"
"250063","img/neutralC/CFD-MF-316-001-N.jpg","img/neutralC/CFD-LF-206-078-N.jpg","img/neutralC/CFD-IF-626-375-N.jpg","1","1","1","0","1","0","0.592338500078768","2.59206860000268","0.536658799974248","1","1","1","1","1","1","1","1","1"
"250063","img/neutralC/CFD-IF-626-375-N.jpg","img/neutralC/CFD-MF-316-001-N.jpg","img/neutralC/CFD-MF-343-001-N.jpg","1","1","1","0","0","1","0.536658799974248","0.592338500078768","0.448951300000772","1","1","1","1","1","1","1","1","1"
"250063","img/neutralC/CFD-MF-343-001-N.jpg","img/neutralC/CFD-IF-626-375-N.jpg","img/neutralC/CFD-BM-217-082-N.jpg","1","1","1","1","0","0","0.448951300000772","0.536658799974248","0.607316300040111","1","1","1","1","1","1","1","1","1"
"250063","img/neutralC/CFD-BM-217-082-N.jpg","img/neutralC/CFD-MF-343-001-N.jpg","img/neutralC/CFD-BF-014-002-N.jpg","1","1","1","0","1","1","0.607316300040111","0.448951300000772","0.475034700008109","1","1","1","1","1","1","1","1","1"
"250063","img/neutralC/CFD-BF-014-002-N.jpg","img/neutralC/CFD-BM-217-082-N.jpg","img/neutralC/CFD-WM-015-002-N.jpg","1","1","1","1","0","0","0.475034700008109","0.607316300040111","0.873008199967444","1","1","1","1","1","1","1","1","1"
"250063","img/neutralC/CFD-WM-015-002-N.jpg","img/neutralC/CFD-BF-014-002-N.jpg","img/neutralC/CFD-LM-200-045-N.jpg","1","1","1","0","1","1","0.873008199967444","0.475034700008109","0.774360300041735","1","1","1","1","1","1","1","1","1"
"250063","img/neutralC/CFD-LM-200-045-N.jpg","img/neutralC/CFD-WM-015-002-N.jpg","img/neutralC/CFD-LM-225-130-N.jpg","1","1","0","1","0","0","0.774360300041735","0.873008199967444","0.964882600004785","1","1","1","1","1","1","1","1","1"
"250063","img/neutralC/CFD-LM-225-130-N.jpg","img/neutralC/CFD-LM-200-045-N.jpg","img/neutralC/CFD-IM-702-101-N.jpg","0","1","1","0","1","1","0.964882600004785","0.774360300041735","0.49673139990773","1","1","1","1","1","1","1","1","1"
"250063","img/neutralC/CFD-IM-702-101-N.jpg","img/neutralC/CFD-LM-225-130-N.jpg","img/neutralC/CFD-AM-220-134-N.jpg","1","0","1","1","0","0","0.49673139990773","0.964882600004785","0.466802699957043","1","1","1","1","1","1","1","1","1"
"250063","img/neutralC/CFD-AM-220-134-N.jpg","img/neutralC/CFD-IM-702-101-N.jpg","img/neutralC/CFD-AF-253-130-N.jpg","1","1","1","0","1","1","0.466802699957043","0.49673139990773","0.467613100074232","1","1","1","1","1","1","1","1","1"
"250063","img/neutralC/CFD-AF-253-130-N.jpg","img/neutralC/CFD-AM-220-134-N.jpg","img/neutralC/CFD-IM-664-651-N.jpg","1","1","1","1","0","1","0.467613100074232","0.466802699957043","0.466959699988365","1","1","1","1","1","1","1","1","1"
"250063","img/neutralC/CFD-IM-664-651-N.jpg","img/neutralC/CFD-AF-253-130-N.jpg","img/neutralC/CFD-MF-357-002-N.jpg","1","1","1","1","1","0","0.466959699988365","0.467613100074232","0.669062400003895","1","1","1","1","1","1","1","1","1"
"250063","img/neutralC/CFD-MF-357-002-N.jpg","img/neutralC/CFD-IM-664-651-N.jpg","img/neutralC/CFD-WF-007-001-N.jpg","1","1","1","0","1","1","0.669062400003895","0.466959699988365","0.454349900013767","1","1","1","1","1","1","1","1","1"
"250063","img/neutralC/CFD-WF-007-001-N.jpg","img/neutralC/CFD-MF-357-002-N.jpg","img/neutralC/CFD-IF-660-464-N.jpg","1","1","1","1","0","0","0.454349900013767","0.669062400003895","0.703550399979576","1","1","1","1","1","1","1","1","1"
"250063","img/neutralC/CFD-IF-660-464-N.jpg","img/neutralC/CFD-WF-007-001-N.jpg","img/neutralC/CFD-MF-303-013-N.jpg","1","1","1","0","1","0","0.703550399979576","0.454349900013767","0.433707099989988","1","1","1","1","1","1","1","1","1"
"250063","img/neutralC/CFD-MF-303-013-N.jpg","img/neutralC/CFD-IF-660-464-N.jpg","img/neutralC/CFD-WM-218-074-N.jpg","1","1","1","0","0","1","0.433707099989988","0.703550399979576","0.515618899953552","1","1","1","1","1","1","1","1","1"
"250063","img/neutralC/CFD-WM-218-074-N.jpg","img/neutralC/CFD-MF-303-013-N.jpg","img/neutralC/CFD-IM-667-369-N.jpg","1","1","1","1","0","0","0.515618899953552","0.433707099989988","0.717332300031558","1","1","1","1","1","1","1","1","2"
"250063","img/neutralC/CFD-IM-667-369-N.jpg","img/neutralC/CFD-WM-218-074-N.jpg","img/neutralC/CFD-WF-222-092-N.jpg","1","1","1","0","1","1","0.717332300031558","0.515618899953552","0.541392500046641","1","1","1","1","1","1","2","1","1"
"250063","img/neutralC/CFD-WF-222-092-N.jpg","img/neutralC/CFD-IM-667-369-N.jpg",NA,"1","1",NA,"1","0",NA,"0.541392500046641","0.717332300031558",NA,"1","1",NA,"1","1",NA,"1","2",NA
"250063","img/neutralC/CFD-WM-023-001-N.jpg",NA,"img/neutralC/CFD-IM-697-015-N.jpg","1",NA,"1","0",NA,"1","0.977415600093082",NA,"0.802165000000969","1",NA,"1","1",NA,"1","1",NA,"1"
"250063","img/neutralC/CFD-IM-697-015-N.jpg","img/neutralC/CFD-WM-023-001-N.jpg","img/neutralC/CFD-WF-207-014-N.jpg","1","1","1","1","0","1","0.802165000000969","0.977415600093082","0.654873899999075","1","1","1","1","1","1","1","1","1"
"250063","img/neutralC/CFD-WF-207-014-N.jpg","img/neutralC/CFD-IM-697-015-N.jpg","img/neutralC/CFD-BF-244-231-N.jpg","1","1","1","1","1","1","0.654873899999075","0.802165000000969","0.574710399960168","1","1","1","1","1","1","1","1","1"
"250063","img/neutralC/CFD-BF-244-231-N.jpg","img/neutralC/CFD-WF-207-014-N.jpg","img/neutralC/CFD-BF-012-001-N.jpg","1","1","1","1","1","0","0.574710399960168","0.654873899999075","0.900813300046138","1","1","1","1","1","1","1","1","1"
"250063","img/neutralC/CFD-BF-012-001-N.jpg","img/neutralC/CFD-BF-244-231-N.jpg","img/neutralC/CFD-AM-243-212-N.jpg","1","1","1","0","1","1","0.900813300046138","0.574710399960168","0.70244750007987","1","1","1","1","1","1","1","1","1"
"250063","img/neutralC/CFD-AM-243-212-N.jpg","img/neutralC/CFD-BF-012-001-N.jpg","img/neutralC/CFD-LF-222-147-N.jpg","1","1","0","1","0","0","0.70244750007987","0.900813300046138","1.0569550000364","1","1","1","1","1","1","1","1","1"
"250063","img/neutralC/CFD-LF-222-147-N.jpg","img/neutralC/CFD-AM-243-212-N.jpg","img/neutralC/CFD-WF-241-210-N.jpg","0","1","0","0","1","0","1.0569550000364","0.70244750007987","0.924284599954262","1","1","1","1","1","1","1","1","1"
"250063","img/neutralC/CFD-WF-241-210-N.jpg","img/neutralC/CFD-LF-222-147-N.jpg","img/neutralC/CFD-MM-306-010-N.jpg","0","0","1","0","0","0","0.924284599954262","1.0569550000364","0.854600199963897","1","1","1","1","1","1","1","1","1"
"250063","img/neutralC/CFD-MM-306-010-N.jpg","img/neutralC/CFD-WF-241-210-N.jpg","img/neutralC/CFD-BM-030-003-N.jpg","1","0","1","0","0","0","0.854600199963897","0.924284599954262","0.638552000047639","1","1","1","1","1","1","1","1","1"
"250063","img/neutralC/CFD-BM-030-003-N.jpg","img/neutralC/CFD-MM-306-010-N.jpg","img/neutralC/CFD-LF-238-154-N.jpg","1","1","1","0","0","1","0.638552000047639","0.854600199963897","0.491119800019078","1","1","1","1","1","1","1","1","2"
"250063","img/neutralC/CFD-LF-238-154-N.jpg","img/neutralC/CFD-BM-030-003-N.jpg","img/neutralC/CFD-AM-249-163-N.jpg","1","1","1","1","0","1","0.491119800019078","0.638552000047639","0.52718190010637","1","1","1","1","1","1","2","1","1"
"250063","img/neutralC/CFD-AM-249-163-N.jpg","img/neutralC/CFD-LF-238-154-N.jpg","img/neutralC/CFD-BM-043-071-N.jpg","1","1","1","1","1","0","0.52718190010637","0.491119800019078","0.573634100030176","1","1","1","1","1","1","1","2","1"
"250063","img/neutralC/CFD-BM-043-071-N.jpg","img/neutralC/CFD-AM-249-163-N.jpg","img/neutralC/CFD-LF-212-066-N.jpg","1","1","1","0","1","1","0.573634100030176","0.52718190010637","0.547761599998921","1","1","1","1","1","1","1","1","1"
"250063","img/neutralC/CFD-LF-212-066-N.jpg","img/neutralC/CFD-BM-043-071-N.jpg","img/neutralC/CFD-BM-227-191-N.jpg","1","1","1","1","0","1","0.547761599998921","0.573634100030176","0.520369700039737","1","1","1","1","1","1","1","1","1"
"250063","img/neutralC/CFD-BM-227-191-N.jpg","img/neutralC/CFD-LF-212-066-N.jpg","img/neutralC/CFD-WF-221-005-N.jpg","1","1","0","1","1","0","0.520369700039737","0.547761599998921","0.482235500006936","1","1","1","1","1","1","1","1","2"
"250063","img/neutralC/CFD-WF-221-005-N.jpg","img/neutralC/CFD-BM-227-191-N.jpg","img/neutralC/CFD-BM-020-001-N.jpg","0","1","0","0","1","0","0.482235500006936","0.520369700039737","0.889798500109464","1","1","1","1","1","1","2","1","1"
"250063","img/neutralC/CFD-BM-020-001-N.jpg","img/neutralC/CFD-WF-221-005-N.jpg","img/neutralC/CFD-IF-676-017-N.jpg","0","0","1","0","0","1","0.889798500109464","0.482235500006936","0.523434500093572","1","1","1","1","1","1","1","2","1"
"250063","img/neutralC/CFD-IF-676-017-N.jpg","img/neutralC/CFD-BM-020-001-N.jpg","img/neutralC/CFD-MF-328-020-N.jpg","1","0","1","1","0","0","0.523434500093572","0.889798500109464","0.52138360007666","1","1","1","1","1","1","1","1","1"
"250063","img/neutralC/CFD-MF-328-020-N.jpg","img/neutralC/CFD-IF-676-017-N.jpg","img/neutralC/CFD-AM-205-153-N.jpg","1","1","1","0","1","1","0.52138360007666","0.523434500093572","0.870833300054073","1","1","1","1","1","1","1","1","1"
"250063","img/neutralC/CFD-AM-205-153-N.jpg","img/neutralC/CFD-MF-328-020-N.jpg","img/neutralC/CFD-LM-240-013-N.jpg","1","1","1","1","0","1","0.870833300054073","0.52138360007666","0.785524100065231","1","1","1","1","1","1","1","1","1"
"250063","img/neutralC/CFD-LM-240-013-N.jpg","img/neutralC/CFD-AM-205-153-N.jpg","img/neutralC/CFD-WF-243-148-N.jpg","1","1","1","1","1","0","0.785524100065231","0.870833300054073","0.651712200022303","1","1","1","1","1","1","1","1","1"
"250063","img/neutralC/CFD-WF-243-148-N.jpg","img/neutralC/CFD-LM-240-013-N.jpg","img/neutralC/CFD-AM-219-101-N.jpg","1","1","0","0","1","0","0.651712200022303","0.785524100065231","1.84230430005118","1","1","1","1","1","1","1","1","1"
"250063","img/neutralC/CFD-AM-219-101-N.jpg","img/neutralC/CFD-WF-243-148-N.jpg","img/neutralC/CFD-BM-021-021-N.jpg","0","1","1","0","0","1","1.84230430005118","0.651712200022303","0.707397300051525","1","1","1","1","1","1","1","1","1"
"250063","img/neutralC/CFD-BM-021-021-N.jpg","img/neutralC/CFD-AM-219-101-N.jpg","img/neutralC/CFD-WM-025-002-N.jpg","1","0","1","1","0","0","0.707397300051525","1.84230430005118","0.754746000049636","1","1","1","1","1","1","1","1","1"
"250063","img/neutralC/CFD-WM-025-002-N.jpg","img/neutralC/CFD-BM-021-021-N.jpg","img/neutralC/CFD-BM-009-002-N.jpg","1","1","1","0","1","1","0.754746000049636","0.707397300051525","0.798853500047699","1","1","1","1","1","1","1","1","1"
"250063","img/neutralC/CFD-BM-009-002-N.jpg","img/neutralC/CFD-WM-025-002-N.jpg","img/neutralC/CFD-IM-689-263-N.jpg","1","1","1","1","0","1","0.798853500047699","0.754746000049636","0.842630399973132","1","1","1","1","1","1","1","1","1"
"250063","img/neutralC/CFD-IM-689-263-N.jpg","img/neutralC/CFD-BM-009-002-N.jpg","img/neutralC/CFD-WF-009-001-N.jpg","1","1","1","1","1","1","0.842630399973132","0.798853500047699","0.536909000016749","1","1","1","1","1","1","1","1","1"
"250063","img/neutralC/CFD-WF-009-001-N.jpg","img/neutralC/CFD-IM-689-263-N.jpg","img/neutralC/CFD-IM-606-008-N.jpg","1","1","1","1","1","0","0.536909000016749","0.842630399973132","0.514745200052857","1","1","1","1","1","1","1","1","1"
"250063","img/neutralC/CFD-IM-606-008-N.jpg","img/neutralC/CFD-WF-009-001-N.jpg","img/neutralC/CFD-IM-615-167-N.jpg","1","1","1","0","1","0","0.514745200052857","0.536909000016749","0.575839199940674","1","1","1","1","1","1","1","1","1"
"250063","img/neutralC/CFD-IM-615-167-N.jpg","img/neutralC/CFD-IM-606-008-N.jpg","img/neutralC/CFD-AF-237-223-N.jpg","1","1","1","0","0","0","0.575839199940674","0.514745200052857","0.554627900011837","1","1","1","1","1","1","1","1","1"
"250063","img/neutralC/CFD-AF-237-223-N.jpg","img/neutralC/CFD-IM-615-167-N.jpg","img/neutralC/CFD-WM-028-003-N.jpg","1","1","1","0","0","1","0.554627900011837","0.575839199940674","0.517072300077416","1","1","1","1","1","1","1","1","1"
"250063","img/neutralC/CFD-WM-028-003-N.jpg","img/neutralC/CFD-AF-237-223-N.jpg",NA,"1","1",NA,"1","0",NA,"0.517072300077416","0.554627900011837",NA,"1","1",NA,"1","1",NA,"1","1",NA
