"participant_id","face","surpAcc","memory_surp_responses","memory_surp_rt","keep_surp_memory_trial_based_on_rt","surp_block_num","exclude_block","number_of_surp_resp_items_used","num_blocks_excluded"
"250020","img/neutralC/CFD-AF-240-206-N.jpg","1","s","1.5642111999914",1,1,0,2,0
"250020","img/neutralC/CFD-MF-340-026-N.jpg","1","k","2.05066290000104",1,1,0,2,0
"250020","img/neutralC/CFD-AF-205-155-N.jpg","0","k","1.59974149998743",1,1,0,2,0
"250020","img/neutralC/CFD-IF-625-225-N.jpg","0","k","0.595263399998657",1,1,0,2,0
"250020","img/neutralC/CFD-BM-029-024-N.jpg","1","k","0.701204900018638",1,1,0,2,0
"250020","img/neutralC/CFD-IF-642-295-N.jpg","1","s","2.48678519998793",1,1,0,2,0
"250020","img/neutralC/CFD-WF-207-014-N.jpg","0","s","1.6636487999931",1,1,0,2,0
"250020","img/neutralC/CFD-BF-202-109-N.jpg","1","s","1.38787959999172",1,1,0,2,0
"250020","img/neutralC/CFD-BF-041-001-N.jpg","1","k","0.837252800003625",1,1,0,2,0
"250020","img/neutralC/CFD-IM-743-006-N.jpg","1","k","1.88570149999578",1,1,0,2,0
"250020","img/neutralC/CFD-AF-233-190-N.jpg","0","k","2.12414229998831",1,1,0,2,0
"250020","img/neutralC/CFD-BM-027-001-N.jpg","0","s","1.1647013000038",1,1,0,2,0
"250020","img/neutralC/CFD-WF-243-148-N.jpg","0","s","0.98394730000291",1,1,0,2,0
"250020","img/neutralC/CFD-WF-005-010-N.jpg","1","k","0.880787399975816",1,1,0,2,0
"250020","img/neutralC/CFD-IM-638-250-1-N.jpg","1","s","1.48308610002277",1,1,0,2,0
"250020","img/neutralC/CFD-BF-014-002-N.jpg","0","s","1.37385309999809",1,1,0,2,0
"250020","img/neutralC/CFD-BM-010-003-N.jpg","1","s","1.20721199997934",1,1,0,2,0
"250020","img/neutralC/CFD-WF-224-099-N.jpg","0","s","1.01117319997866",1,1,0,2,0
"250020","img/neutralC/CFD-LF-239-148-N.jpg","0","k","3.96735590000753",1,1,0,2,0
"250020","img/neutralC/CFD-LF-242-121-N.jpg","0","s","1.72161150001921",1,1,0,2,0
"250020","img/neutralC/CFD-MF-328-020-N.jpg","1","k","1.01530609998736",1,1,0,2,0
"250020","img/neutralC/CFD-AM-236-090-N.jpg","1","s","0.978616299980786",1,1,0,2,0
"250020","img/neutralC/CFD-WF-245-084-N.jpg","1","k","1.15474030000041",1,1,0,2,0
"250020","img/neutralC/CFD-IM-635-010-N.jpg","1","s","1.10009859999991",1,1,0,2,0
"250020","img/neutralC/CFD-BF-201-080-N.jpg","0","k","1.68965340001159",1,1,0,2,0
"250020","img/neutralC/CFD-WF-027-003-N.jpg","0","s","1.09003750002012",1,1,0,2,0
"250020","img/neutralC/CFD-BF-236-177-N.jpg","0","s","1.49828629998956",1,1,0,2,0
"250020","img/neutralC/CFD-LM-252-076-N.jpg","1","s","1.30430909999995",1,1,0,2,0
"250020","img/neutralC/CFD-WM-249-239-N.jpg","1","k","1.34562360000564",1,1,0,2,0
"250020","img/neutralC/CFD-LF-211-003-N.jpg","0","k","1.88423779999721",1,1,0,2,0
"250020","img/neutralC/CFD-WF-221-005-N.jpg","0","k","1.15843320000567",1,1,0,2,0
"250020","img/neutralC/CFD-IM-606-008-N.jpg","1","s","1.02670179997222",1,1,0,2,0
"250020","img/neutralC/CFD-LF-203-066-N.jpg","1","s","1.60158399998909",1,1,0,2,0
"250020","img/neutralC/CFD-WF-228-196-N.jpg","0","s","1.03035899999668",1,1,0,2,0
"250020","img/neutralC/CFD-WM-021-001-N.jpg","0","k","1.28349980001803",1,1,0,2,0
"250020","img/neutralC/CFD-WF-029-002-N.jpg","0","k","1.28839349999907",1,1,0,2,0
"250020","img/neutralC/CFD-BF-207-004-N.jpg","1","s","1.24491020001005",1,1,0,2,0
"250020","img/neutralC/CFD-AM-220-134-N.jpg","0","k","0.905675399990287",1,1,0,2,0
"250020","img/neutralC/CFD-MF-336-016-N.jpg","1","s","1.42863319997559",1,1,0,2,0
"250020","img/neutralC/CFD-BF-217-189-N.jpg","0","s","1.01458200000343",1,1,0,2,0
"250020","img/neutralC/CFD-WM-221-091-N.jpg","0","k","4.89369630001602",1,1,0,2,0
"250020","img/neutralC/CFD-AF-254-167-N.jpg","0","s","0.75581920001423",1,1,0,2,0
"250020","img/neutralC/CFD-AM-221-184-N.jpg","0","k","1.12134579999838",1,1,0,2,0
"250020","img/neutralC/CFD-BF-237-172-N.jpg","1","k","0.791133099992294",1,1,0,2,0
"250020","img/neutralC/CFD-WF-002-004-N.jpg","0","s","0.78644679998979",1,1,0,2,0
"250020","img/neutralC/CFD-IM-684-008-N.jpg","1","k","0.659801800007699",1,1,0,2,0
"250020","img/neutralC/CFD-LM-244-068-N.jpg","1","k","1.00281320000067",1,1,0,2,0
"250020","img/neutralC/CFD-WM-225-127-N.jpg","1","s","1.04777319999994",1,1,0,2,0
"250020","img/neutralC/CFD-BM-013-002-N.jpg","0","s","1.28189260000363",1,2,0,2,0
"250020","img/neutralC/CFD-BM-250-170-N.jpg","0","s","2.00573969999095",1,2,0,2,0
"250020","img/neutralC/CFD-AM-245-111-N.jpg","0","k","1.01328549999744",1,2,0,2,0
"250020","img/neutralC/CFD-WF-209-052-N.jpg","0","s","1.00429620000068",1,2,0,2,0
"250020","img/neutralC/CFD-AM-230-150-N.jpg","1","s","0.880246100015938",1,2,0,2,0
"250020","img/neutralC/CFD-LF-214-090-N.jpg","1","k","1.18016940000234",1,2,0,2,0
"250020","img/neutralC/CFD-WM-024-015-N.jpg","0","k","2.90775380001287",1,2,0,2,0
"250020","img/neutralC/CFD-WF-006-002-N.jpg","0","k","1.2452044999809",1,2,0,2,0
"250020","img/neutralC/CFD-BF-232-187-N.jpg","0","s","0.677449399983743",1,2,0,2,0
"250020","img/neutralC/CFD-AF-221-147-N.jpg","0","s","1.00814510000055",1,2,0,2,0
"250020","img/neutralC/CFD-BF-020-002-N.jpg","0","k","1.63511740000104",1,2,0,2,0
"250020","img/neutralC/CFD-WF-226-095-N.jpg","0","s","2.08662690001074",1,2,0,2,0
"250020","img/neutralC/CFD-WM-253-119-N.jpg","0","k","0.995159599988256",1,2,0,2,0
"250020","img/neutralC/CFD-LF-208-127-N.jpg","0","s","1.06373850000091",1,2,0,2,0
"250020","img/neutralC/CFD-BF-226-119-N.jpg","1","k","0.861209700000472",1,2,0,2,0
"250020","img/neutralC/CFD-BM-247-240-N.jpg","1","k","0.771823399991263",1,2,0,2,0
"250020","img/neutralC/CFD-AM-235-241-N.jpg","1","s","0.880661999981385",1,2,0,2,0
"250020","img/neutralC/CFD-BF-039-031-N.jpg","0","k","0.720547700009774",1,2,0,2,0
"250020","img/neutralC/CFD-WF-238-023-N.jpg","0","k","0.788264100003289",1,2,0,2,0
"250020","img/neutralC/CFD-LM-200-045-N.jpg","1","s","1.11299500000314",1,2,0,2,0
"250020","img/neutralC/CFD-IM-696-001-N.jpg","1","k","0.862156599992886",1,2,0,2,0
"250020","img/neutralC/CFD-IM-703-182-N.jpg","1","k","0.657456399989314",1,2,0,2,0
"250020","img/neutralC/CFD-MF-301-024-N.jpg","0","s","0.916490200004773",1,2,0,2,0
"250020","img/neutralC/CFD-LM-226-175-N.jpg","0","k","1.76248390000546",1,2,0,2,0
"250020","img/neutralC/CFD-MF-318-022-N.jpg","1","s","1.10057609999785",1,2,0,2,0
"250020","img/neutralC/CFD-AM-247-165-N.jpg","0","k","1.00438280001981",1,2,0,2,0
"250020","img/neutralC/CFD-LM-219-295-N.jpg","0","k","2.20034869998926",1,2,0,2,0
"250020","img/neutralC/CFD-LM-243-075-N.jpg","1","k","0.956212199991569",1,2,0,2,0
"250020","img/neutralC/CFD-AF-237-223-N.jpg","1","k","1.18114349999814",1,2,0,2,0
"250020","img/neutralC/CFD-LF-212-066-N.jpg","0","k","0.913490299979458",1,2,0,2,0
"250020","img/neutralC/CFD-WM-006-002-N.jpg","0","k","0.892749099992216",1,2,0,2,0
"250020","img/neutralC/CFD-AF-229-160-N.jpg","1","s","1.3971748999902",1,2,0,2,0
"250020","img/neutralC/CFD-WF-007-001-N.jpg","0","k","0.969870300003095",1,2,0,2,0
"250020","img/neutralC/CFD-BM-018-001-N.jpg","1","k","2.31370679999236",1,2,0,2,0
"250020","img/neutralC/CFD-BM-001-014-N.jpg","1","s","0.895088299992494",1,2,0,2,0
"250020","img/neutralC/CFD-AF-215-70-N.jpg","1","k","1.09583349997411",1,2,0,2,0
"250020","img/neutralC/CFD-LM-218-183-N.jpg","0","k","0.859381799993571",1,2,0,2,0
"250020","img/neutralC/CFD-BF-212-315-N.jpg","0","k","1.95955489997868",1,2,0,2,0
"250020","img/neutralC/CFD-BF-028-001-N.jpg","1","k","1.10950839999714",1,2,0,2,0
"250020","img/neutralC/CFD-BF-010-001-N.jpg","0","s","1.43917710002279",1,2,0,2,0
"250020","img/neutralC/CFD-WF-235-121-N.jpg","0","s","0.951184499979718",1,2,0,2,0
"250020","img/neutralC/CFD-BF-002-001-N.jpg","0","k","0.928526399977272",1,2,0,2,0
"250020","img/neutralC/CFD-IM-675-015-N.jpg","0","k","1.56476179999299",1,2,0,2,0
"250020","img/neutralC/CFD-MF-309-002-N.jpg","1","s","2.57309010002064",1,2,0,2,0
"250020","img/neutralC/CFD-MF-335-002-N.jpg","1","k","0.863116499996977",1,2,0,2,0
"250020","img/neutralC/CFD-LF-222-147-N.jpg","1","k","0.700042200012831",1,2,0,2,0
"250020","img/neutralC/CFD-WM-018-002-N.jpg","0","s","0.844088499987265",1,2,0,2,0
"250020","img/neutralC/CFD-LM-238-129-N.jpg","0","s","0.776663199998438",1,2,0,2,0
"250020","img/neutralC/CFD-MF-302-027-N.jpg","0","s","1.03924549999647",1,3,0,2,0
"250020","img/neutralC/CFD-BF-253-202-N.jpg","1","k","0.672683700016933",1,3,0,2,0
"250020","img/neutralC/CFD-BM-019-002-N.jpg","1","k","0.574117199983448",1,3,0,2,0
"250020","img/neutralC/CFD-LF-238-154-N.jpg","1","s","0.874201099999482",1,3,0,2,0
"250020","img/neutralC/CFD-LF-247-051-N.jpg","1","k","0.789800400001695",1,3,0,2,0
"250020","img/neutralC/CFD-IF-620-218-N.jpg","1","s","3.57399949998944",1,3,0,2,0
"250020","img/neutralC/CFD-IM-702-101-N.jpg","1","k","0.955872200021986",1,3,0,2,0
"250020","img/neutralC/CFD-IM-646-023-N.jpg","1","k","1.25362030000542",1,3,0,2,0
"250020","img/neutralC/CFD-BF-222-240-N.jpg","0","s","0.934914399986155",1,3,0,2,0
"250020","img/neutralC/CFD-LM-233-171-N.jpg","0","s","1.71677239998826",1,3,0,2,0
"250020","img/neutralC/CFD-IF-676-017-N.jpg","1","k","1.49594299998716",1,3,0,2,0
"250020","img/neutralC/CFD-MF-337-026-N.jpg","0","s","1.4173310000042",1,3,0,2,0
"250020","img/neutralC/CFD-LF-218-072-N.jpg","0","k","2.49881409999216",1,3,0,2,0
"250020","img/neutralC/CFD-WF-222-092-N.jpg","0","k","0.675585699995281",1,3,0,2,0
"250020","img/neutralC/CFD-IM-616-214-N.jpg","1","s","0.543342099990696",1,3,0,2,0
"250020","img/neutralC/CFD-BM-243-218-N.jpg","0","k","0.807185699988622",1,3,0,2,0
"250020","img/neutralC/CFD-WF-241-210-N.jpg","1","k","0.771467699989444",1,3,0,2,0
"250020","img/neutralC/CFD-AF-202-122-N.jpg","1","s","0.952306199993472",1,3,0,2,0
"250020","img/neutralC/CFD-LF-230-203-N.jpg","1","k","0.947535799990874",1,3,0,2,0
"250020","img/neutralC/CFD-BF-042-026-N.jpg","1","s","0.83216540000285",1,3,0,2,0
"250020","img/neutralC/CFD-WM-002-009-N.jpg","0","s","0.834066999988863",1,3,0,2,0
"250020","img/neutralC/CFD-BF-006-017-N.jpg","0","k","0.780800399981672",1,3,0,2,0
"250020","img/neutralC/CFD-WM-041-021-N.jpg","0","k","1.07255630000145",1,3,0,2,0
"250020","img/neutralC/CFD-IM-615-167-N.jpg","0","s","0.83191359997727",1,3,0,2,0
"250020","img/neutralC/CFD-MF-343-001-N.jpg","0","k","0.839887499983888",1,3,0,2,0
"250020","img/neutralC/CFD-LM-215-247-N.jpg","0","k","0.747473600000376",1,3,0,2,0
"250020","img/neutralC/CFD-WF-223-133-N.jpg","0","k","0.718885599984787",1,3,0,2,0
"250020","img/neutralC/CFD-BM-215-155-N.jpg","1","k","1.30347810001695",1,3,0,2,0
"250020","img/neutralC/CFD-BF-214-308-N.jpg","1","k","0.734320399991702",1,3,0,2,0
"250020","img/neutralC/CFD-AF-206-079-N.jpg","0","k","0.720226799981901",1,3,0,2,0
"250020","img/neutralC/CFD-IF-629-234-N.jpg","0","k","0.607219900004566",1,3,0,2,0
"250020","img/neutralC/CFD-LF-210-220-N.jpg","1","k","0.71033780000289",1,3,0,2,0
"250020","img/neutralC/CFD-LM-214-165-N.jpg","1","k","0.9739398000238",1,3,0,2,0
"250020","img/neutralC/CFD-IM-637-007-N.jpg","0","k","0.953559899993706",1,3,0,2,0
"250020","img/neutralC/CFD-AM-244-222-N.jpg","1","k","1.07592919998569",1,3,0,2,0
"250020","img/neutralC/CFD-LM-253-075-N.jpg","0","k","0.907417000009446",1,3,0,2,0
"250020","img/neutralC/CFD-IM-697-015-N.jpg","1","k","0.815247699996689",1,3,0,2,0
"250020","img/neutralC/CFD-LF-236-221-N.jpg","1","k","0.932681400008732",1,3,0,2,0
"250020","img/neutralC/CFD-WM-237-052-N.jpg","1","k","0.86456850002287",1,3,0,2,0
"250020","img/neutralC/CFD-BM-225-154-N.jpg","1","k","0.800863000011304",1,3,0,2,0
"250020","img/neutralC/CFD-IF-608-390-N.jpg","0","s","0.93071900002542",1,3,0,2,0
"250020","img/neutralC/CFD-IM-604-014-N.jpg","1","k","0.994777599989902",1,3,0,2,0
"250020","img/neutralC/CFD-WF-018-017-N.jpg","1","s","1.12544979999075",1,3,0,2,0
"250020","img/neutralC/CFD-BM-241-235-N.jpg","1","s","0.696508099994389",1,3,0,2,0
"250020","img/neutralC/CFD-LF-250-169-N.jpg","1","s","0.804388399992604",1,3,0,2,0
"250020","img/neutralC/CFD-IM-719-221-N.jpg","1","s","0.780392299988307",1,3,0,2,0
"250020","img/neutralC/CFD-BM-021-021-N.jpg","1","s","0.950061799987452",1,3,0,2,0
"250020","img/neutralC/CFD-BF-254-201-N.jpg","1","k","1.05641609997838",1,3,0,2,0
"250020","img/neutralC/CFD-IM-727-195-N.jpg","0","s","0.831612199981464",1,4,0,2,0
"250020","img/neutralC/CFD-AM-249-163-N.jpg","0","k","0.676844900008291",1,4,0,2,0
"250020","img/neutralC/CFD-WF-012-002-N.jpg","1","s","0.577343599987216",1,4,0,2,0
"250020","img/neutralC/CFD-MF-316-001-N.jpg","1","k","0.457561899995198",1,4,0,2,0
"250020","img/neutralC/CFD-MF-303-013-N.jpg","0","s","0.922810099989874",1,4,0,2,0
"250020","img/neutralC/CFD-MF-312-002-N.jpg","1","s","0.668495599995367",1,4,0,2,0
"250020","img/neutralC/CFD-BF-213-188-N.jpg","1","s","0.881373500014888",1,4,0,2,0
"250020","img/neutralC/CFD-BM-200-046-N.jpg","0","s","0.675665299990214",1,4,0,2,0
"250020","img/neutralC/CFD-WM-257-161-N.jpg","0","s","0.710330500005512",1,4,0,2,0
"250020","img/neutralC/CFD-IM-685-004-N.jpg","1","k","0.62044440000318",1,4,0,2,0
"250020","img/neutralC/CFD-IF-650-315-N.jpg","0","s","0.641402899986133",1,4,0,2,0
"250020","img/neutralC/CFD-AF-241-141-N.jpg","0","s","0.902531700005056",1,4,0,2,0
"250020","img/neutralC/CFD-BM-204-003-N.jpg","1","k","0.557911699987017",1,4,0,2,0
"250020","img/neutralC/CFD-IM-706-002-N.jpg","0","s","0.75987070001429",1,4,0,2,0
"250020","img/neutralC/CFD-WF-009-001-N.jpg","0","k","0.663945099979173",1,4,0,2,0
"250020","img/neutralC/CFD-IM-653-008-N.jpg","0","s","0.722315399994841",1,4,0,2,0
"250020","img/neutralC/CFD-WM-026-001-N.jpg","0","s","0.657612799986964",1,4,0,2,0
"250020","img/neutralC/CFD-AF-210-050-N.jpg","1","s","0.619128599995747",1,4,0,2,0
"250020","img/neutralC/CFD-BF-029-031-N.jpg","0","s","0.632389000005787",1,4,0,2,0
"250020","img/neutralC/CFD-AM-205-153-N.jpg","0","s","0.771660300000804",1,4,0,2,0
"250020","img/neutralC/CFD-AM-201-076-N.jpg","0","s","1.02351180001278",1,4,0,2,0
"250020","img/neutralC/CFD-BM-212-117-N.jpg","0","s","0.538905499997782",1,4,0,2,0
"250020","img/neutralC/CFD-MF-357-002-N.jpg","0","k","0.744046999985585",1,4,0,2,0
"250020","img/neutralC/CFD-MF-342-022-N.jpg","1","s","0.655097100010607",1,4,0,2,0
"250020","img/neutralC/CFD-IM-709-103-N.jpg","0","s","0.913422499987064",1,4,0,2,0
"250020","img/neutralC/CFD-BM-211-174-N.jpg","0","k","1.3110457000148",1,4,0,2,0
"250020","img/neutralC/CFD-BF-224-002-N.jpg","1","s","0.93415349998395",1,4,0,2,0
"250020","img/neutralC/CFD-MF-327-002-N.jpg","0","k","0.594724599999608",1,4,0,2,0
"250020","img/neutralC/CFD-BM-033-003-N.jpg","1","k","0.687965799996164",1,4,0,2,0
"250020","img/neutralC/CFD-BF-206-143-N.jpg","1","k","0.634791899996344",1,4,0,2,0
"250020","img/neutralC/CFD-LF-220-120-N.jpg","0","k","0.45820900000399",1,4,0,2,0
"250020","img/neutralC/CFD-LF-205-100-N.jpg","1","k","0.430041300016455",1,4,0,2,0
"250020","img/neutralC/CFD-WF-214-122-N.jpg","0","k","0.552161100000376",1,4,0,2,0
"250020","img/neutralC/CFD-IM-721-341-N.jpg","1","k","0.62096329999622",1,4,0,2,0
"250020","img/neutralC/CFD-WF-210-086-N.jpg","1","k","0.343126700026914",1,4,0,2,0
"250020","img/neutralC/CFD-AM-243-212-N.jpg","1","k","0.547013800009154",1,4,0,2,0
"250020","img/neutralC/CFD-IF-742-103-N.jpg","1","k","0.72499830002198",1,4,0,2,0
"250020","img/neutralC/CFD-LF-226-174-N.jpg","1","k","0.557494799984852",1,4,0,2,0
"250020","img/neutralC/CFD-WM-040-022-N.jpg","0","k","0.825146600021981",1,4,0,2,0
"250020","img/neutralC/CFD-MF-329-001-N.jpg","1","k","0.595912399992812",1,4,0,2,0
"250020","img/neutralC/CFD-LM-225-130-N.jpg","1","k","0.649924999976065",1,4,0,2,0
"250020","img/neutralC/CFD-WF-248-129-N.jpg","0","s","0.935769300005632",1,4,0,2,0
"250020","img/neutralC/CFD-IF-732-260-N.jpg","0","s","0.67707390000578",1,4,0,2,0
"250020","img/neutralC/CFD-WM-232-070-N.jpg","0","s","0.590224600018701",1,4,0,2,0
"250020","img/neutralC/CFD-IF-729-393-N.jpg","0","s","0.774833699979354",1,4,0,2,0
"250020","img/neutralC/CFD-WM-025-002-N.jpg","0","k","0.585223800007952",1,4,0,2,0
"250020","img/neutralC/CFD-IM-648-337-N.jpg","1","k","0.722474200010765",1,4,0,2,0
"250020","img/neutralC/CFD-BM-248-128-N.jpg","1","k","0.91833359998418",1,4,0,2,0
"250020","img/neutralC/CFD-LF-206-078-N.jpg","0","k","0.89299610001035",1,5,0,2,0
"250020","img/neutralC/CFD-AF-227-207-N.jpg","1","s","0.784132200002205",1,5,0,2,0
"250020","img/neutralC/CFD-BF-027-002-N.jpg","1","k","0.578118299978087",1,5,0,2,0
"250020","img/neutralC/CFD-BF-238-190-N.jpg","0","s","0.559104400017532",1,5,0,2,0
"250020","img/neutralC/CFD-BF-208-266-N.jpg","0","k","0.472953499993309",1,5,0,2,0
"250020","img/neutralC/CFD-BF-038-037-N.jpg","0","k","0.562062100012554",1,5,0,2,0
"250020","img/neutralC/CFD-MM-321-021-N.jpg","0","k","0.672156399989035",1,5,0,2,0
"250020","img/neutralC/CFD-MM-316-156-N.jpg","0","k","0.783907400007593",1,5,0,2,0
"250020","img/neutralC/CFD-IM-680-369-N.jpg","0","k","0.739366499998141",1,5,0,2,0
"250020","img/neutralC/CFD-WM-254-152-N.jpg","1","s","0.721276600001147",1,5,0,2,0
"250020","img/neutralC/CFD-AM-212-050-N.jpg","0","k","0.813274299987825",1,5,0,2,0
"250020","img/neutralC/CFD-AF-213-126-N.jpg","0","s","0.884451400022954",1,5,0,2,0
"250020","img/neutralC/CFD-BF-255-140-N.jpg","1","s","1.16843469999731",1,5,0,2,0
"250020","img/neutralC/CFD-IM-659-359-N.jpg","0","s","1.05015060000005",1,5,0,2,0
"250020","img/neutralC/CFD-IF-677-452-1-N.jpg","0","k","1.05986799998209",1,5,0,2,0
"250020","img/neutralC/CFD-AF-244-168-N.jpg","1","k","0.725387199985562",1,5,0,2,0
"250020","img/neutralC/CFD-IM-639-263-N.jpg","1","s","0.845067599992035",1,5,0,2,0
"250020","img/neutralC/CFD-BF-003-003-N.jpg","1","k","0.972747499996331",1,5,0,2,0
"250020","img/neutralC/CFD-IF-673-389-N.jpg","1","k","0.768641599977855",1,5,0,2,0
"250020","img/neutralC/CFD-AF-232-078-N.jpg","1","s","0.889491200010525",1,5,0,2,0
"250020","img/neutralC/CFD-BF-018-039-N.jpg","0","s","0.918014399998356",1,5,0,2,0
"250020","img/neutralC/CFD-WF-036-023-N.jpg","0","s","0.659832500008633",1,5,0,2,0
"250020","img/neutralC/CFD-WF-026-002-N.jpg","1","s","0.742495600017719",1,5,0,2,0
"250020","img/neutralC/CFD-AM-242-176-N.jpg","0","s","0.669047899980797",1,5,0,2,0
"250020","img/neutralC/CFD-WM-202-107-N.jpg","0","s","0.48036129999673",1,5,0,2,0
"250020","img/neutralC/CFD-WM-014-002-N.jpg","1","s","0.699802599992836",1,5,0,2,0
"250020","img/neutralC/CFD-LM-204-001-N.jpg","0","k","0.809558199980529",1,5,0,2,0
"250020","img/neutralC/CFD-BM-251-013-N.jpg","1","k","0.842757499980507",1,5,0,2,0
"250020","img/neutralC/CFD-IM-701-312-N.jpg","1","k","0.4817170999886",1,5,0,2,0
"250020","img/neutralC/CFD-WM-258-125-N.jpg","1","k","0.608563799993135",1,5,0,2,0
"250020","img/neutralC/CFD-LM-217-162-N.jpg","0","s","0.615183900023112",1,5,0,2,0
"250020","img/neutralC/CFD-BF-045-003-N.jpg","1","s","0.576844499999424",1,5,0,2,0
"250020","img/neutralC/CFD-WM-213-076-N.jpg","0","s","0.771663499996066",1,5,0,2,0
"250020","img/neutralC/CFD-WM-038-003-N.jpg","1","s","0.709799699980067",1,5,0,2,0
"250020","img/neutralC/CFD-BF-025-002-N.jpg","1","k","0.804564299993217",1,5,0,2,0
"250020","img/neutralC/CFD-WM-209-038-N.jpg","1","k","1.1115456999978",1,5,0,2,0
"250020","img/neutralC/CFD-AM-251-124-N.jpg","1","s","0.749590099992929",1,5,0,2,0
"250020","img/neutralC/CFD-LM-216-082-N.jpg","1","k","0.75436439999612",1,5,0,2,0
"250020","img/neutralC/CFD-BM-039-029-N.jpg","1","s","0.575918999995338",1,5,0,2,0
"250020","img/neutralC/CFD-LF-241-188-N.jpg","1","k","1.51254569998127",1,5,0,2,0
"250020","img/neutralC/CFD-BF-004-014-N.jpg","0","s","0.774202000000514",1,5,0,2,0
"250020","img/neutralC/CFD-WF-008-002-N.jpg","1","s","0.705081599997357",1,5,0,2,0
"250020","img/neutralC/CFD-WM-255-219-N.jpg","1","s","0.741382300009718",1,5,0,2,0
"250020","img/neutralC/CFD-BF-033-028-N.jpg","0","k","0.838407600007486",1,5,0,2,0
"250020","img/neutralC/CFD-BM-005-003-N.jpg","0","s","0.683475099998759",1,5,0,2,0
"250020","img/neutralC/CFD-IM-738-191-N.jpg","1","s","0.593827200005762",1,5,0,2,0
"250020","img/neutralC/CFD-AM-225-102-N.jpg","1","k","0.787246199994115",1,5,0,2,0
"250020","img/neutralC/CFD-LF-255-088-N.jpg","0","s","0.690288899990264",1,5,0,2,0
"250020","img/neutralC/CFD-BF-044-034-N.jpg","0","k","1.26464090001537",1,6,0,2,0
"250020","img/neutralC/CFD-WM-019-003-N.jpg","1","k","0.957611299993005",1,6,0,2,0
"250020","img/neutralC/CFD-BM-207-024-N.jpg","1","s","0.612835999985691",1,6,0,2,0
"250020","img/neutralC/CFD-WM-228-065-N.jpg","0","k","0.67123979999451",1,6,0,2,0
"250020","img/neutralC/CFD-IF-718-001-N.jpg","0","k","0.935703600000124",1,6,0,2,0
"250020","img/neutralC/CFD-IM-669-111-N.jpg","1","s","0.674739899986889",1,6,0,2,0
"250020","img/neutralC/CFD-LM-237-264-N.jpg","0","k","0.76772780000465",1,6,0,2,0
"250020","img/neutralC/CFD-WM-015-002-N.jpg","0","s","0.629271299985703",1,6,0,2,0
"250020","img/neutralC/CFD-BM-023-029-N.jpg","1","k","1.03127040000982",1,6,0,2,0
"250020","img/neutralC/CFD-BM-030-003-N.jpg","1","k","0.496914499992272",1,6,0,2,0
"250020","img/neutralC/CFD-WM-017-002-N.jpg","0","k","0.424638199998299",1,6,0,2,0
"250020","img/neutralC/CFD-BF-218-207-N.jpg","1","s","0.626250700006494",1,6,0,2,0
"250020","img/neutralC/CFD-MM-319-052-N.jpg","0","k","0.813854400010314",1,6,0,2,0
"250020","img/neutralC/CFD-BM-036-003-N.jpg","1","k","0.61404479999328",1,6,0,2,0
"250020","img/neutralC/CFD-IF-665-015-N.jpg","1","k","0.532919599994784",1,6,0,2,0
"250020","img/neutralC/CFD-WF-023-003-N.jpg","0","k","0.557364899985259",1,6,0,2,0
"250020","img/neutralC/CFD-WM-009-002-N.jpg","0","k","1.15402119999635",1,6,0,2,0
"250020","img/neutralC/CFD-MM-306-010-N.jpg","1","s","0.825003100006143",1,6,0,2,0
"250020","img/neutralC/CFD-AF-239-171-N.jpg","1","k","2.00680059997831",1,6,0,2,0
"250020","img/neutralC/CFD-WM-248-036-N.jpg","0","k","0.992332299996633",1,6,0,2,0
"250020","img/neutralC/CFD-IM-667-369-N.jpg","1","s","0.739900999993552",1,6,0,2,0
"250020","img/neutralC/CFD-WF-208-068-N.jpg","0","s","0.591879899991909",1,6,0,2,0
"250020","img/neutralC/CFD-WM-242-011-N.jpg","0","s","0.492030000023078",1,6,0,2,0
"250020","img/neutralC/CFD-BF-051-035-N.jpg","1","k","0.605500000005122",1,6,0,2,0
"250020","img/neutralC/CFD-AF-250-200-N.jpg","0","s","0.505047600017861",1,6,0,2,0
"250020","img/neutralC/CFD-IM-651-308-N.jpg","1","s","0.58899229997769",1,6,0,2,0
"250020","img/neutralC/CFD-BF-043-003-N.jpg","1","s","0.448500200000126",1,6,0,2,0
"250020","img/neutralC/CFD-AM-211-052-N.jpg","0","s","0.384602000005543",1,6,0,2,0
"250020","img/neutralC/CFD-BM-217-082-N.jpg","0","s","0.563106000015978",1,6,0,2,0
"250020","img/neutralC/CFD-WM-219-008-N.jpg","1","s","0.891546800005017",1,6,0,2,0
"250020","img/neutralC/CFD-LM-241-125-N.jpg","0","s","0.61898050000309",1,6,0,2,0
"250020","img/neutralC/CFD-WF-200-099-N.jpg","1","s","0.5285401000001",1,6,0,2,0
"250020","img/neutralC/CFD-BM-026-002-N.jpg","1","s","0.538897199992789",1,6,0,2,0
"250020","img/neutralC/CFD-IF-672-305-N.jpg","0","s","0.41097989998525",1,6,0,2,0
"250020","img/neutralC/CFD-LM-213-061-N.jpg","1","s","0.441698599985102",1,6,0,2,0
"250020","img/neutralC/CFD-IF-693-172-N.jpg","1","s","0.411480800015852",1,6,0,2,0
"250020","img/neutralC/CFD-IM-664-651-N.jpg","0","s","0.465823900012765",1,6,0,2,0
"250020","img/neutralC/CFD-MF-321-003-N.jpg","0","s","0.431535399984568",1,6,0,2,0
"250020","img/neutralC/CFD-BM-015-015-N.jpg","1","s","0.306330299994443",1,6,0,2,0
"250020","img/neutralC/CFD-IF-634-382-N.jpg","1","s","0.474971999996342",1,6,0,2,0
"250020","img/neutralC/CFD-IF-710-016-N.jpg","0","k","1.28677710000193",1,6,0,2,0
"250020","img/neutralC/CFD-LF-224-176-N.jpg","1","k","0.746157299989136",1,6,0,2,0
"250020","img/neutralC/CFD-WF-240-083-N.jpg","1","k","1.24233439998352",1,6,0,2,0
"250020","img/neutralC/CFD-IM-627-178-N.jpg","1","s","1.70232049998594",1,6,0,2,0
"250020","img/neutralC/CFD-MF-313-002-N.jpg","1","k","0.68196230000467",1,6,0,2,0
"250020","img/neutralC/CFD-IM-689-263-N.jpg","1","k","0.632046500017168",1,6,0,2,0
"250020","img/neutralC/CFD-BM-003-003-N.jpg","1","s","0.94363580000936",1,6,0,2,0
"250020","img/neutralC/CFD-WF-033-002-N.jpg","0","s","0.813682600011816",1,6,0,2,0
"250020","img/neutralC/CFD-WF-030-002-N.jpg","1","k","3.49513090000255",1,7,0,2,0
"250020","img/neutralC/CFD-WM-034-030-N.jpg","1","s","1.08977120000054",1,7,0,2,0
"250020","img/neutralC/CFD-BM-020-001-N.jpg","1","s","0.765596600016579",1,7,0,2,0
"250020","img/neutralC/CFD-IM-674-281-N.jpg","1","k","0.576998199976515",1,7,0,2,0
"250020","img/neutralC/CFD-IM-617-174-N.jpg","1","s","0.491105199995218",1,7,0,2,0
"250020","img/neutralC/CFD-WM-212-097-N.jpg","1","s","0.600989600003231",1,7,0,2,0
"250020","img/neutralC/CFD-IM-671-601-N.jpg","0","s","0.586905099975411",1,7,0,2,0
"250020","img/neutralC/CFD-BM-239-136-N.jpg","1","s","0.571930000005523",1,7,0,2,0
"250020","img/neutralC/CFD-AF-246-242-N.jpg","0","s","0.60568670000066",1,7,0,2,0
"250020","img/neutralC/CFD-BM-227-191-N.jpg","1","s","0.628149900003336",1,7,0,2,0
"250020","img/neutralC/CFD-BF-205-141-N.jpg","1","k","0.506328300019959",1,7,0,2,0
"250020","img/neutralC/CFD-WM-020-001-N.jpg","0","k","0.482870799984084",1,7,0,2,0
"250020","img/neutralC/CFD-MM-304-002-N.jpg","1","s","0.592860000004293",1,7,0,2,0
"250020","img/neutralC/CFD-IM-700-009-N.jpg","1","s","0.709268899983726",1,7,0,2,0
"250020","img/neutralC/CFD-BM-253-004-N.jpg","1","k","0.282669699983671",1,7,0,2,0
"250020","img/neutralC/CFD-BM-213-134-N.jpg","1","s","0.251975799998036",1,7,0,2,0
"250020","img/neutralC/CFD-IF-744-114-N.jpg","0","k","0.293262799998047",1,7,0,2,0
"250020","img/neutralC/CFD-BF-012-001-N.jpg","0","s","0.278136400011135",1,7,0,2,0
"250020","img/neutralC/CFD-MF-305-014-N.jpg","1","k","0.245240800024476",1,7,0,2,0
"250020","img/neutralC/CFD-AM-233-236-N.jpg","1","s","0.231473599997116",1,7,0,2,0
"250020","img/neutralC/CFD-MF-300-002-N.jpg","1","s","0.279019899986451",1,7,0,2,0
"250020","img/neutralC/CFD-LF-204-133-N.jpg","1","s","0.271070299990242",1,7,0,2,0
"250020","img/neutralC/CFD-WM-227-099-N.jpg","0","s","0.226182999991579",1,7,0,2,0
"250020","img/neutralC/CFD-WF-233-112-N.jpg","1","s","0.257964000018546",1,7,0,2,0
"250020","img/neutralC/CFD-AM-219-101-N.jpg","0","s","0.239172999979928",1,7,0,2,0
"250020","img/neutralC/CFD-WM-012-001-N.jpg","0","s","0.598848099994939",1,7,0,2,0
"250020","img/neutralC/CFD-WF-213-031-N.jpg","0","k","0.467699000000721",1,7,0,2,0
"250020","img/neutralC/CFD-BM-238-242-N.jpg","0","s","0.372887299978174",1,7,0,2,0
"250020","img/neutralC/CFD-IM-707-105-N.jpg","1","s","0.43655199999921",1,7,0,2,0
"250020","img/neutralC/CFD-WF-001-003-N.jpg","0","k","0.599348000017926",1,7,0,2,0
"250020","img/neutralC/CFD-IM-632-097-N.jpg","1","k","0.384384600009071",1,7,0,2,0
"250020","img/neutralC/CFD-WM-215-041-N.jpg","0","k","0.51081740000518",1,7,0,2,0
"250020","img/neutralC/CFD-BM-004-002-N.jpg","0","k","0.526458099979209",1,7,0,2,0
"250020","img/neutralC/CFD-WM-028-003-N.jpg","0","k","0.24950499998522",1,7,0,2,0
"250020","img/neutralC/CFD-IM-657-308-N.jpg","0","k","0.412690199998906",1,7,0,2,0
"250020","img/neutralC/CFD-WM-023-001-N.jpg","0","k","0.853746599983424",1,7,0,2,0
"250020","img/neutralC/CFD-LM-247-095-N.jpg","0","s","0.54430360000697",1,7,0,2,0
"250020","img/neutralC/CFD-LF-225-164-N.jpg","1","k","0.646371100010583",1,7,0,2,0
"250020","img/neutralC/CFD-WM-033-025-N.jpg","1","k","1.06756659998791",1,7,0,2,0
"250020","img/neutralC/CFD-AF-253-130-N.jpg","1","k","0.76647969998885",1,7,0,2,0
"250020","img/neutralC/CFD-WF-244-163-N.jpg","1","k","0.821406200004276",1,7,0,2,0
"250020","img/neutralC/CFD-IF-660-464-N.jpg","0","s","0.876444800000172",1,7,0,2,0
"250020","img/neutralC/CFD-MF-307-002-N.jpg","0","k","0.816488100012066",1,7,0,2,0
"250020","img/neutralC/CFD-WF-234-086-N.jpg","0","k","0.750757699977839",1,7,0,2,0
"250020","img/neutralC/CFD-WM-004-010-N.jpg","0","k","1.58606299999519",1,7,0,2,0
"250020","img/neutralC/CFD-WF-250-167-N.jpg","0","k","0.976350499986438",1,7,0,2,0
"250020","img/neutralC/CFD-BM-009-002-N.jpg","1","s","1.43539590001456",1,7,0,2,0
"250020","img/neutralC/CFD-LF-245-166-N.jpg","0","s","1.19823979999637",1,7,0,2,0
"250020","img/neutralC/CFD-LF-201-035-N.jpg","0","k","1.02896649998729",1,8,0,2,0
"250020","img/neutralC/CFD-BM-231-155-N.jpg","1","s","0.552074800012633",1,8,0,2,0
"250020","img/neutralC/CFD-WF-017-003-N.jpg","0","k","0.69061329998658",1,8,0,2,0
"250020","img/neutralC/CFD-WM-201-063-N.jpg","0","k","0.738745100010419",1,8,0,2,0
"250020","img/neutralC/CFD-IF-619-197-N.jpg","1","k","0.856470500002615",1,8,0,2,0
"250020","img/neutralC/CFD-MF-359-019-N.jpg","0","k","0.584271100000478",1,8,0,2,0
"250020","img/neutralC/CFD-BM-041-035-N.jpg","1","s","0.622583599993959",1,8,0,2,0
"250020","img/neutralC/CFD-WM-013-001-N.jpg","0","s","0.623929000023054",1,8,0,2,0
"250020","img/neutralC/CFD-BF-235-168-N.jpg","1","s","0.465258800017182",1,8,0,2,0
"250020","img/neutralC/CFD-MM-324-069-N.jpg","0","k","0.597901200002525",1,8,0,2,0
"250020","img/neutralC/CFD-IF-626-375-N.jpg","0","s","1.16952019999735",1,8,0,2,0
"250020","img/neutralC/CFD-BM-043-071-N.jpg","1","k","1.23955860000569",1,8,0,2,0
"250020","img/neutralC/CFD-IM-678-482-N.jpg","1","s","0.935763699992094",1,8,0,2,0
"250020","img/neutralC/CFD-BF-011-002-N.jpg","1","k","0.615718899993226",1,8,0,2,0
"250020","img/neutralC/CFD-IM-728-041-N.jpg","0","s","0.644241699978011",1,8,0,2,0
"250020","img/neutralC/CFD-BF-229-179-N.jpg","1","k","0.934940000006463",1,8,0,2,0
"250020","img/neutralC/CFD-WM-235-147-N.jpg","1","s","0.94223799998872",1,8,0,2,0
"250020","img/neutralC/CFD-WF-217-085-N.jpg","1","s","1.15576250001322",1,8,0,2,0
"250020","img/neutralC/CFD-BF-023-010-N.jpg","1","k","0.943499700020766",1,8,0,2,0
"250020","img/neutralC/CFD-IM-686-097-N.jpg","1","s","1.74296629999299",1,8,0,2,0
"250020","img/neutralC/CFD-LF-215-157-N.jpg","0","k","0.937263700005133",1,8,0,2,0
"250020","img/neutralC/CFD-LM-240-013-N.jpg","0","s","1.11871469998732",1,8,0,2,0
"250020","img/neutralC/CFD-LF-216-121-N.jpg","0","k","1.03351629999815",1,8,0,2,0
"250020","img/neutralC/CFD-IM-645-001-N.jpg","1","k","0.812567499990109",1,8,0,2,0
"250020","img/neutralC/CFD-BM-205-001-N.jpg","0","k","0.507139099994674",1,8,0,2,0
"250020","img/neutralC/CFD-IF-636-011-N.jpg","1","k","0.497700799984159",1,8,0,2,0
"250020","img/neutralC/CFD-WM-011-002-N.jpg","1","k","0.61888120000367",1,8,0,2,0
"250020","img/neutralC/CFD-IF-623-129-N.jpg","0","k","0.55403140000999",1,8,0,2,0
"250020","img/neutralC/CFD-LM-228-188-N.jpg","1","k","0.398952299990924",1,8,0,2,0
"250020","img/neutralC/CFD-AF-234-208-N.jpg","0","k","0.288775900000473",1,8,0,2,0
"250020","img/neutralC/CFD-AF-231-357-N.jpg","1","k","0.390559199993731",1,8,0,2,0
"250020","img/neutralC/CFD-WF-212-050-N.jpg","0","k","0.233765699987998",1,8,0,2,0
"250020","img/neutralC/CFD-MF-352-054-N.jpg","1","k","0.233041800005594",1,8,0,2,0
"250020","img/neutralC/CFD-BF-244-231-N.jpg","1","k","0.299978199996985",1,8,0,2,0
"250020","img/neutralC/CFD-IM-726-248-N.jpg","0","s","0.324713399983011",1,8,0,2,0
"250020","img/neutralC/CFD-BF-036-027-N.jpg","1","s","0.297014299983857",1,8,0,2,0
"250020","img/neutralC/CFD-BF-040-003-N.jpg","1","s","0.338412400014931",1,8,0,2,0
"250020","img/neutralC/CFD-MM-317-061-N.jpg","1","k","0.553814199985936",1,8,0,2,0
"250020","img/neutralC/CFD-MF-333-012-N.jpg","1","s","0.321830400003819",1,8,0,2,0
"250020","img/neutralC/CFD-WM-218-074-N.jpg","1","k","0.637619100016309",1,8,0,2,0
"250020","img/neutralC/CFD-BF-247-179-N.jpg","1","s","0.313158300006762",1,8,0,2,0
"250020","img/neutralC/CFD-BF-204-189-N.jpg","0","k","0.460969199979445",1,8,0,2,0
"250020","img/neutralC/CFD-AM-217-085-N.jpg","1","s","0.344609499996295",1,8,0,2,0
"250020","img/neutralC/CFD-WF-022-017-N.jpg","0","k","0.437001199985389",1,8,0,2,0
"250020","img/neutralC/CFD-BF-228-212-N.jpg","0","k","0.633734400005778",1,8,0,2,0
"250020","img/neutralC/CFD-BM-028-002-N.jpg","1","k","0.511324299994158",1,8,0,2,0
"250020","img/neutralC/CFD-AM-215-120-N.jpg","0","k","0.291109599987976",1,8,0,2,0
"250020","img/neutralC/CFD-LM-201-057-N.jpg","0","k","0.709839399991324",1,8,0,2,0
