"participant_id","current_trial_face","pre_trial_face","post_trial_face","current_trial_accuracy","pre_trial_accuracy","post_trial_accuracy","current_trial_congruency","pre_trial_congruency","post_trial_congruency","current_trial_rt","pre_trial_rt","post_trial_rt","current_trial_responded","pre_trial_responded","post_trial_responded","current_trial_legitResponse","pre_trial_legitResponse","post_trial_legitResponse","current_trial_resp_nums","pre_trial_resp_nums","post_trial_resp_nums"
"250024","img/neutralC/CFD-WF-250-167-N.jpg",NA,"img/neutralC/CFD-LF-214-090-N.jpg","1",NA,"1","1",NA,"0","0.572017500002403",NA,"0.584221600001911","1",NA,"1","1",NA,"1","1",NA,"1"
"250024","img/neutralC/CFD-LF-214-090-N.jpg","img/neutralC/CFD-WF-250-167-N.jpg","img/neutralC/CFD-LF-224-176-N.jpg","1","1","1","0","1","0","0.584221600001911","0.572017500002403","0.653481999994256","1","1","1","1","1","1","1","1","1"
"250024","img/neutralC/CFD-LF-224-176-N.jpg","img/neutralC/CFD-LF-214-090-N.jpg","img/neutralC/CFD-IM-651-308-N.jpg","1","1","1","0","0","0","0.653481999994256","0.584221600001911","0.576736500006518","1","1","1","1","1","1","1","1","1"
"250024","img/neutralC/CFD-IM-651-308-N.jpg","img/neutralC/CFD-LF-224-176-N.jpg","img/neutralC/CFD-MF-337-026-N.jpg","1","1","1","0","0","1","0.576736500006518","0.653481999994256","0.690497299990966","1","1","1","1","1","1","1","1","1"
"250024","img/neutralC/CFD-MF-337-026-N.jpg","img/neutralC/CFD-IM-651-308-N.jpg","img/neutralC/CFD-WF-213-031-N.jpg","1","1","1","1","0","1","0.690497299990966","0.576736500006518","0.5283347999939","1","1","1","1","1","1","1","1","1"
"250024","img/neutralC/CFD-WF-213-031-N.jpg","img/neutralC/CFD-MF-337-026-N.jpg","img/neutralC/CFD-WM-041-021-N.jpg","1","1","1","1","1","0","0.5283347999939","0.690497299990966","0.595547600009013","1","1","1","1","1","1","1","1","1"
"250024","img/neutralC/CFD-WM-041-021-N.jpg","img/neutralC/CFD-WF-213-031-N.jpg","img/neutralC/CFD-LM-215-247-N.jpg","1","1","1","0","1","0","0.595547600009013","0.5283347999939","0.53455889999168","1","1","1","1","1","1","1","1","1"
"250024","img/neutralC/CFD-LM-215-247-N.jpg","img/neutralC/CFD-WM-041-021-N.jpg","img/neutralC/CFD-BF-029-031-N.jpg","1","1","1","0","0","1","0.53455889999168","0.595547600009013","0.530836499994621","1","1","1","1","1","1","1","1","1"
"250024","img/neutralC/CFD-BF-029-031-N.jpg","img/neutralC/CFD-LM-215-247-N.jpg","img/neutralC/CFD-BF-253-202-N.jpg","1","1","1","1","0","0","0.530836499994621","0.53455889999168","0.46361770000658","1","1","1","1","1","1","1","1","1"
"250024","img/neutralC/CFD-BF-253-202-N.jpg","img/neutralC/CFD-BF-029-031-N.jpg","img/neutralC/CFD-LM-218-183-N.jpg","1","1","1","0","1","1","0.46361770000658","0.530836499994621","0.623121399985394","1","1","1","1","1","1","1","1","1"
"250024","img/neutralC/CFD-LM-218-183-N.jpg","img/neutralC/CFD-BF-253-202-N.jpg","img/neutralC/CFD-AM-201-076-N.jpg","1","1","1","1","0","1","0.623121399985394","0.46361770000658","0.610584599999129","1","1","1","1","1","1","1","1","1"
"250024","img/neutralC/CFD-AM-201-076-N.jpg","img/neutralC/CFD-LM-218-183-N.jpg","img/neutralC/CFD-LF-230-203-N.jpg","1","1","1","1","1","0","0.610584599999129","0.623121399985394","0.552591599989682","1","1","1","1","1","1","1","1","1"
"250024","img/neutralC/CFD-LF-230-203-N.jpg","img/neutralC/CFD-AM-201-076-N.jpg","img/neutralC/CFD-WF-224-099-N.jpg","1","1","1","0","1","0","0.552591599989682","0.610584599999129","0.591352799994638","1","1","1","1","1","1","1","1","1"
"250024","img/neutralC/CFD-WF-224-099-N.jpg","img/neutralC/CFD-LF-230-203-N.jpg","img/neutralC/CFD-BF-213-188-N.jpg","1","1","1","0","0","1","0.591352799994638","0.552591599989682","0.493134899996221","1","1","1","1","1","1","1","1","1"
"250024","img/neutralC/CFD-BF-213-188-N.jpg","img/neutralC/CFD-WF-224-099-N.jpg","img/neutralC/CFD-IF-693-172-N.jpg","1","1","1","1","0","0","0.493134899996221","0.591352799994638","0.512269900005776","1","1","1","1","1","1","1","1","1"
"250024","img/neutralC/CFD-IF-693-172-N.jpg","img/neutralC/CFD-BF-213-188-N.jpg","img/neutralC/CFD-LF-205-100-N.jpg","1","1","1","0","1","1","0.512269900005776","0.493134899996221","0.534216000000015","1","1","1","1","1","1","1","1","1"
"250024","img/neutralC/CFD-LF-205-100-N.jpg","img/neutralC/CFD-IF-693-172-N.jpg","img/neutralC/CFD-BM-041-035-N.jpg","1","1","1","1","0","0","0.534216000000015","0.512269900005776","0.599499400006607","1","1","1","1","1","1","1","1","1"
"250024","img/neutralC/CFD-BM-041-035-N.jpg","img/neutralC/CFD-LF-205-100-N.jpg","img/neutralC/CFD-IM-684-008-N.jpg","1","1","1","0","1","1","0.599499400006607","0.534216000000015","0.474105899993447","1","1","1","1","1","1","1","1","1"
"250024","img/neutralC/CFD-IM-684-008-N.jpg","img/neutralC/CFD-BM-041-035-N.jpg","img/neutralC/CFD-WM-021-001-N.jpg","1","1","1","1","0","1","0.474105899993447","0.599499400006607","0.514365199996973","1","1","1","1","1","1","1","1","1"
"250024","img/neutralC/CFD-WM-021-001-N.jpg","img/neutralC/CFD-IM-684-008-N.jpg","img/neutralC/CFD-LF-203-066-N.jpg","1","1","1","1","1","0","0.514365199996973","0.474105899993447","0.586419200000819","1","1","1","1","1","1","1","1","1"
"250024","img/neutralC/CFD-LF-203-066-N.jpg","img/neutralC/CFD-WM-021-001-N.jpg","img/neutralC/CFD-AF-231-357-N.jpg","1","1","1","0","1","1","0.586419200000819","0.514365199996973","0.473716899999999","1","1","1","1","1","1","1","1","1"
"250024","img/neutralC/CFD-AF-231-357-N.jpg","img/neutralC/CFD-LF-203-066-N.jpg","img/neutralC/CFD-IF-710-016-N.jpg","1","1","1","1","0","0","0.473716899999999","0.586419200000819","0.593099599995185","1","1","1","1","1","1","1","1","1"
"250024","img/neutralC/CFD-IF-710-016-N.jpg","img/neutralC/CFD-AF-231-357-N.jpg","img/neutralC/CFD-WM-011-002-N.jpg","1","1","1","0","1","0","0.593099599995185","0.473716899999999","0.480158099991968","1","1","1","1","1","1","1","1","1"
"250024","img/neutralC/CFD-WM-011-002-N.jpg","img/neutralC/CFD-IF-710-016-N.jpg","img/neutralC/CFD-IF-634-382-N.jpg","1","1","1","0","0","1","0.480158099991968","0.593099599995185","0.450210199996946","1","1","1","1","1","1","1","1","1"
"250024","img/neutralC/CFD-IF-634-382-N.jpg","img/neutralC/CFD-WM-011-002-N.jpg","img/neutralC/CFD-BM-033-003-N.jpg","1","1","1","1","0","0","0.450210199996946","0.480158099991968","0.501151000004029","1","1","1","1","1","1","1","1","1"
"250024","img/neutralC/CFD-BM-033-003-N.jpg","img/neutralC/CFD-IF-634-382-N.jpg","img/neutralC/CFD-BM-239-136-N.jpg","1","1","1","0","1","1","0.501151000004029","0.450210199996946","0.486210599992773","1","1","1","1","1","1","1","1","1"
"250024","img/neutralC/CFD-BM-239-136-N.jpg","img/neutralC/CFD-BM-033-003-N.jpg","img/neutralC/CFD-BF-205-141-N.jpg","1","1","1","1","0","0","0.486210599992773","0.501151000004029","0.523519000009401","1","1","1","1","1","1","1","1","1"
"250024","img/neutralC/CFD-BF-205-141-N.jpg","img/neutralC/CFD-BM-239-136-N.jpg","img/neutralC/CFD-BM-019-002-N.jpg","1","1","1","0","1","0","0.523519000009401","0.486210599992773","0.427499600002193","1","1","1","1","1","1","1","1","1"
"250024","img/neutralC/CFD-BM-019-002-N.jpg","img/neutralC/CFD-BF-205-141-N.jpg","img/neutralC/CFD-BF-039-031-N.jpg","1","1","1","0","0","1","0.427499600002193","0.523519000009401","0.614459499993245","1","1","1","1","1","1","1","1","1"
"250024","img/neutralC/CFD-BF-039-031-N.jpg","img/neutralC/CFD-BM-019-002-N.jpg","img/neutralC/CFD-MM-316-156-N.jpg","1","1","1","1","0","1","0.614459499993245","0.427499600002193","0.46226659999229","1","1","1","1","1","1","1","1","1"
"250024","img/neutralC/CFD-MM-316-156-N.jpg","img/neutralC/CFD-BF-039-031-N.jpg","img/neutralC/CFD-AM-212-050-N.jpg","1","1","1","1","1","1","0.46226659999229","0.614459499993245","0.710130399995251","1","1","1","1","1","1","1","1","1"
"250024","img/neutralC/CFD-AM-212-050-N.jpg","img/neutralC/CFD-MM-316-156-N.jpg",NA,"1","1",NA,"1","1",NA,"0.710130399995251","0.46226659999229",NA,"1","1",NA,"1","1",NA,"1","1",NA
"250024","img/neutralC/CFD-IM-627-178-N.jpg",NA,"img/neutralC/CFD-AF-232-078-N.jpg","1",NA,"1","1",NA,"1","0.457734700001311",NA,"0.434319499996491","1",NA,"1","1",NA,"1","1",NA,"1"
"250024","img/neutralC/CFD-AF-232-078-N.jpg","img/neutralC/CFD-IM-627-178-N.jpg","img/neutralC/CFD-WF-018-017-N.jpg","1","1","1","1","1","1","0.434319499996491","0.457734700001311","0.322076299999026","1","1","1","1","1","1","1","1","1"
"250024","img/neutralC/CFD-WF-018-017-N.jpg","img/neutralC/CFD-AF-232-078-N.jpg","img/neutralC/CFD-WM-237-052-N.jpg","1","1","1","1","1","1","0.322076299999026","0.434319499996491","0.401945999998134","1","1","1","1","1","1","1","1","1"
"250024","img/neutralC/CFD-WM-237-052-N.jpg","img/neutralC/CFD-WF-018-017-N.jpg","img/neutralC/CFD-IM-719-221-N.jpg","1","1","1","1","1","0","0.401945999998134","0.322076299999026","0.315492399997311","1","1","1","1","1","1","1","1","1"
"250024","img/neutralC/CFD-IM-719-221-N.jpg","img/neutralC/CFD-WM-237-052-N.jpg","img/neutralC/CFD-WM-009-002-N.jpg","1","1","1","0","1","0","0.315492399997311","0.401945999998134","0.486345799989067","1","1","1","1","1","1","1","1","1"
"250024","img/neutralC/CFD-WM-009-002-N.jpg","img/neutralC/CFD-IM-719-221-N.jpg","img/neutralC/CFD-WM-221-091-N.jpg","1","1","1","0","0","0","0.486345799989067","0.315492399997311","0.531130799994571","1","1","1","1","1","1","1","1","1"
"250024","img/neutralC/CFD-WM-221-091-N.jpg","img/neutralC/CFD-WM-009-002-N.jpg","img/neutralC/CFD-WF-226-095-N.jpg","1","1","1","0","0","1","0.531130799994571","0.486345799989067","0.392511500002001","1","1","1","1","1","1","1","1","1"
"250024","img/neutralC/CFD-WF-226-095-N.jpg","img/neutralC/CFD-WM-221-091-N.jpg","img/neutralC/CFD-BF-018-039-N.jpg","1","1","1","1","0","1","0.392511500002001","0.531130799994571","0.370897299988428","1","1","1","1","1","1","1","1","1"
"250024","img/neutralC/CFD-BF-018-039-N.jpg","img/neutralC/CFD-WF-226-095-N.jpg","img/neutralC/CFD-AF-221-147-N.jpg","1","1","1","1","1","0","0.370897299988428","0.392511500002001","0.552064099989366","1","1","1","1","1","1","1","1","1"
"250024","img/neutralC/CFD-AF-221-147-N.jpg","img/neutralC/CFD-BF-018-039-N.jpg","img/neutralC/CFD-BM-200-046-N.jpg","1","1","1","0","1","0","0.552064099989366","0.370897299988428","0.427642899987404","1","1","1","1","1","1","1","1","1"
"250024","img/neutralC/CFD-BM-200-046-N.jpg","img/neutralC/CFD-AF-221-147-N.jpg","img/neutralC/CFD-WF-238-023-N.jpg","1","1","1","0","0","0","0.427642899987404","0.552064099989366","0.441470699995989","1","1","1","1","1","1","1","1","1"
"250024","img/neutralC/CFD-WF-238-023-N.jpg","img/neutralC/CFD-BM-200-046-N.jpg","img/neutralC/CFD-WF-027-003-N.jpg","1","1","1","0","0","1","0.441470699995989","0.427642899987404","0.333094000001438","1","1","1","1","1","1","1","1","1"
"250024","img/neutralC/CFD-WF-027-003-N.jpg","img/neutralC/CFD-WF-238-023-N.jpg","img/neutralC/CFD-IM-700-009-N.jpg","1","1","1","1","0","1","0.333094000001438","0.441470699995989","0.35466520000773","1","1","1","1","1","1","1","1","1"
"250024","img/neutralC/CFD-IM-700-009-N.jpg","img/neutralC/CFD-WF-027-003-N.jpg","img/neutralC/CFD-MF-321-003-N.jpg","1","1","1","1","1","0","0.35466520000773","0.333094000001438","0.508071899996139","1","1","1","1","1","1","1","1","1"
"250024","img/neutralC/CFD-MF-321-003-N.jpg","img/neutralC/CFD-IM-700-009-N.jpg","img/neutralC/CFD-LF-215-157-N.jpg","1","1","1","0","1","0","0.508071899996139","0.35466520000773","0.41029639999033","1","1","1","1","1","1","1","1","1"
"250024","img/neutralC/CFD-LF-215-157-N.jpg","img/neutralC/CFD-MF-321-003-N.jpg","img/neutralC/CFD-MM-321-021-N.jpg","1","1","1","0","0","0","0.41029639999033","0.508071899996139","0.546335799997905","1","1","1","1","1","1","1","1","1"
"250024","img/neutralC/CFD-MM-321-021-N.jpg","img/neutralC/CFD-LF-215-157-N.jpg","img/neutralC/CFD-WM-013-001-N.jpg","1","1","1","0","0","1","0.546335799997905","0.41029639999033","0.397439599997597","1","1","1","1","1","1","1","1","1"
"250024","img/neutralC/CFD-WM-013-001-N.jpg","img/neutralC/CFD-MM-321-021-N.jpg","img/neutralC/CFD-IF-629-234-N.jpg","1","1","1","1","0","0","0.397439599997597","0.546335799997905","0.66320349999296","1","1","1","1","1","1","1","1","1"
"250024","img/neutralC/CFD-IF-629-234-N.jpg","img/neutralC/CFD-WM-013-001-N.jpg","img/neutralC/CFD-MF-318-022-N.jpg","1","1","1","0","1","1","0.66320349999296","0.397439599997597","0.50973009999143","1","1","1","1","1","1","1","1","1"
"250024","img/neutralC/CFD-MF-318-022-N.jpg","img/neutralC/CFD-IF-629-234-N.jpg","img/neutralC/CFD-BM-023-029-N.jpg","1","1","1","1","0","1","0.50973009999143","0.66320349999296","0.680998199997703","1","1","1","1","1","1","1","1","1"
"250024","img/neutralC/CFD-BM-023-029-N.jpg","img/neutralC/CFD-MF-318-022-N.jpg","img/neutralC/CFD-BF-254-201-N.jpg","1","1","1","1","1","0","0.680998199997703","0.50973009999143","0.413859399995999","1","1","1","1","1","1","1","1","1"
"250024","img/neutralC/CFD-BF-254-201-N.jpg","img/neutralC/CFD-BM-023-029-N.jpg","img/neutralC/CFD-LF-211-003-N.jpg","1","1","1","0","1","0","0.413859399995999","0.680998199997703","0.477556499987259","1","1","1","1","1","1","1","1","1"
"250024","img/neutralC/CFD-LF-211-003-N.jpg","img/neutralC/CFD-BF-254-201-N.jpg","img/neutralC/CFD-WF-023-003-N.jpg","1","1","1","0","0","1","0.477556499987259","0.413859399995999","0.537106000003405","1","1","1","1","1","1","1","1","1"
"250024","img/neutralC/CFD-WF-023-003-N.jpg","img/neutralC/CFD-LF-211-003-N.jpg","img/neutralC/CFD-MF-342-022-N.jpg","1","1","1","1","0","1","0.537106000003405","0.477556499987259","0.399116500004311","1","1","1","1","1","1","1","1","1"
"250024","img/neutralC/CFD-MF-342-022-N.jpg","img/neutralC/CFD-WF-023-003-N.jpg","img/neutralC/CFD-WF-245-084-N.jpg","1","1","1","1","1","1","0.399116500004311","0.537106000003405","0.530558700003894","1","1","1","1","1","1","1","1","1"
"250024","img/neutralC/CFD-WF-245-084-N.jpg","img/neutralC/CFD-MF-342-022-N.jpg","img/neutralC/CFD-AM-244-222-N.jpg","1","1","1","1","1","0","0.530558700003894","0.399116500004311","0.532376200004364","1","1","1","1","1","1","1","1","1"
"250024","img/neutralC/CFD-AM-244-222-N.jpg","img/neutralC/CFD-WF-245-084-N.jpg","img/neutralC/CFD-WM-201-063-N.jpg","1","1","1","0","1","1","0.532376200004364","0.530558700003894","0.501582900003996","1","1","1","1","1","1","1","1","1"
"250024","img/neutralC/CFD-WM-201-063-N.jpg","img/neutralC/CFD-AM-244-222-N.jpg","img/neutralC/CFD-LM-253-075-N.jpg","1","1","1","1","0","0","0.501582900003996","0.532376200004364","0.614900499989744","1","1","1","1","1","1","1","1","1"
"250024","img/neutralC/CFD-LM-253-075-N.jpg","img/neutralC/CFD-WM-201-063-N.jpg","img/neutralC/CFD-WM-255-219-N.jpg","1","1","1","0","1","0","0.614900499989744","0.501582900003996","0.579117899993435","1","1","1","1","1","1","1","1","1"
"250024","img/neutralC/CFD-WM-255-219-N.jpg","img/neutralC/CFD-LM-253-075-N.jpg","img/neutralC/CFD-BF-218-207-N.jpg","1","1","1","0","0","1","0.579117899993435","0.614900499989744","0.481134500005282","1","1","1","1","1","1","1","1","1"
"250024","img/neutralC/CFD-BF-218-207-N.jpg","img/neutralC/CFD-WM-255-219-N.jpg","img/neutralC/CFD-BM-204-003-N.jpg","1","1","1","1","0","0","0.481134500005282","0.579117899993435","0.664412799989805","1","1","1","1","1","1","1","1","1"
"250024","img/neutralC/CFD-BM-204-003-N.jpg","img/neutralC/CFD-BF-218-207-N.jpg",NA,"1","1",NA,"0","1",NA,"0.664412799989805","0.481134500005282",NA,"1","1",NA,"1","1",NA,"1","1",NA
"250024","img/neutralC/CFD-AF-250-200-N.jpg",NA,"img/neutralC/CFD-BF-020-002-N.jpg","1",NA,"1","1",NA,"1","0.421875",NA,"0.422984899996663","1",NA,"1","1",NA,"1","1",NA,"1"
"250024","img/neutralC/CFD-BF-020-002-N.jpg","img/neutralC/CFD-AF-250-200-N.jpg","img/neutralC/CFD-AM-245-111-N.jpg","1","1","1","1","1","1","0.422984899996663","0.421875","0.493411400006153","1","1","1","1","1","1","1","1","1"
"250024","img/neutralC/CFD-AM-245-111-N.jpg","img/neutralC/CFD-BF-020-002-N.jpg","img/neutralC/CFD-AF-244-168-N.jpg","1","1","1","1","1","0","0.493411400006153","0.422984899996663","0.597324899994419","1","1","1","1","1","1","1","1","1"
"250024","img/neutralC/CFD-AF-244-168-N.jpg","img/neutralC/CFD-AM-245-111-N.jpg","img/neutralC/CFD-IM-669-111-N.jpg","1","1","1","0","1","1","0.597324899994419","0.493411400006153","0.374964899994666","1","1","1","1","1","1","1","1","1"
"250024","img/neutralC/CFD-IM-669-111-N.jpg","img/neutralC/CFD-AF-244-168-N.jpg","img/neutralC/CFD-BF-217-189-N.jpg","1","1","1","1","0","0","0.374964899994666","0.597324899994419","0.468884700007038","1","1","1","1","1","1","1","1","1"
"250024","img/neutralC/CFD-BF-217-189-N.jpg","img/neutralC/CFD-IM-669-111-N.jpg","img/neutralC/CFD-IF-636-011-N.jpg","1","1","1","0","1","1","0.468884700007038","0.374964899994666","0.428177399997367","1","1","1","1","1","1","1","1","1"
"250024","img/neutralC/CFD-IF-636-011-N.jpg","img/neutralC/CFD-BF-217-189-N.jpg","img/neutralC/CFD-AF-246-242-N.jpg","1","1","1","1","0","0","0.428177399997367","0.468884700007038","0.584262199990917","1","1","1","1","1","1","1","1","1"
"250024","img/neutralC/CFD-AF-246-242-N.jpg","img/neutralC/CFD-IF-636-011-N.jpg","img/neutralC/CFD-IM-632-097-N.jpg","1","1","1","0","1","0","0.584262199990917","0.428177399997367","0.518827399995644","1","1","1","1","1","1","1","1","1"
"250024","img/neutralC/CFD-IM-632-097-N.jpg","img/neutralC/CFD-AF-246-242-N.jpg","img/neutralC/CFD-BF-235-168-N.jpg","1","1","1","0","0","1","0.518827399995644","0.584262199990917","0.507484600006137","1","1","1","1","1","1","1","1","1"
"250024","img/neutralC/CFD-BF-235-168-N.jpg","img/neutralC/CFD-IM-632-097-N.jpg","img/neutralC/CFD-AF-213-126-N.jpg","1","1","1","1","0","1","0.507484600006137","0.518827399995644","0.45121489999292","1","1","1","1","1","1","1","1","1"
"250024","img/neutralC/CFD-AF-213-126-N.jpg","img/neutralC/CFD-BF-235-168-N.jpg","img/neutralC/CFD-BF-040-003-N.jpg","1","1","1","1","1","1","0.45121489999292","0.507484600006137","0.2787854999915","1","1","1","1","1","1","1","1","1"
"250024","img/neutralC/CFD-BF-040-003-N.jpg","img/neutralC/CFD-AF-213-126-N.jpg","img/neutralC/CFD-BM-215-155-N.jpg","1","1","1","1","1","0","0.2787854999915","0.45121489999292","0.471963399992092","1","1","1","1","1","1","1","1","1"
"250024","img/neutralC/CFD-BM-215-155-N.jpg","img/neutralC/CFD-BF-040-003-N.jpg","img/neutralC/CFD-WM-018-002-N.jpg","1","1","1","0","1","0","0.471963399992092","0.2787854999915","0.417700599995442","1","1","1","1","1","1","1","1","1"
"250024","img/neutralC/CFD-WM-018-002-N.jpg","img/neutralC/CFD-BM-215-155-N.jpg","img/neutralC/CFD-BM-004-002-N.jpg","1","1","1","0","0","0","0.417700599995442","0.471963399992092","0.422733600003994","1","1","1","1","1","1","1","1","1"
"250024","img/neutralC/CFD-BM-004-002-N.jpg","img/neutralC/CFD-WM-018-002-N.jpg","img/neutralC/CFD-WF-210-086-N.jpg","1","1","1","0","0","0","0.422733600003994","0.417700599995442","0.534534099992015","1","1","1","1","1","1","1","1","1"
"250024","img/neutralC/CFD-WF-210-086-N.jpg","img/neutralC/CFD-BM-004-002-N.jpg","img/neutralC/CFD-AF-205-155-N.jpg","1","1","1","0","0","0","0.534534099992015","0.422733600003994","0.433133200000157","1","1","1","1","1","1","1","1","1"
"250024","img/neutralC/CFD-AF-205-155-N.jpg","img/neutralC/CFD-WF-210-086-N.jpg","img/neutralC/CFD-IM-678-482-N.jpg","1","1","1","0","0","0","0.433133200000157","0.534534099992015","0.402437400000054","1","1","1","1","1","1","1","1","1"
"250024","img/neutralC/CFD-IM-678-482-N.jpg","img/neutralC/CFD-AF-205-155-N.jpg","img/neutralC/CFD-MF-307-002-N.jpg","1","1","1","0","0","1","0.402437400000054","0.433133200000157","0.46947869998985","1","1","1","1","1","1","1","1","1"
"250024","img/neutralC/CFD-MF-307-002-N.jpg","img/neutralC/CFD-IM-678-482-N.jpg","img/neutralC/CFD-IF-732-260-N.jpg","1","1","0","1","0","0","0.46947869998985","0.402437400000054","0.344101099995896","1","1","1","1","1","1","1","1","1"
"250024","img/neutralC/CFD-IF-732-260-N.jpg","img/neutralC/CFD-MF-307-002-N.jpg","img/neutralC/CFD-WF-235-121-N.jpg","0","1","1","0","1","0","0.344101099995896","0.46947869998985","0.65308350000123","1","1","1","1","1","1","1","1","1"
"250024","img/neutralC/CFD-WF-235-121-N.jpg","img/neutralC/CFD-IF-732-260-N.jpg","img/neutralC/CFD-BF-042-026-N.jpg","1","0","1","0","0","1","0.65308350000123","0.344101099995896","0.507623099983903","1","1","1","1","1","1","1","1","1"
"250024","img/neutralC/CFD-BF-042-026-N.jpg","img/neutralC/CFD-WF-235-121-N.jpg","img/neutralC/CFD-BF-206-143-N.jpg","1","1","1","1","0","1","0.507623099983903","0.65308350000123","0.3231528000033","1","1","1","1","1","1","1","1","1"
"250024","img/neutralC/CFD-BF-206-143-N.jpg","img/neutralC/CFD-BF-042-026-N.jpg","img/neutralC/CFD-AM-233-236-N.jpg","1","1","1","1","1","1","0.3231528000033","0.507623099983903","0.418331599998055","1","1","1","1","1","1","1","1","1"
"250024","img/neutralC/CFD-AM-233-236-N.jpg","img/neutralC/CFD-BF-206-143-N.jpg","img/neutralC/CFD-LM-241-125-N.jpg","1","1","1","1","1","1","0.418331599998055","0.3231528000033","0.370968699993682","1","1","1","1","1","1","1","1","1"
"250024","img/neutralC/CFD-LM-241-125-N.jpg","img/neutralC/CFD-AM-233-236-N.jpg","img/neutralC/CFD-MF-302-027-N.jpg","1","1","1","1","1","0","0.370968699993682","0.418331599998055","0.366730599998846","1","1","1","1","1","1","1","1","1"
"250024","img/neutralC/CFD-MF-302-027-N.jpg","img/neutralC/CFD-LM-241-125-N.jpg","img/neutralC/CFD-AF-234-208-N.jpg","1","1","1","0","1","1","0.366730599998846","0.370968699993682","0.378316599992104","1","1","1","1","1","1","1","1","1"
"250024","img/neutralC/CFD-AF-234-208-N.jpg","img/neutralC/CFD-MF-302-027-N.jpg","img/neutralC/CFD-WM-253-119-N.jpg","1","1","1","1","0","1","0.378316599992104","0.366730599998846","0.391239099990344","1","1","1","1","1","1","1","1","1"
"250024","img/neutralC/CFD-WM-253-119-N.jpg","img/neutralC/CFD-AF-234-208-N.jpg","img/neutralC/CFD-LM-204-001-N.jpg","1","1","1","1","1","0","0.391239099990344","0.378316599992104","0.489633400007733","1","1","1","1","1","1","1","1","1"
"250024","img/neutralC/CFD-LM-204-001-N.jpg","img/neutralC/CFD-WM-253-119-N.jpg","img/neutralC/CFD-AM-225-102-N.jpg","1","1","1","0","1","0","0.489633400007733","0.391239099990344","0.50532199999725","1","1","1","1","1","1","1","1","1"
"250024","img/neutralC/CFD-AM-225-102-N.jpg","img/neutralC/CFD-LM-204-001-N.jpg","img/neutralC/CFD-IM-635-010-N.jpg","1","1","1","0","0","1","0.50532199999725","0.489633400007733","0.369142700001248","1","1","1","1","1","1","1","1","1"
"250024","img/neutralC/CFD-IM-635-010-N.jpg","img/neutralC/CFD-AM-225-102-N.jpg","img/neutralC/CFD-LF-239-148-N.jpg","1","1","0","1","0","0","0.369142700001248","0.50532199999725","0.425159199992777","1","1","1","1","1","1","1","1","1"
"250024","img/neutralC/CFD-LF-239-148-N.jpg","img/neutralC/CFD-IM-635-010-N.jpg",NA,"0","1",NA,"0","1",NA,"0.425159199992777","0.369142700001248",NA,"1","1",NA,"1","1",NA,"1","1",NA
"250024","img/neutralC/CFD-MF-327-002-N.jpg",NA,"img/neutralC/CFD-WF-012-002-N.jpg","1",NA,"1","0",NA,"1","0.517931599999429",NA,"0.427812299996731","1",NA,"1","1",NA,"1","1",NA,"1"
"250024","img/neutralC/CFD-WF-012-002-N.jpg","img/neutralC/CFD-MF-327-002-N.jpg","img/neutralC/CFD-WM-213-076-N.jpg","1","1","1","1","0","1","0.427812299996731","0.517931599999429","0.367292099996121","1","1","1","1","1","1","1","1","1"
"250024","img/neutralC/CFD-WM-213-076-N.jpg","img/neutralC/CFD-WF-012-002-N.jpg","img/neutralC/CFD-BF-051-035-N.jpg","1","1","1","1","1","0","0.367292099996121","0.427812299996731","0.402714199997718","1","1","1","1","1","1","1","1","1"
"250024","img/neutralC/CFD-BF-051-035-N.jpg","img/neutralC/CFD-WM-213-076-N.jpg","img/neutralC/CFD-IF-619-197-N.jpg","1","1","0","0","1","0","0.402714199997718","0.367292099996121","0.303393299996969","1","1","1","1","1","1","1","1","1"
"250024","img/neutralC/CFD-IF-619-197-N.jpg","img/neutralC/CFD-BF-051-035-N.jpg","img/neutralC/CFD-IM-637-007-N.jpg","0","1","1","0","0","0","0.303393299996969","0.402714199997718","0.44224530000065","1","1","1","1","1","1","1","1","1"
"250024","img/neutralC/CFD-IM-637-007-N.jpg","img/neutralC/CFD-IF-619-197-N.jpg","img/neutralC/CFD-IM-604-014-N.jpg","1","0","1","0","0","0","0.44224530000065","0.303393299996969","0.452091600003769","1","1","1","1","1","1","1","1","1"
"250024","img/neutralC/CFD-IM-604-014-N.jpg","img/neutralC/CFD-IM-637-007-N.jpg","img/neutralC/CFD-WM-232-070-N.jpg","1","1","1","0","0","0","0.452091600003769","0.44224530000065","0.36246299999766","1","1","1","1","1","1","1","1","1"
"250024","img/neutralC/CFD-WM-232-070-N.jpg","img/neutralC/CFD-IM-604-014-N.jpg","img/neutralC/CFD-IM-675-015-N.jpg","1","1","1","0","0","1","0.36246299999766","0.452091600003769","0.384337099996628","1","1","1","1","1","1","1","1","1"
"250024","img/neutralC/CFD-IM-675-015-N.jpg","img/neutralC/CFD-WM-232-070-N.jpg","img/neutralC/CFD-AM-236-090-N.jpg","1","1","1","1","0","1","0.384337099996628","0.36246299999766","0.596710500001791","1","1","1","1","1","1","1","1","1"
"250024","img/neutralC/CFD-AM-236-090-N.jpg","img/neutralC/CFD-IM-675-015-N.jpg","img/neutralC/CFD-IF-608-390-N.jpg","1","1","1","1","1","1","0.596710500001791","0.384337099996628","0.369069799999124","1","1","1","1","1","1","1","1","1"
"250024","img/neutralC/CFD-IF-608-390-N.jpg","img/neutralC/CFD-AM-236-090-N.jpg","img/neutralC/CFD-BF-043-003-N.jpg","1","1","1","1","1","0","0.369069799999124","0.596710500001791","0.344783900000039","1","1","1","1","1","1","1","1","1"
"250024","img/neutralC/CFD-BF-043-003-N.jpg","img/neutralC/CFD-IF-608-390-N.jpg","img/neutralC/CFD-BF-224-002-N.jpg","1","1","1","0","1","1","0.344783900000039","0.369069799999124","0.307943399995565","1","1","1","1","1","1","1","1","1"
"250024","img/neutralC/CFD-BF-224-002-N.jpg","img/neutralC/CFD-BF-043-003-N.jpg","img/neutralC/CFD-WF-212-050-N.jpg","1","1","1","1","0","0","0.307943399995565","0.344783900000039","0.551202399990871","1","1","1","1","1","1","1","1","1"
"250024","img/neutralC/CFD-WF-212-050-N.jpg","img/neutralC/CFD-BF-224-002-N.jpg","img/neutralC/CFD-MF-329-001-N.jpg","1","1","1","0","1","0","0.551202399990871","0.307943399995565","0.468071600000258","1","1","1","1","1","1","1","1","1"
"250024","img/neutralC/CFD-MF-329-001-N.jpg","img/neutralC/CFD-WF-212-050-N.jpg","img/neutralC/CFD-WF-008-002-N.jpg","1","1","1","0","0","1","0.468071600000258","0.551202399990871","0.314679599992814","1","1","1","1","1","1","1","1","1"
"250024","img/neutralC/CFD-WF-008-002-N.jpg","img/neutralC/CFD-MF-329-001-N.jpg","img/neutralC/CFD-MF-300-002-N.jpg","1","1","1","1","0","0","0.314679599992814","0.468071600000258","0.374240099990857","1","1","1","1","1","1","1","1","1"
"250024","img/neutralC/CFD-MF-300-002-N.jpg","img/neutralC/CFD-WF-008-002-N.jpg","img/neutralC/CFD-BM-039-029-N.jpg","1","1","1","0","1","1","0.374240099990857","0.314679599992814","0.393226300002425","1","1","1","1","1","1","1","1","1"
"250024","img/neutralC/CFD-BM-039-029-N.jpg","img/neutralC/CFD-MF-300-002-N.jpg","img/neutralC/CFD-AF-215-70-N.jpg","1","1","1","1","0","0","0.393226300002425","0.374240099990857","0.47917530000268","1","1","1","1","1","1","1","1","1"
"250024","img/neutralC/CFD-AF-215-70-N.jpg","img/neutralC/CFD-BM-039-029-N.jpg","img/neutralC/CFD-LM-217-162-N.jpg","1","1","1","0","1","0","0.47917530000268","0.393226300002425","0.348830299990368","1","1","1","1","1","1","1","1","1"
"250024","img/neutralC/CFD-LM-217-162-N.jpg","img/neutralC/CFD-AF-215-70-N.jpg","img/neutralC/CFD-AF-229-160-N.jpg","1","1","1","0","0","0","0.348830299990368","0.47917530000268","0.437660399999004","1","1","1","1","1","1","1","1","1"
"250024","img/neutralC/CFD-AF-229-160-N.jpg","img/neutralC/CFD-LM-217-162-N.jpg","img/neutralC/CFD-WF-248-129-N.jpg","1","1","1","0","0","0","0.437660399999004","0.348830299990368","0.488660299990443","1","1","1","1","1","1","1","1","1"
"250024","img/neutralC/CFD-WF-248-129-N.jpg","img/neutralC/CFD-AF-229-160-N.jpg","img/neutralC/CFD-WF-217-085-N.jpg","1","1","1","0","0","1","0.488660299990443","0.437660399999004","0.32340930000646","1","1","1","1","1","1","1","1","1"
"250024","img/neutralC/CFD-WF-217-085-N.jpg","img/neutralC/CFD-WF-248-129-N.jpg","img/neutralC/CFD-MM-304-002-N.jpg","1","1","1","1","0","1","0.32340930000646","0.488660299990443","0.424014199990779","1","1","1","1","1","1","1","1","1"
"250024","img/neutralC/CFD-MM-304-002-N.jpg","img/neutralC/CFD-WF-217-085-N.jpg","img/neutralC/CFD-MF-340-026-N.jpg","1","1","1","1","1","1","0.424014199990779","0.32340930000646","0.354611399990972","1","1","1","1","1","1","1","1","1"
"250024","img/neutralC/CFD-MF-340-026-N.jpg","img/neutralC/CFD-MM-304-002-N.jpg","img/neutralC/CFD-WM-024-015-N.jpg","1","1","1","1","1","1","0.354611399990972","0.424014199990779","0.400145399995381","1","1","1","1","1","1","1","1","1"
"250024","img/neutralC/CFD-WM-024-015-N.jpg","img/neutralC/CFD-MF-340-026-N.jpg","img/neutralC/CFD-LF-226-174-N.jpg","1","1","1","1","1","0","0.400145399995381","0.354611399990972","0.415895199985243","1","1","1","1","1","1","1","1","1"
"250024","img/neutralC/CFD-LF-226-174-N.jpg","img/neutralC/CFD-WM-024-015-N.jpg","img/neutralC/CFD-LF-201-035-N.jpg","1","1","1","0","1","1","0.415895199985243","0.400145399995381","0.37231239999528","1","1","1","1","1","1","1","1","1"
"250024","img/neutralC/CFD-LF-201-035-N.jpg","img/neutralC/CFD-LF-226-174-N.jpg","img/neutralC/CFD-AF-254-167-N.jpg","1","1","1","1","0","1","0.37231239999528","0.415895199985243","0.373300100007327","1","1","1","1","1","1","1","1","1"
"250024","img/neutralC/CFD-AF-254-167-N.jpg","img/neutralC/CFD-LF-201-035-N.jpg","img/neutralC/CFD-IM-685-004-N.jpg","1","1","1","1","1","1","0.373300100007327","0.37231239999528","0.476055099992664","1","1","1","1","1","1","1","1","1"
"250024","img/neutralC/CFD-IM-685-004-N.jpg","img/neutralC/CFD-AF-254-167-N.jpg","img/neutralC/CFD-IM-709-103-N.jpg","1","1","0","1","1","0","0.476055099992664","0.373300100007327","0.516086800009361","1","1","1","1","1","1","1","1","1"
"250024","img/neutralC/CFD-IM-709-103-N.jpg","img/neutralC/CFD-IM-685-004-N.jpg","img/neutralC/CFD-BM-243-218-N.jpg","0","1","1","0","1","1","0.516086800009361","0.476055099992664","0.849266799996258","1","1","1","1","1","1","1","1","1"
"250024","img/neutralC/CFD-BM-243-218-N.jpg","img/neutralC/CFD-IM-709-103-N.jpg",NA,"1","0",NA,"1","0",NA,"0.849266799996258","0.516086800009361",NA,"1","1",NA,"1","1",NA,"1","1",NA
"250024","img/neutralC/CFD-WM-254-152-N.jpg",NA,"img/neutralC/CFD-LF-210-220-N.jpg","1",NA,"1","1",NA,"1","0.474781500000972",NA,"0.388706600002479","1",NA,"1","1",NA,"1","1",NA,"1"
"250024","img/neutralC/CFD-LF-210-220-N.jpg","img/neutralC/CFD-WM-254-152-N.jpg","img/neutralC/CFD-WF-006-002-N.jpg","1","1","1","1","1","0","0.388706600002479","0.474781500000972","0.365019799995935","1","1","1","1","1","1","1","1","1"
"250024","img/neutralC/CFD-WF-006-002-N.jpg","img/neutralC/CFD-LF-210-220-N.jpg","img/neutralC/CFD-AF-210-050-N.jpg","1","1","1","0","1","1","0.365019799995935","0.388706600002479","0.324958400000469","1","1","1","1","1","1","1","1","1"
"250024","img/neutralC/CFD-AF-210-050-N.jpg","img/neutralC/CFD-WF-006-002-N.jpg","img/neutralC/CFD-WM-228-065-N.jpg","1","1","1","1","0","0","0.324958400000469","0.365019799995935","0.429308899998432","1","1","1","1","1","1","1","1","1"
"250024","img/neutralC/CFD-WM-228-065-N.jpg","img/neutralC/CFD-AF-210-050-N.jpg","img/neutralC/CFD-IM-659-359-N.jpg","1","1","1","0","1","0","0.429308899998432","0.324958400000469","0.553296699989005","1","1","1","1","1","1","1","1","1"
"250024","img/neutralC/CFD-IM-659-359-N.jpg","img/neutralC/CFD-WM-228-065-N.jpg","img/neutralC/CFD-BM-213-134-N.jpg","1","1","1","0","0","1","0.553296699989005","0.429308899998432","0.389181499995175","1","1","1","1","1","1","1","1","1"
"250024","img/neutralC/CFD-BM-213-134-N.jpg","img/neutralC/CFD-IM-659-359-N.jpg","img/neutralC/CFD-WM-202-107-N.jpg","1","1","1","1","0","1","0.389181499995175","0.553296699989005","0.304100399996969","1","1","1","1","1","1","1","1","1"
"250024","img/neutralC/CFD-WM-202-107-N.jpg","img/neutralC/CFD-BM-213-134-N.jpg","img/neutralC/CFD-BF-045-003-N.jpg","1","1","1","1","1","0","0.304100399996969","0.389181499995175","0.385290299993358","1","1","1","1","1","1","1","1","1"
"250024","img/neutralC/CFD-BF-045-003-N.jpg","img/neutralC/CFD-WM-202-107-N.jpg","img/neutralC/CFD-BM-003-003-N.jpg","1","1","1","0","1","0","0.385290299993358","0.304100399996969","0.412464599998202","1","1","1","1","1","1","1","1","1"
"250024","img/neutralC/CFD-BM-003-003-N.jpg","img/neutralC/CFD-BF-045-003-N.jpg","img/neutralC/CFD-IM-738-191-N.jpg","1","1","1","0","0","0","0.412464599998202","0.385290299993358","0.307048999995459","1","1","1","1","1","1","1","1","1"
"250024","img/neutralC/CFD-IM-738-191-N.jpg","img/neutralC/CFD-BM-003-003-N.jpg","img/neutralC/CFD-AM-221-184-N.jpg","1","1","1","0","0","1","0.307048999995459","0.412464599998202","0.3807986999891","1","1","1","1","1","1","1","1","1"
"250024","img/neutralC/CFD-AM-221-184-N.jpg","img/neutralC/CFD-IM-738-191-N.jpg","img/neutralC/CFD-AF-239-171-N.jpg","1","1","1","1","0","1","0.3807986999891","0.307048999995459","0.367050199987716","1","1","1","1","1","1","1","1","1"
"250024","img/neutralC/CFD-AF-239-171-N.jpg","img/neutralC/CFD-AM-221-184-N.jpg","img/neutralC/CFD-LM-238-129-N.jpg","1","1","1","1","1","1","0.367050199987716","0.3807986999891","0.375967100000707","1","1","1","1","1","1","1","1","1"
"250024","img/neutralC/CFD-LM-238-129-N.jpg","img/neutralC/CFD-AF-239-171-N.jpg","img/neutralC/CFD-BM-013-002-N.jpg","1","1","1","1","1","1","0.375967100000707","0.367050199987716","0.406807099992875","1","1","1","1","1","1","1","1","1"
"250024","img/neutralC/CFD-BM-013-002-N.jpg","img/neutralC/CFD-LM-238-129-N.jpg","img/neutralC/CFD-BF-004-014-N.jpg","1","1","1","1","1","1","0.406807099992875","0.375967100000707","0.377123700003722","1","1","1","1","1","1","1","1","1"
"250024","img/neutralC/CFD-BF-004-014-N.jpg","img/neutralC/CFD-BM-013-002-N.jpg","img/neutralC/CFD-IM-701-312-N.jpg","1","1","1","1","1","0","0.377123700003722","0.406807099992875","0.445911799994064","1","1","1","1","1","1","1","1","1"
"250024","img/neutralC/CFD-IM-701-312-N.jpg","img/neutralC/CFD-BF-004-014-N.jpg","img/neutralC/CFD-WF-223-133-N.jpg","1","1","1","0","1","0","0.445911799994064","0.377123700003722","0.591313800003263","1","1","1","1","1","1","1","1","1"
"250024","img/neutralC/CFD-WF-223-133-N.jpg","img/neutralC/CFD-IM-701-312-N.jpg","img/neutralC/CFD-MF-312-002-N.jpg","1","1","1","0","0","1","0.591313800003263","0.445911799994064","0.336153299998841","1","1","1","1","1","1","1","1","1"
"250024","img/neutralC/CFD-MF-312-002-N.jpg","img/neutralC/CFD-WF-223-133-N.jpg","img/neutralC/CFD-LF-208-127-N.jpg","1","1","1","1","0","0","0.336153299998841","0.591313800003263","0.421155299991369","1","1","1","1","1","1","1","1","1"
"250024","img/neutralC/CFD-LF-208-127-N.jpg","img/neutralC/CFD-MF-312-002-N.jpg","img/neutralC/CFD-LM-247-095-N.jpg","1","1","1","0","1","0","0.421155299991369","0.336153299998841","0.565592300001299","1","1","1","1","1","1","1","1","1"
"250024","img/neutralC/CFD-LM-247-095-N.jpg","img/neutralC/CFD-LF-208-127-N.jpg","img/neutralC/CFD-BM-028-002-N.jpg","1","1","1","0","0","1","0.565592300001299","0.421155299991369","0.409766999990097","1","1","1","1","1","1","1","1","1"
"250024","img/neutralC/CFD-BM-028-002-N.jpg","img/neutralC/CFD-LM-247-095-N.jpg","img/neutralC/CFD-WF-033-002-N.jpg","1","1","1","1","0","1","0.409766999990097","0.565592300001299","0.473622899997281","1","1","1","1","1","1","1","1","1"
"250024","img/neutralC/CFD-WF-033-002-N.jpg","img/neutralC/CFD-BM-028-002-N.jpg","img/neutralC/CFD-LF-241-188-N.jpg","1","1","1","1","1","0","0.473622899997281","0.409766999990097","0.499308399987058","1","1","1","1","1","1","1","1","1"
"250024","img/neutralC/CFD-LF-241-188-N.jpg","img/neutralC/CFD-WF-033-002-N.jpg","img/neutralC/CFD-BM-010-003-N.jpg","1","1","1","0","1","0","0.499308399987058","0.473622899997281","0.478247399994871","1","1","1","1","1","1","1","1","1"
"250024","img/neutralC/CFD-BM-010-003-N.jpg","img/neutralC/CFD-LF-241-188-N.jpg","img/neutralC/CFD-IF-744-114-N.jpg","1","1","1","0","0","0","0.478247399994871","0.499308399987058","0.297843299995293","1","1","1","1","1","1","1","1","1"
"250024","img/neutralC/CFD-IF-744-114-N.jpg","img/neutralC/CFD-BM-010-003-N.jpg","img/neutralC/CFD-BF-222-240-N.jpg","1","1","1","0","0","0","0.297843299995293","0.478247399994871","0.541761700005736","1","1","1","1","1","1","1","1","1"
"250024","img/neutralC/CFD-BF-222-240-N.jpg","img/neutralC/CFD-IF-744-114-N.jpg","img/neutralC/CFD-AF-227-207-N.jpg","1","1","1","0","0","1","0.541761700005736","0.297843299995293","0.495585199998459","1","1","1","1","1","1","1","1","1"
"250024","img/neutralC/CFD-AF-227-207-N.jpg","img/neutralC/CFD-BF-222-240-N.jpg","img/neutralC/CFD-LF-225-164-N.jpg","1","1","1","1","0","1","0.495585199998459","0.541761700005736","0.41466369999398","1","1","1","1","1","1","1","1","1"
"250024","img/neutralC/CFD-LF-225-164-N.jpg","img/neutralC/CFD-AF-227-207-N.jpg","img/neutralC/CFD-MF-336-016-N.jpg","1","1","0","1","1","1","0.41466369999398","0.495585199998459","0.463474400006817","1","1","1","1","1","1","1","1","1"
"250024","img/neutralC/CFD-MF-336-016-N.jpg","img/neutralC/CFD-LF-225-164-N.jpg","img/neutralC/CFD-IF-673-389-N.jpg","0","1","1","1","1","0","0.463474400006817","0.41466369999398","0.470889200005331","1","1","1","1","1","1","1","1","1"
"250024","img/neutralC/CFD-IF-673-389-N.jpg","img/neutralC/CFD-MF-336-016-N.jpg","img/neutralC/CFD-IF-625-225-N.jpg","1","0","1","0","1","0","0.470889200005331","0.463474400006817","0.396828600001754","1","1","1","1","1","1","1","1","1"
"250024","img/neutralC/CFD-IF-625-225-N.jpg","img/neutralC/CFD-IF-673-389-N.jpg",NA,"1","1",NA,"0","0",NA,"0.396828600001754","0.470889200005331",NA,"1","1",NA,"1","1",NA,"1","1",NA
"250024","img/neutralC/CFD-LF-238-154-N.jpg",NA,"img/neutralC/CFD-WM-023-001-N.jpg","1",NA,"1","1",NA,"0","0.363604799989844",NA,"0.538120299985167","1",NA,"1","1",NA,"1","1",NA,"1"
"250024","img/neutralC/CFD-WM-023-001-N.jpg","img/neutralC/CFD-LF-238-154-N.jpg","img/neutralC/CFD-AM-219-101-N.jpg","1","1","1","0","1","0","0.538120299985167","0.363604799989844","0.446016499990947","1","1","1","1","1","1","1","1","1"
"250024","img/neutralC/CFD-AM-219-101-N.jpg","img/neutralC/CFD-WM-023-001-N.jpg","img/neutralC/CFD-LF-222-147-N.jpg","1","1","1","0","0","0","0.446016499990947","0.538120299985167","0.368567500001518","1","1","1","1","1","1","1","1","1"
"250024","img/neutralC/CFD-LF-222-147-N.jpg","img/neutralC/CFD-AM-219-101-N.jpg","img/neutralC/CFD-WM-025-002-N.jpg","1","1","1","0","0","0","0.368567500001518","0.446016499990947","0.325825000007171","1","1","1","1","1","1","1","1","1"
"250024","img/neutralC/CFD-WM-025-002-N.jpg","img/neutralC/CFD-LF-222-147-N.jpg","img/neutralC/CFD-WF-243-148-N.jpg","1","1","1","0","0","0","0.325825000007171","0.368567500001518","0.306868700004998","1","1","1","1","1","1","1","1","1"
"250024","img/neutralC/CFD-WF-243-148-N.jpg","img/neutralC/CFD-WM-025-002-N.jpg","img/neutralC/CFD-WF-241-210-N.jpg","1","1","1","0","0","0","0.306868700004998","0.325825000007171","0.374207499990007","1","1","1","1","1","1","1","1","1"
"250024","img/neutralC/CFD-WF-241-210-N.jpg","img/neutralC/CFD-WF-243-148-N.jpg","img/neutralC/CFD-AF-237-223-N.jpg","1","1","1","0","0","0","0.374207499990007","0.306868700004998","0.415265900010127","1","1","1","1","1","1","1","1","1"
"250024","img/neutralC/CFD-AF-237-223-N.jpg","img/neutralC/CFD-WF-241-210-N.jpg","img/neutralC/CFD-BM-043-071-N.jpg","1","1","1","0","0","0","0.415265900010127","0.374207499990007","0.37201889998687","1","1","1","1","1","1","1","1","1"
"250024","img/neutralC/CFD-BM-043-071-N.jpg","img/neutralC/CFD-AF-237-223-N.jpg","img/neutralC/CFD-WF-207-014-N.jpg","1","1","1","0","0","1","0.37201889998687","0.415265900010127","0.351137500008917","1","1","1","1","1","1","1","1","1"
"250024","img/neutralC/CFD-WF-207-014-N.jpg","img/neutralC/CFD-BM-043-071-N.jpg","img/neutralC/CFD-BM-020-001-N.jpg","1","1","1","1","0","0","0.351137500008917","0.37201889998687","0.471188399998937","1","1","1","1","1","1","1","1","1"
"250024","img/neutralC/CFD-BM-020-001-N.jpg","img/neutralC/CFD-WF-207-014-N.jpg","img/neutralC/CFD-IM-606-008-N.jpg","1","1","1","0","1","0","0.471188399998937","0.351137500008917","0.4578376999998","1","1","1","1","1","1","1","1","1"
"250024","img/neutralC/CFD-IM-606-008-N.jpg","img/neutralC/CFD-BM-020-001-N.jpg","img/neutralC/CFD-BF-012-001-N.jpg","1","1","1","0","0","0","0.4578376999998","0.471188399998937","0.501057800007402","1","1","1","1","1","1","1","1","1"
"250024","img/neutralC/CFD-BF-012-001-N.jpg","img/neutralC/CFD-IM-606-008-N.jpg","img/neutralC/CFD-BM-021-021-N.jpg","1","1","1","0","0","1","0.501057800007402","0.4578376999998","0.620533099994645","1","1","1","1","1","1","1","1","1"
"250024","img/neutralC/CFD-BM-021-021-N.jpg","img/neutralC/CFD-BF-012-001-N.jpg","img/neutralC/CFD-IF-676-017-N.jpg","1","1","1","1","0","1","0.620533099994645","0.501057800007402","0.548198600008618","1","1","1","1","1","1","1","1","1"
"250024","img/neutralC/CFD-IF-676-017-N.jpg","img/neutralC/CFD-BM-021-021-N.jpg","img/neutralC/CFD-IM-697-015-N.jpg","1","1","1","1","1","1","0.548198600008618","0.620533099994645","0.41836099998909","1","1","1","1","1","1","1","1","1"
"250024","img/neutralC/CFD-IM-697-015-N.jpg","img/neutralC/CFD-IF-676-017-N.jpg","img/neutralC/CFD-BM-227-191-N.jpg","1","1","1","1","1","1","0.41836099998909","0.548198600008618","0.389616099986597","1","1","1","1","1","1","1","1","1"
"250024","img/neutralC/CFD-BM-227-191-N.jpg","img/neutralC/CFD-IM-697-015-N.jpg","img/neutralC/CFD-AM-205-153-N.jpg","1","1","1","1","1","1","0.389616099986597","0.41836099998909","0.396270099998219","1","1","1","1","1","1","1","1","1"
"250024","img/neutralC/CFD-AM-205-153-N.jpg","img/neutralC/CFD-BM-227-191-N.jpg","img/neutralC/CFD-AM-249-163-N.jpg","1","1","1","1","1","1","0.396270099998219","0.389616099986597","0.339659399993252","1","1","1","1","1","1","1","1","1"
"250024","img/neutralC/CFD-AM-249-163-N.jpg","img/neutralC/CFD-AM-205-153-N.jpg","img/neutralC/CFD-IM-689-263-N.jpg","1","1","1","1","1","1","0.339659399993252","0.396270099998219","0.397531499998877","1","1","1","1","1","1","1","1","1"
"250024","img/neutralC/CFD-IM-689-263-N.jpg","img/neutralC/CFD-AM-249-163-N.jpg","img/neutralC/CFD-LF-212-066-N.jpg","1","1","1","1","1","1","0.397531499998877","0.339659399993252","0.381436000010581","1","1","1","1","1","1","1","1","1"
"250024","img/neutralC/CFD-LF-212-066-N.jpg","img/neutralC/CFD-IM-689-263-N.jpg","img/neutralC/CFD-BM-030-003-N.jpg","1","1","1","1","1","0","0.381436000010581","0.397531499998877","0.441622800004552","1","1","1","1","1","1","1","1","1"
"250024","img/neutralC/CFD-BM-030-003-N.jpg","img/neutralC/CFD-LF-212-066-N.jpg","img/neutralC/CFD-MM-306-010-N.jpg","1","1","1","0","1","0","0.441622800004552","0.381436000010581","0.39530430000741","1","1","1","1","1","1","1","1","1"
"250024","img/neutralC/CFD-MM-306-010-N.jpg","img/neutralC/CFD-BM-030-003-N.jpg","img/neutralC/CFD-BM-009-002-N.jpg","1","1","1","0","0","1","0.39530430000741","0.441622800004552","0.503191600000719","1","1","1","1","1","1","1","1","1"
"250024","img/neutralC/CFD-BM-009-002-N.jpg","img/neutralC/CFD-MM-306-010-N.jpg","img/neutralC/CFD-WF-009-001-N.jpg","1","1","1","1","0","1","0.503191600000719","0.39530430000741","0.38782619999256","1","1","1","1","1","1","1","1","1"
"250024","img/neutralC/CFD-WF-009-001-N.jpg","img/neutralC/CFD-BM-009-002-N.jpg","img/neutralC/CFD-WM-028-003-N.jpg","1","1","1","1","1","1","0.38782619999256","0.503191600000719","0.442900699999882","1","1","1","1","1","1","1","1","1"
"250024","img/neutralC/CFD-WM-028-003-N.jpg","img/neutralC/CFD-WF-009-001-N.jpg","img/neutralC/CFD-MF-328-020-N.jpg","1","1","1","1","1","0","0.442900699999882","0.38782619999256","0.601374100006069","1","1","1","1","1","1","1","1","1"
"250024","img/neutralC/CFD-MF-328-020-N.jpg","img/neutralC/CFD-WM-028-003-N.jpg","img/neutralC/CFD-BF-244-231-N.jpg","1","1","1","0","1","1","0.601374100006069","0.442900699999882","0.335640899997088","1","1","1","1","1","1","1","1","1"
"250024","img/neutralC/CFD-BF-244-231-N.jpg","img/neutralC/CFD-MF-328-020-N.jpg","img/neutralC/CFD-IM-615-167-N.jpg","1","1","1","1","0","0","0.335640899997088","0.601374100006069","0.413971899994067","1","1","1","1","1","1","1","1","1"
"250024","img/neutralC/CFD-IM-615-167-N.jpg","img/neutralC/CFD-BF-244-231-N.jpg","img/neutralC/CFD-LM-240-013-N.jpg","1","1","1","0","1","1","0.413971899994067","0.335640899997088","0.409002200001851","1","1","1","1","1","1","1","1","1"
"250024","img/neutralC/CFD-LM-240-013-N.jpg","img/neutralC/CFD-IM-615-167-N.jpg","img/neutralC/CFD-WF-221-005-N.jpg","1","1","1","1","0","0","0.409002200001851","0.413971899994067","0.477829699986614","1","1","1","1","1","1","1","1","1"
"250024","img/neutralC/CFD-WF-221-005-N.jpg","img/neutralC/CFD-LM-240-013-N.jpg","img/neutralC/CFD-AM-243-212-N.jpg","1","1","1","0","1","1","0.477829699986614","0.409002200001851","0.325009299995145","1","1","1","1","1","1","1","1","1"
"250024","img/neutralC/CFD-AM-243-212-N.jpg","img/neutralC/CFD-WF-221-005-N.jpg",NA,"1","1",NA,"1","0",NA,"0.325009299995145","0.477829699986614",NA,"1","1",NA,"1","1",NA,"1","1",NA
"250024","img/neutralC/CFD-BM-238-242-N.jpg",NA,"img/neutralC/CFD-BF-044-034-N.jpg","1",NA,"1","0",NA,"0","0.556906299985712",NA,"0.372655400002259","1",NA,"1","1",NA,"1","1",NA,"1"
"250024","img/neutralC/CFD-BF-044-034-N.jpg","img/neutralC/CFD-BM-238-242-N.jpg","img/neutralC/CFD-BF-247-179-N.jpg","1","1","0","0","0","0","0.372655400002259","0.556906299985712","0.291320299991639","1","1","1","1","1","1","1","1","1"
"250024","img/neutralC/CFD-BF-247-179-N.jpg","img/neutralC/CFD-BF-044-034-N.jpg","img/neutralC/CFD-IM-721-341-N.jpg","0","1","1","0","0","1","0.291320299991639","0.372655400002259","0.329819699996733","1","1","1","1","1","1","1","1","1"
"250024","img/neutralC/CFD-IM-721-341-N.jpg","img/neutralC/CFD-BF-247-179-N.jpg","img/neutralC/CFD-IF-742-103-N.jpg","1","0","1","1","0","1","0.329819699996733","0.291320299991639","0.337370099994587","1","1","1","1","1","1","1","1","1"
"250024","img/neutralC/CFD-IF-742-103-N.jpg","img/neutralC/CFD-IM-721-341-N.jpg","img/neutralC/CFD-WM-034-030-N.jpg","1","1","1","1","1","1","0.337370099994587","0.329819699996733","0.377937500001281","1","1","1","1","1","1","1","1","1"
"250024","img/neutralC/CFD-WM-034-030-N.jpg","img/neutralC/CFD-IF-742-103-N.jpg","img/neutralC/CFD-BM-207-024-N.jpg","1","1","1","1","1","1","0.377937500001281","0.337370099994587","0.516055200001574","1","1","1","1","1","1","1","1","1"
"250024","img/neutralC/CFD-BM-207-024-N.jpg","img/neutralC/CFD-WM-034-030-N.jpg","img/neutralC/CFD-WF-234-086-N.jpg","1","1","1","1","1","1","0.516055200001574","0.377937500001281","0.36277720000362","1","1","1","1","1","1","1","1","1"
"250024","img/neutralC/CFD-WF-234-086-N.jpg","img/neutralC/CFD-BM-207-024-N.jpg","img/neutralC/CFD-BF-027-002-N.jpg","1","1","1","1","1","1","0.36277720000362","0.516055200001574","0.393137399994885","1","1","1","1","1","1","1","1","1"
"250024","img/neutralC/CFD-BF-027-002-N.jpg","img/neutralC/CFD-WF-234-086-N.jpg","img/neutralC/CFD-BM-241-235-N.jpg","1","1","1","1","1","0","0.393137399994885","0.36277720000362","0.589862499997253","1","1","1","1","1","1","1","1","1"
"250024","img/neutralC/CFD-BM-241-235-N.jpg","img/neutralC/CFD-BF-027-002-N.jpg","img/neutralC/CFD-BF-002-001-N.jpg","1","1","1","0","1","0","0.589862499997253","0.393137399994885","0.555555099999765","1","1","1","1","1","1","1","1","1"
"250024","img/neutralC/CFD-BF-002-001-N.jpg","img/neutralC/CFD-BM-241-235-N.jpg","img/neutralC/CFD-WM-014-002-N.jpg","1","1","1","0","0","0","0.555555099999765","0.589862499997253","0.53077649998886","1","1","1","1","1","1","1","1","1"
"250024","img/neutralC/CFD-WM-014-002-N.jpg","img/neutralC/CFD-BF-002-001-N.jpg","img/neutralC/CFD-AM-230-150-N.jpg","1","1","1","0","0","0","0.53077649998886","0.555555099999765","0.414577599993208","1","1","1","1","1","1","1","1","1"
"250024","img/neutralC/CFD-AM-230-150-N.jpg","img/neutralC/CFD-WM-014-002-N.jpg","img/neutralC/CFD-MF-301-024-N.jpg","1","1","1","0","0","0","0.414577599993208","0.53077649998886","0.368478199990932","1","1","1","1","1","1","1","1","1"
"250024","img/neutralC/CFD-MF-301-024-N.jpg","img/neutralC/CFD-AM-230-150-N.jpg","img/neutralC/CFD-WM-248-036-N.jpg","1","1","1","0","0","1","0.368478199990932","0.414577599993208","0.427716799997143","1","1","1","1","1","1","1","1","1"
"250024","img/neutralC/CFD-WM-248-036-N.jpg","img/neutralC/CFD-MF-301-024-N.jpg","img/neutralC/CFD-IM-726-248-N.jpg","1","1","1","1","0","0","0.427716799997143","0.368478199990932","0.500962300007814","1","1","1","1","1","1","1","1","1"
"250024","img/neutralC/CFD-IM-726-248-N.jpg","img/neutralC/CFD-WM-248-036-N.jpg","img/neutralC/CFD-BF-011-002-N.jpg","1","1","1","0","1","1","0.500962300007814","0.427716799997143","0.481752199993934","1","1","1","1","1","1","1","1","1"
"250024","img/neutralC/CFD-BF-011-002-N.jpg","img/neutralC/CFD-IM-726-248-N.jpg","img/neutralC/CFD-BF-207-004-N.jpg","1","1","1","1","0","1","0.481752199993934","0.500962300007814","0.391121499997098","1","1","1","1","1","1","1","1","1"
"250024","img/neutralC/CFD-BF-207-004-N.jpg","img/neutralC/CFD-BF-011-002-N.jpg","img/neutralC/CFD-IM-696-001-N.jpg","1","1","1","1","1","0","0.391121499997098","0.481752199993934","0.711064699993585","1","1","1","1","1","1","1","1","1"
"250024","img/neutralC/CFD-IM-696-001-N.jpg","img/neutralC/CFD-BF-207-004-N.jpg","img/neutralC/CFD-WF-029-002-N.jpg","1","1","1","0","1","0","0.711064699993585","0.391121499997098","0.448446099995635","1","1","1","1","1","1","1","1","1"
"250024","img/neutralC/CFD-WF-029-002-N.jpg","img/neutralC/CFD-IM-696-001-N.jpg","img/neutralC/CFD-BM-036-003-N.jpg","1","1","1","0","0","1","0.448446099995635","0.711064699993585","0.348246499997913","1","1","1","1","1","1","1","1","1"
"250024","img/neutralC/CFD-BM-036-003-N.jpg","img/neutralC/CFD-WF-029-002-N.jpg","img/neutralC/CFD-IM-707-105-N.jpg","1","1","1","1","0","1","0.348246499997913","0.448446099995635","0.423826699989149","1","1","1","1","1","1","1","1","1"
"250024","img/neutralC/CFD-IM-707-105-N.jpg","img/neutralC/CFD-BM-036-003-N.jpg","img/neutralC/CFD-BF-214-308-N.jpg","1","1","1","1","1","1","0.423826699989149","0.348246499997913","0.422418400004972","1","1","1","1","1","1","1","1","1"
"250024","img/neutralC/CFD-BF-214-308-N.jpg","img/neutralC/CFD-IM-707-105-N.jpg","img/neutralC/CFD-IF-729-393-N.jpg","1","1","1","1","1","0","0.422418400004972","0.423826699989149","0.431822700003977","1","1","1","1","1","1","1","1","1"
"250024","img/neutralC/CFD-IF-729-393-N.jpg","img/neutralC/CFD-BF-214-308-N.jpg","img/neutralC/CFD-BF-236-177-N.jpg","1","1","1","0","1","0","0.431822700003977","0.422418400004972","0.352084099999047","1","1","1","1","1","1","1","1","1"
"250024","img/neutralC/CFD-BF-236-177-N.jpg","img/neutralC/CFD-IF-729-393-N.jpg","img/neutralC/CFD-IF-677-452-1-N.jpg","1","1","1","0","0","1","0.352084099999047","0.431822700003977","0.534315499986405","1","1","1","1","1","1","1","1","1"
"250024","img/neutralC/CFD-IF-677-452-1-N.jpg","img/neutralC/CFD-BF-236-177-N.jpg","img/neutralC/CFD-LF-204-133-N.jpg","1","1","1","1","0","1","0.534315499986405","0.352084099999047","0.40366469998844","1","1","1","1","1","1","1","1","1"
"250024","img/neutralC/CFD-LF-204-133-N.jpg","img/neutralC/CFD-IF-677-452-1-N.jpg","img/neutralC/CFD-WF-233-112-N.jpg","1","1","1","1","1","1","0.40366469998844","0.534315499986405","0.435599799995543","1","1","1","1","1","1","1","1","1"
"250024","img/neutralC/CFD-WF-233-112-N.jpg","img/neutralC/CFD-LF-204-133-N.jpg","img/neutralC/CFD-BF-036-027-N.jpg","1","1","1","1","1","0","0.435599799995543","0.40366469998844","0.474021399990306","1","1","1","1","1","1","1","1","1"
"250024","img/neutralC/CFD-BF-036-027-N.jpg","img/neutralC/CFD-WF-233-112-N.jpg","img/neutralC/CFD-LM-213-061-N.jpg","1","1","1","0","1","0","0.474021399990306","0.435599799995543","0.360851199991885","1","1","1","1","1","1","1","1","1"
"250024","img/neutralC/CFD-LM-213-061-N.jpg","img/neutralC/CFD-BF-036-027-N.jpg","img/neutralC/CFD-WF-208-068-N.jpg","1","1","1","0","0","1","0.360851199991885","0.474021399990306","0.43864229999599","1","1","1","1","1","1","1","1","1"
"250024","img/neutralC/CFD-WF-208-068-N.jpg","img/neutralC/CFD-LM-213-061-N.jpg","img/neutralC/CFD-BF-006-017-N.jpg","1","1","1","1","0","0","0.43864229999599","0.360851199991885","0.52823699999135","1","1","1","1","1","1","1","1","1"
"250024","img/neutralC/CFD-BF-006-017-N.jpg","img/neutralC/CFD-WF-208-068-N.jpg",NA,"1","1",NA,"0","1",NA,"0.52823699999135","0.43864229999599",NA,"1","1",NA,"1","1",NA,"1","1",NA
"250024","img/neutralC/CFD-WM-209-038-N.jpg",NA,"img/neutralC/CFD-IF-626-375-N.jpg","1",NA,"1","0",NA,"0","0.434568699987722",NA,"0.334238999988884","1",NA,"1","1",NA,"1","1",NA,"1"
"250024","img/neutralC/CFD-IF-626-375-N.jpg","img/neutralC/CFD-WM-209-038-N.jpg","img/neutralC/CFD-LM-200-045-N.jpg","1","1","1","0","0","1","0.334238999988884","0.434568699987722","0.393125999995391","1","1","1","1","1","1","1","1","1"
"250024","img/neutralC/CFD-LM-200-045-N.jpg","img/neutralC/CFD-IF-626-375-N.jpg","img/neutralC/CFD-WF-030-002-N.jpg","1","1","1","1","0","0","0.393125999995391","0.334238999988884","0.419610199998715","1","1","1","1","1","1","1","1","1"
"250024","img/neutralC/CFD-WF-030-002-N.jpg","img/neutralC/CFD-LM-200-045-N.jpg","img/neutralC/CFD-MF-316-001-N.jpg","1","1","0","0","1","0","0.419610199998715","0.393125999995391","0.434858900000108","1","1","1","1","1","1","1","1","1"
"250024","img/neutralC/CFD-MF-316-001-N.jpg","img/neutralC/CFD-WF-030-002-N.jpg","img/neutralC/CFD-IM-664-651-N.jpg","0","1","1","0","0","1","0.434858900000108","0.419610199998715","0.437394699998549","1","1","1","1","1","1","1","1","1"
"250024","img/neutralC/CFD-IM-664-651-N.jpg","img/neutralC/CFD-MF-316-001-N.jpg","img/neutralC/CFD-BM-217-082-N.jpg","1","0","0","1","0","0","0.437394699998549","0.434858900000108","0.426514799997676","1","1","1","1","1","1","1","1","1"
"250024","img/neutralC/CFD-BM-217-082-N.jpg","img/neutralC/CFD-IM-664-651-N.jpg","img/neutralC/CFD-WM-218-074-N.jpg","0","1","1","0","1","1","0.426514799997676","0.437394699998549","0.363232199990307","1","1","1","1","1","1","1","1","1"
"250024","img/neutralC/CFD-WM-218-074-N.jpg","img/neutralC/CFD-BM-217-082-N.jpg","img/neutralC/CFD-MF-343-001-N.jpg","1","0","1","1","0","1","0.363232199990307","0.426514799997676","0.323409499993431","1","1","1","1","1","1","1","1","1"
"250024","img/neutralC/CFD-MF-343-001-N.jpg","img/neutralC/CFD-WM-218-074-N.jpg","img/neutralC/CFD-WF-244-163-N.jpg","1","1","1","1","1","1","0.323409499993431","0.363232199990307","0.433804000000237","1","1","1","1","1","1","1","1","1"
"250024","img/neutralC/CFD-WF-244-163-N.jpg","img/neutralC/CFD-MF-343-001-N.jpg","img/neutralC/CFD-BF-237-172-N.jpg","1","1","1","1","1","1","0.433804000000237","0.323409499993431","0.357701200002339","1","1","1","1","1","1","1","1","1"
"250024","img/neutralC/CFD-BF-237-172-N.jpg","img/neutralC/CFD-WF-244-163-N.jpg","img/neutralC/CFD-AM-220-134-N.jpg","1","1","1","1","1","0","0.357701200002339","0.433804000000237","0.411947399989003","1","1","1","1","1","1","1","1","1"
"250024","img/neutralC/CFD-AM-220-134-N.jpg","img/neutralC/CFD-BF-237-172-N.jpg","img/neutralC/CFD-BM-001-014-N.jpg","1","1","1","0","1","0","0.411947399989003","0.357701200002339","0.341333799995482","1","1","1","1","1","1","1","1","1"
"250024","img/neutralC/CFD-BM-001-014-N.jpg","img/neutralC/CFD-AM-220-134-N.jpg","img/neutralC/CFD-IM-680-369-N.jpg","1","1","1","0","0","1","0.341333799995482","0.411947399989003","0.456612299996777","1","1","1","1","1","1","1","1","1"
"250024","img/neutralC/CFD-IM-680-369-N.jpg","img/neutralC/CFD-BM-001-014-N.jpg","img/neutralC/CFD-IM-667-369-N.jpg","1","1","1","1","0","0","0.456612299996777","0.341333799995482","0.475830600000336","1","1","1","1","1","1","1","1","1"
"250024","img/neutralC/CFD-IM-667-369-N.jpg","img/neutralC/CFD-IM-680-369-N.jpg","img/neutralC/CFD-AF-233-190-N.jpg","1","1","1","0","1","0","0.475830600000336","0.456612299996777","0.509586299987859","1","1","1","1","1","1","1","1","1"
"250024","img/neutralC/CFD-AF-233-190-N.jpg","img/neutralC/CFD-IM-667-369-N.jpg","img/neutralC/CFD-MF-305-014-N.jpg","1","1","1","0","0","1","0.509586299987859","0.475830600000336","0.469013099995209","1","1","1","1","1","1","1","1","1"
"250024","img/neutralC/CFD-MF-305-014-N.jpg","img/neutralC/CFD-AF-233-190-N.jpg","img/neutralC/CFD-MM-324-069-N.jpg","1","1","1","1","0","1","0.469013099995209","0.509586299987859","0.387637399995583","1","1","1","1","1","1","1","1","1"
"250024","img/neutralC/CFD-MM-324-069-N.jpg","img/neutralC/CFD-MF-305-014-N.jpg","img/neutralC/CFD-AF-253-130-N.jpg","1","1","1","1","1","1","0.387637399995583","0.469013099995209","0.427402999994229","1","1","1","1","1","1","1","1","1"
"250024","img/neutralC/CFD-AF-253-130-N.jpg","img/neutralC/CFD-MM-324-069-N.jpg","img/neutralC/CFD-IF-660-464-N.jpg","1","1","1","1","1","0","0.427402999994229","0.387637399995583","0.417910699994536","1","1","1","1","1","1","1","1","1"
"250024","img/neutralC/CFD-IF-660-464-N.jpg","img/neutralC/CFD-AF-253-130-N.jpg","img/neutralC/CFD-WF-222-092-N.jpg","1","1","1","0","1","1","0.417910699994536","0.427402999994229","0.422758300002897","1","1","1","1","1","1","1","1","1"
"250024","img/neutralC/CFD-WF-222-092-N.jpg","img/neutralC/CFD-IF-660-464-N.jpg","img/neutralC/CFD-BF-014-002-N.jpg","1","1","1","1","0","1","0.422758300002897","0.417910699994536","0.35417459999735","1","1","1","1","1","1","1","1","1"
"250024","img/neutralC/CFD-BF-014-002-N.jpg","img/neutralC/CFD-WF-222-092-N.jpg","img/neutralC/CFD-IM-706-002-N.jpg","1","1","1","1","1","0","0.35417459999735","0.422758300002897","0.427524200000334","1","1","1","1","1","1","1","1","1"
"250024","img/neutralC/CFD-IM-706-002-N.jpg","img/neutralC/CFD-BF-014-002-N.jpg","img/neutralC/CFD-LF-206-078-N.jpg","1","1","1","0","1","1","0.427524200000334","0.35417459999735","0.337537599989446","1","1","1","1","1","1","1","1","1"
"250024","img/neutralC/CFD-LF-206-078-N.jpg","img/neutralC/CFD-IM-706-002-N.jpg","img/neutralC/CFD-LM-225-130-N.jpg","1","1","1","1","0","0","0.337537599989446","0.427524200000334","0.38840579999669","1","1","1","1","1","1","1","1","1"
"250024","img/neutralC/CFD-LM-225-130-N.jpg","img/neutralC/CFD-LF-206-078-N.jpg","img/neutralC/CFD-IM-702-101-N.jpg","1","1","1","0","1","1","0.38840579999669","0.337537599989446","0.409280799984117","1","1","1","1","1","1","1","1","1"
"250024","img/neutralC/CFD-IM-702-101-N.jpg","img/neutralC/CFD-LM-225-130-N.jpg","img/neutralC/CFD-WF-007-001-N.jpg","1","1","1","1","0","1","0.409280799984117","0.38840579999669","0.339467500001774","1","1","1","1","1","1","1","1","1"
"250024","img/neutralC/CFD-WF-007-001-N.jpg","img/neutralC/CFD-IM-702-101-N.jpg","img/neutralC/CFD-WM-015-002-N.jpg","1","1","1","1","1","0","0.339467500001774","0.409280799984117","0.550380300002871","1","1","1","1","1","1","1","1","1"
"250024","img/neutralC/CFD-WM-015-002-N.jpg","img/neutralC/CFD-WF-007-001-N.jpg","img/neutralC/CFD-LF-255-088-N.jpg","1","1","1","0","1","0","0.550380300002871","0.339467500001774","0.376696999999695","1","1","1","1","1","1","1","1","1"
"250024","img/neutralC/CFD-LF-255-088-N.jpg","img/neutralC/CFD-WM-015-002-N.jpg","img/neutralC/CFD-MF-303-013-N.jpg","1","1","1","0","0","0","0.376696999999695","0.550380300002871","0.59321330000239","1","1","1","1","1","1","1","1","1"
"250024","img/neutralC/CFD-MF-303-013-N.jpg","img/neutralC/CFD-LF-255-088-N.jpg","img/neutralC/CFD-BM-250-170-N.jpg","1","1","1","0","0","1","0.59321330000239","0.376696999999695","0.425767299995641","1","1","1","1","1","1","1","1","1"
"250024","img/neutralC/CFD-BM-250-170-N.jpg","img/neutralC/CFD-MF-303-013-N.jpg","img/neutralC/CFD-MF-357-002-N.jpg","1","1","1","1","0","0","0.425767299995641","0.59321330000239","0.405167200005963","1","1","1","1","1","1","1","1","1"
"250024","img/neutralC/CFD-MF-357-002-N.jpg","img/neutralC/CFD-BM-250-170-N.jpg",NA,"1","1",NA,"0","1",NA,"0.405167200005963","0.425767299995641",NA,"1","1",NA,"1","1",NA,"1","1",NA
"250024","img/neutralC/CFD-WM-006-002-N.jpg",NA,"img/neutralC/CFD-BF-228-212-N.jpg","0",NA,"1","0",NA,"0","0.913393700000597",NA,"0.413438299990958","1",NA,"1","1",NA,"1","1",NA,"1"
"250024","img/neutralC/CFD-BF-228-212-N.jpg","img/neutralC/CFD-WM-006-002-N.jpg","img/neutralC/CFD-BF-041-001-N.jpg","1","0","1","0","0","1","0.413438299990958","0.913393700000597","0.360243600007379","1","1","1","1","1","1","1","1","1"
"250024","img/neutralC/CFD-BF-041-001-N.jpg","img/neutralC/CFD-BF-228-212-N.jpg","img/neutralC/CFD-MF-335-002-N.jpg","1","1","1","1","0","0","0.360243600007379","0.413438299990958","0.472594299993943","1","1","1","1","1","1","1","1","1"
"250024","img/neutralC/CFD-MF-335-002-N.jpg","img/neutralC/CFD-BF-041-001-N.jpg","img/neutralC/CFD-WM-019-003-N.jpg","1","1","1","0","1","1","0.472594299993943","0.360243600007379","0.367255199991632","1","1","1","1","1","1","1","1","1"
"250024","img/neutralC/CFD-WM-019-003-N.jpg","img/neutralC/CFD-MF-335-002-N.jpg","img/neutralC/CFD-WM-012-001-N.jpg","1","1","1","1","0","1","0.367255199991632","0.472594299993943","0.407698199996958","1","1","1","1","1","1","1","1","1"
"250024","img/neutralC/CFD-WM-012-001-N.jpg","img/neutralC/CFD-WM-019-003-N.jpg","img/neutralC/CFD-AF-240-206-N.jpg","1","1","1","1","1","0","0.407698199996958","0.367255199991632","0.409823499998311","1","1","1","1","1","1","1","1","1"
"250024","img/neutralC/CFD-AF-240-206-N.jpg","img/neutralC/CFD-WM-012-001-N.jpg","img/neutralC/CFD-IF-642-295-N.jpg","1","1","1","0","1","1","0.409823499998311","0.407698199996958","0.356344199986779","1","1","1","1","1","1","1","1","1"
"250024","img/neutralC/CFD-IF-642-295-N.jpg","img/neutralC/CFD-AF-240-206-N.jpg","img/neutralC/CFD-BM-248-128-N.jpg","1","1","1","1","0","0","0.356344199986779","0.409823499998311","0.360769899998559","1","1","1","1","1","1","1","1","1"
"250024","img/neutralC/CFD-BM-248-128-N.jpg","img/neutralC/CFD-IF-642-295-N.jpg","img/neutralC/CFD-WM-215-041-N.jpg","1","1","1","0","1","0","0.360769899998559","0.356344199986779","0.448973999984446","1","1","1","1","1","1","1","1","1"
"250024","img/neutralC/CFD-WM-215-041-N.jpg","img/neutralC/CFD-BM-248-128-N.jpg","img/neutralC/CFD-WM-026-001-N.jpg","1","1","1","0","0","1","0.448973999984446","0.360769899998559","0.304198500001803","1","1","1","1","1","1","1","1","1"
"250024","img/neutralC/CFD-WM-026-001-N.jpg","img/neutralC/CFD-WM-215-041-N.jpg","img/neutralC/CFD-BF-025-002-N.jpg","1","1","1","1","0","0","0.304198500001803","0.448973999984446","0.542213999986416","1","1","1","1","1","1","1","1","1"
"250024","img/neutralC/CFD-BF-025-002-N.jpg","img/neutralC/CFD-WM-026-001-N.jpg","img/neutralC/CFD-WM-249-239-N.jpg","1","1","1","0","1","1","0.542213999986416","0.304198500001803","0.421801099990262","1","1","1","1","1","1","1","1","1"
"250024","img/neutralC/CFD-WM-249-239-N.jpg","img/neutralC/CFD-BF-025-002-N.jpg","img/neutralC/CFD-BF-202-109-N.jpg","1","1","1","1","0","1","0.421801099990262","0.542213999986416","0.37462790000427","1","1","1","1","1","1","1","1","1"
"250024","img/neutralC/CFD-BF-202-109-N.jpg","img/neutralC/CFD-WM-249-239-N.jpg","img/neutralC/CFD-MF-309-002-N.jpg","1","1","1","1","1","0","0.37462790000427","0.421801099990262","0.537074499996379","1","1","1","1","1","1","1","1","1"
"250024","img/neutralC/CFD-MF-309-002-N.jpg","img/neutralC/CFD-BF-202-109-N.jpg","img/neutralC/CFD-IM-648-337-N.jpg","1","1","0","0","1","0","0.537074499996379","0.37462790000427","0.354605300002731","1","1","1","1","1","1","1","1","1"
"250024","img/neutralC/CFD-IM-648-337-N.jpg","img/neutralC/CFD-MF-309-002-N.jpg","img/neutralC/CFD-WM-212-097-N.jpg","0","1","1","0","0","0","0.354605300002731","0.537074499996379","0.37627129998873","1","1","1","1","1","1","1","1","1"
"250024","img/neutralC/CFD-WM-212-097-N.jpg","img/neutralC/CFD-IM-648-337-N.jpg","img/neutralC/CFD-LM-214-165-N.jpg","1","0","1","0","0","1","0.37627129998873","0.354605300002731","0.307089299996733","1","1","1","1","1","1","1","1","1"
"250024","img/neutralC/CFD-LM-214-165-N.jpg","img/neutralC/CFD-WM-212-097-N.jpg","img/neutralC/CFD-WF-228-196-N.jpg","1","1","1","1","0","0","0.307089299996733","0.37627129998873","0.311735299997963","1","1","1","1","1","1","1","1","1"
"250024","img/neutralC/CFD-WF-228-196-N.jpg","img/neutralC/CFD-LM-214-165-N.jpg","img/neutralC/CFD-LM-216-082-N.jpg","1","1","1","0","1","0","0.311735299997963","0.307089299996733","0.390054500006954","1","1","1","1","1","1","1","1","1"
"250024","img/neutralC/CFD-LM-216-082-N.jpg","img/neutralC/CFD-WF-228-196-N.jpg","img/neutralC/CFD-WF-005-010-N.jpg","1","1","1","0","0","0","0.390054500006954","0.311735299997963","0.35650879998866","1","1","1","1","1","1","1","1","1"
"250024","img/neutralC/CFD-WF-005-010-N.jpg","img/neutralC/CFD-LM-216-082-N.jpg","img/neutralC/CFD-WF-240-083-N.jpg","1","1","1","0","0","0","0.35650879998866","0.390054500006954","0.446021999989171","1","1","1","1","1","1","1","1","1"
"250024","img/neutralC/CFD-WF-240-083-N.jpg","img/neutralC/CFD-WF-005-010-N.jpg","img/neutralC/CFD-LM-201-057-N.jpg","1","1","1","0","0","1","0.446021999989171","0.35650879998866","0.409746199991787","1","1","1","1","1","1","1","1","1"
"250024","img/neutralC/CFD-LM-201-057-N.jpg","img/neutralC/CFD-WF-240-083-N.jpg","img/neutralC/CFD-MM-317-061-N.jpg","1","1","1","1","0","1","0.409746199991787","0.446021999989171","0.421115399993141","1","1","1","1","1","1","1","1","1"
"250024","img/neutralC/CFD-MM-317-061-N.jpg","img/neutralC/CFD-LM-201-057-N.jpg","img/neutralC/CFD-LM-244-068-N.jpg","1","1","1","1","1","1","0.421115399993141","0.409746199991787","0.41984479999519","1","1","1","1","1","1","1","1","1"
"250024","img/neutralC/CFD-LM-244-068-N.jpg","img/neutralC/CFD-MM-317-061-N.jpg","img/neutralC/CFD-LM-243-075-N.jpg","1","1","1","1","1","0","0.41984479999519","0.421115399993141","0.467815299984068","1","1","1","1","1","1","1","1","1"
"250024","img/neutralC/CFD-LM-243-075-N.jpg","img/neutralC/CFD-LM-244-068-N.jpg","img/neutralC/CFD-IM-646-023-N.jpg","1","1","1","0","1","1","0.467815299984068","0.41984479999519","0.306778400001349","1","1","1","1","1","1","1","1","1"
"250024","img/neutralC/CFD-IM-646-023-N.jpg","img/neutralC/CFD-LM-243-075-N.jpg","img/neutralC/CFD-BM-205-001-N.jpg","1","1","1","1","0","0","0.306778400001349","0.467815299984068","0.340990299999248","1","1","1","1","1","1","1","1","1"
"250024","img/neutralC/CFD-BM-205-001-N.jpg","img/neutralC/CFD-IM-646-023-N.jpg","img/neutralC/CFD-WF-017-003-N.jpg","1","1","1","0","1","1","0.340990299999248","0.306778400001349","0.439202299996396","1","1","1","1","1","1","1","1","1"
"250024","img/neutralC/CFD-WF-017-003-N.jpg","img/neutralC/CFD-BM-205-001-N.jpg","img/neutralC/CFD-BM-251-013-N.jpg","1","1","1","1","0","1","0.439202299996396","0.340990299999248","0.414715199993225","1","1","1","1","1","1","1","1","1"
"250024","img/neutralC/CFD-BM-251-013-N.jpg","img/neutralC/CFD-WF-017-003-N.jpg","img/neutralC/CFD-AM-247-165-N.jpg","1","1","1","1","1","1","0.414715199993225","0.439202299996396","0.385467300002347","1","1","1","1","1","1","1","1","1"
"250024","img/neutralC/CFD-AM-247-165-N.jpg","img/neutralC/CFD-BM-251-013-N.jpg","img/neutralC/CFD-BF-212-315-N.jpg","1","1","1","1","1","1","0.385467300002347","0.414715199993225","0.44133289999445","1","1","1","1","1","1","1","1","1"
"250024","img/neutralC/CFD-BF-212-315-N.jpg","img/neutralC/CFD-AM-247-165-N.jpg",NA,"1","1",NA,"1","1",NA,"0.44133289999445","0.385467300002347",NA,"1","1",NA,"1","1",NA,"1","1",NA
"250024","img/neutralC/CFD-IM-686-097-N.jpg",NA,"img/neutralC/CFD-BM-026-002-N.jpg","0",NA,"1","0",NA,"0","0.707637700004852",NA,"0.549030599999242","1",NA,"1","1",NA,"1","1",NA,"1"
"250024","img/neutralC/CFD-BM-026-002-N.jpg","img/neutralC/CFD-IM-686-097-N.jpg","img/neutralC/CFD-LF-242-121-N.jpg","1","0","1","0","0","0","0.549030599999242","0.707637700004852","0.471516000005067","1","1","1","1","1","1","1","1","1"
"250024","img/neutralC/CFD-LF-242-121-N.jpg","img/neutralC/CFD-BM-026-002-N.jpg","img/neutralC/CFD-LM-219-295-N.jpg","1","1","1","0","0","1","0.471516000005067","0.549030599999242","0.411533699996653","1","1","1","1","1","1","1","1","1"
"250024","img/neutralC/CFD-LM-219-295-N.jpg","img/neutralC/CFD-LF-242-121-N.jpg","img/neutralC/CFD-MF-313-002-N.jpg","1","1","1","1","0","0","0.411533699996653","0.471516000005067","0.364156099996762","1","1","1","1","1","1","1","1","1"
"250024","img/neutralC/CFD-MF-313-002-N.jpg","img/neutralC/CFD-LM-219-295-N.jpg","img/neutralC/CFD-LF-247-051-N.jpg","1","1","1","0","1","1","0.364156099996762","0.411533699996653","0.383975199991255","1","1","1","1","1","1","1","1","1"
"250024","img/neutralC/CFD-LF-247-051-N.jpg","img/neutralC/CFD-MF-313-002-N.jpg","img/neutralC/CFD-BM-212-117-N.jpg","1","1","1","1","0","0","0.383975199991255","0.364156099996762","0.420652300002985","1","1","1","1","1","1","1","1","1"
"250024","img/neutralC/CFD-BM-212-117-N.jpg","img/neutralC/CFD-LF-247-051-N.jpg","img/neutralC/CFD-BM-005-003-N.jpg","1","1","1","0","1","1","0.420652300002985","0.383975199991255","0.518132500001229","1","1","1","1","1","1","1","1","1"
"250024","img/neutralC/CFD-BM-005-003-N.jpg","img/neutralC/CFD-BM-212-117-N.jpg","img/neutralC/CFD-AF-202-122-N.jpg","1","1","1","1","0","1","0.518132500001229","0.420652300002985","0.394266799994512","1","1","1","1","1","1","1","1","1"
"250024","img/neutralC/CFD-AF-202-122-N.jpg","img/neutralC/CFD-BM-005-003-N.jpg","img/neutralC/CFD-WM-258-125-N.jpg","1","1","1","1","1","0","0.394266799994512","0.518132500001229","0.508751399989706","1","1","1","1","1","1","1","1","1"
"250024","img/neutralC/CFD-WM-258-125-N.jpg","img/neutralC/CFD-AF-202-122-N.jpg","img/neutralC/CFD-AF-206-079-N.jpg","1","1","1","0","1","1","0.508751399989706","0.394266799994512","0.400547299999744","1","1","1","1","1","1","1","1","1"
"250024","img/neutralC/CFD-AF-206-079-N.jpg","img/neutralC/CFD-WM-258-125-N.jpg","img/neutralC/CFD-IF-665-015-N.jpg","1","1","1","1","0","0","0.400547299999744","0.508751399989706","0.493166800006293","1","1","1","1","1","1","1","1","1"
"250024","img/neutralC/CFD-IF-665-015-N.jpg","img/neutralC/CFD-AF-206-079-N.jpg","img/neutralC/CFD-BF-010-001-N.jpg","1","1","1","0","1","1","0.493166800006293","0.400547299999744","0.378903099990566","1","1","1","1","1","1","1","1","1"
"250024","img/neutralC/CFD-BF-010-001-N.jpg","img/neutralC/CFD-IF-665-015-N.jpg","img/neutralC/CFD-WF-209-052-N.jpg","1","1","1","1","0","1","0.378903099990566","0.493166800006293","0.358696399998735","1","1","1","1","1","1","1","1","1"
"250024","img/neutralC/CFD-WF-209-052-N.jpg","img/neutralC/CFD-BF-010-001-N.jpg","img/neutralC/CFD-BM-231-155-N.jpg","1","1","1","1","1","1","0.358696399998735","0.378903099990566","0.326718699987396","1","1","1","1","1","1","1","1","1"
"250024","img/neutralC/CFD-BM-231-155-N.jpg","img/neutralC/CFD-WF-209-052-N.jpg","img/neutralC/CFD-IM-657-308-N.jpg","1","1","1","1","1","0","0.326718699987396","0.358696399998735","0.397262799990131","1","1","1","1","1","1","1","1","1"
"250024","img/neutralC/CFD-IM-657-308-N.jpg","img/neutralC/CFD-BM-231-155-N.jpg","img/neutralC/CFD-BF-238-190-N.jpg","1","1","1","0","1","1","0.397262799990131","0.326718699987396","0.422797399995034","1","1","1","1","1","1","1","1","1"
"250024","img/neutralC/CFD-BF-238-190-N.jpg","img/neutralC/CFD-IM-657-308-N.jpg","img/neutralC/CFD-LM-233-171-N.jpg","1","1","1","1","0","0","0.422797399995034","0.397262799990131","0.482606799996574","1","1","1","1","1","1","1","1","1"
"250024","img/neutralC/CFD-LM-233-171-N.jpg","img/neutralC/CFD-BF-238-190-N.jpg","img/neutralC/CFD-BM-018-001-N.jpg","1","1","1","0","1","1","0.482606799996574","0.422797399995034","0.416065600002185","1","1","1","1","1","1","1","1","1"
"250024","img/neutralC/CFD-BM-018-001-N.jpg","img/neutralC/CFD-LM-233-171-N.jpg","img/neutralC/CFD-IM-653-008-N.jpg","1","1","1","1","0","0","0.416065600002185","0.482606799996574","0.282085800005007","1","1","1","1","1","1","1","1","1"
"250024","img/neutralC/CFD-IM-653-008-N.jpg","img/neutralC/CFD-BM-018-001-N.jpg","img/neutralC/CFD-IM-727-195-N.jpg","1","1","1","0","1","1","0.282085800005007","0.416065600002185","0.377152999993996","1","1","1","1","1","1","1","1","1"
"250024","img/neutralC/CFD-IM-727-195-N.jpg","img/neutralC/CFD-IM-653-008-N.jpg","img/neutralC/CFD-IF-620-218-N.jpg","1","1","1","1","0","0","0.377152999993996","0.282085800005007","0.437684100004844","1","1","1","1","1","1","1","1","1"
"250024","img/neutralC/CFD-IF-620-218-N.jpg","img/neutralC/CFD-IM-727-195-N.jpg","img/neutralC/CFD-WM-227-099-N.jpg","1","1","1","0","1","1","0.437684100004844","0.377152999993996","0.299140499992063","1","1","1","1","1","1","1","1","1"
"250024","img/neutralC/CFD-WM-227-099-N.jpg","img/neutralC/CFD-IF-620-218-N.jpg","img/neutralC/CFD-LF-250-169-N.jpg","1","1","1","1","0","1","0.299140499992063","0.437684100004844","0.370127899994259","1","1","1","1","1","1","1","1","1"
"250024","img/neutralC/CFD-LF-250-169-N.jpg","img/neutralC/CFD-WM-227-099-N.jpg","img/neutralC/CFD-LF-245-166-N.jpg","1","1","1","1","1","1","0.370127899994259","0.299140499992063","0.338374400002067","1","1","1","1","1","1","1","1","1"
"250024","img/neutralC/CFD-LF-245-166-N.jpg","img/neutralC/CFD-LF-250-169-N.jpg","img/neutralC/CFD-IM-617-174-N.jpg","1","1","1","1","1","0","0.338374400002067","0.370127899994259","0.338594500004547","1","1","1","1","1","1","1","1","1"
"250024","img/neutralC/CFD-IM-617-174-N.jpg","img/neutralC/CFD-LF-245-166-N.jpg","img/neutralC/CFD-LM-226-175-N.jpg","1","1","1","0","1","0","0.338594500004547","0.338374400002067","0.442508799998905","1","1","1","1","1","1","1","1","1"
"250024","img/neutralC/CFD-LM-226-175-N.jpg","img/neutralC/CFD-IM-617-174-N.jpg","img/neutralC/CFD-WM-017-002-N.jpg","1","1","1","0","0","0","0.442508799998905","0.338594500004547","0.340891500003636","1","1","1","1","1","1","1","1","1"
"250024","img/neutralC/CFD-WM-017-002-N.jpg","img/neutralC/CFD-LM-226-175-N.jpg","img/neutralC/CFD-IM-638-250-1-N.jpg","1","1","1","0","0","1","0.340891500003636","0.442508799998905","0.410073699997156","1","1","1","1","1","1","1","1","1"
"250024","img/neutralC/CFD-IM-638-250-1-N.jpg","img/neutralC/CFD-WM-017-002-N.jpg","img/neutralC/CFD-BF-033-028-N.jpg","1","1","0","1","0","0","0.410073699997156","0.340891500003636","0.432044500004849","1","1","1","1","1","1","1","1","1"
"250024","img/neutralC/CFD-BF-033-028-N.jpg","img/neutralC/CFD-IM-638-250-1-N.jpg","img/neutralC/CFD-AF-241-141-N.jpg","0","1","1","0","1","1","0.432044500004849","0.410073699997156","0.432905599998776","1","1","1","1","1","1","1","1","1"
"250024","img/neutralC/CFD-AF-241-141-N.jpg","img/neutralC/CFD-BF-033-028-N.jpg","img/neutralC/CFD-WM-242-011-N.jpg","1","0","1","1","0","0","0.432905599998776","0.432044500004849","0.356621400002041","1","1","1","1","1","1","1","1","1"
"250024","img/neutralC/CFD-WM-242-011-N.jpg","img/neutralC/CFD-AF-241-141-N.jpg",NA,"1","1",NA,"0","1",NA,"0.356621400002041","0.432905599998776",NA,"1","1",NA,"1","1",NA,"1","1",NA
"250024","img/neutralC/CFD-WM-040-022-N.jpg",NA,"img/neutralC/CFD-BF-255-140-N.jpg","1",NA,"1","0",NA,"1","0.951987399996142",NA,"0.473990799990133","1",NA,"1","1",NA,"1","1",NA,"1"
"250024","img/neutralC/CFD-BF-255-140-N.jpg","img/neutralC/CFD-WM-040-022-N.jpg","img/neutralC/CFD-AM-215-120-N.jpg","1","1","1","1","0","1","0.473990799990133","0.951987399996142","0.329998299988802","1","1","1","1","1","1","1","1","1"
"250024","img/neutralC/CFD-AM-215-120-N.jpg","img/neutralC/CFD-BF-255-140-N.jpg","img/neutralC/CFD-LM-252-076-N.jpg","1","1","1","1","1","1","0.329998299988802","0.473990799990133","0.359760099992855","1","1","1","1","1","1","1","1","1"
"250024","img/neutralC/CFD-LM-252-076-N.jpg","img/neutralC/CFD-AM-215-120-N.jpg","img/neutralC/CFD-LF-236-221-N.jpg","1","1","1","1","1","1","0.359760099992855","0.329998299988802","0.397917299997061","1","1","1","1","1","1","1","1","1"
"250024","img/neutralC/CFD-LF-236-221-N.jpg","img/neutralC/CFD-LM-252-076-N.jpg","img/neutralC/CFD-AM-235-241-N.jpg","1","1","1","1","1","0","0.397917299997061","0.359760099992855","0.508780999996816","1","1","1","1","1","1","1","1","1"
"250024","img/neutralC/CFD-AM-235-241-N.jpg","img/neutralC/CFD-LF-236-221-N.jpg","img/neutralC/CFD-BM-211-174-N.jpg","1","1","1","0","1","0","0.508780999996816","0.397917299997061","0.308095599990338","1","1","1","1","1","1","1","1","1"
"250024","img/neutralC/CFD-BM-211-174-N.jpg","img/neutralC/CFD-AM-235-241-N.jpg","img/neutralC/CFD-BF-028-001-N.jpg","1","1","1","0","0","1","0.308095599990338","0.508780999996816","0.356892299983883","1","1","1","1","1","1","1","1","1"
"250024","img/neutralC/CFD-BF-028-001-N.jpg","img/neutralC/CFD-BM-211-174-N.jpg","img/neutralC/CFD-BF-201-080-N.jpg","1","1","1","1","0","1","0.356892299983883","0.308095599990338","0.431139199994505","1","1","1","1","1","1","1","1","1"
"250024","img/neutralC/CFD-BF-201-080-N.jpg","img/neutralC/CFD-BF-028-001-N.jpg","img/neutralC/CFD-WF-002-004-N.jpg","1","1","1","1","1","0","0.431139199994505","0.356892299983883","0.498703399993246","1","1","1","1","1","1","1","1","1"
"250024","img/neutralC/CFD-WF-002-004-N.jpg","img/neutralC/CFD-BF-201-080-N.jpg","img/neutralC/CFD-IF-718-001-N.jpg","1","1","1","0","1","1","0.498703399993246","0.431139199994505","0.408979700005148","1","1","1","1","1","1","1","1","1"
"250024","img/neutralC/CFD-IF-718-001-N.jpg","img/neutralC/CFD-WF-002-004-N.jpg","img/neutralC/CFD-BM-015-015-N.jpg","1","1","1","1","0","0","0.408979700005148","0.498703399993246","0.377355400007218","1","1","1","1","1","1","1","1","1"
"250024","img/neutralC/CFD-BM-015-015-N.jpg","img/neutralC/CFD-IF-718-001-N.jpg","img/neutralC/CFD-WM-257-161-N.jpg","1","1","1","0","1","1","0.377355400007218","0.408979700005148","0.465093999999226","1","1","1","1","1","1","1","1","1"
"250024","img/neutralC/CFD-WM-257-161-N.jpg","img/neutralC/CFD-BM-015-015-N.jpg","img/neutralC/CFD-BM-027-001-N.jpg","1","1","1","1","0","0","0.465093999999226","0.377355400007218","0.499354300001869","1","1","1","1","1","1","1","1","1"
"250024","img/neutralC/CFD-BM-027-001-N.jpg","img/neutralC/CFD-WM-257-161-N.jpg","img/neutralC/CFD-BF-208-266-N.jpg","1","1","1","0","1","0","0.499354300001869","0.465093999999226","0.41082859999733","1","1","1","1","1","1","1","1","1"
"250024","img/neutralC/CFD-BF-208-266-N.jpg","img/neutralC/CFD-BM-027-001-N.jpg","img/neutralC/CFD-IM-728-041-N.jpg","1","1","1","0","0","0","0.41082859999733","0.499354300001869","0.4864407999994","1","1","1","1","1","1","1","1","1"
"250024","img/neutralC/CFD-IM-728-041-N.jpg","img/neutralC/CFD-BF-208-266-N.jpg","img/neutralC/CFD-BF-023-010-N.jpg","1","1","1","0","0","1","0.4864407999994","0.41082859999733","0.375862900007633","1","1","1","1","1","1","1","1","1"
"250024","img/neutralC/CFD-BF-023-010-N.jpg","img/neutralC/CFD-IM-728-041-N.jpg","img/neutralC/CFD-WM-038-003-N.jpg","1","1","1","1","0","0","0.375862900007633","0.4864407999994","0.438972899995861","1","1","1","1","1","1","1","1","1"
"250024","img/neutralC/CFD-WM-038-003-N.jpg","img/neutralC/CFD-BF-023-010-N.jpg","img/neutralC/CFD-WM-225-127-N.jpg","1","1","1","0","1","0","0.438972899995861","0.375862900007633","0.522213499993086","1","1","1","1","1","1","1","1","1"
"250024","img/neutralC/CFD-WM-225-127-N.jpg","img/neutralC/CFD-WM-038-003-N.jpg","img/neutralC/CFD-IM-639-263-N.jpg","1","1","1","0","0","1","0.522213499993086","0.438972899995861","0.380689599987818","1","1","1","1","1","1","1","1","1"
"250024","img/neutralC/CFD-IM-639-263-N.jpg","img/neutralC/CFD-WM-225-127-N.jpg","img/neutralC/CFD-IF-672-305-N.jpg","1","1","1","1","0","0","0.380689599987818","0.522213499993086","0.401436099986313","1","1","1","1","1","1","1","1","1"
"250024","img/neutralC/CFD-IF-672-305-N.jpg","img/neutralC/CFD-IM-639-263-N.jpg","img/neutralC/CFD-BF-003-003-N.jpg","1","1","0","0","1","0","0.401436099986313","0.380689599987818","0.479906699983985","1","1","1","1","1","1","1","1","1"
"250024","img/neutralC/CFD-BF-003-003-N.jpg","img/neutralC/CFD-IF-672-305-N.jpg","img/neutralC/CFD-BM-029-024-N.jpg","0","1","1","0","0","1","0.479906699983985","0.401436099986313","0.420609099994181","1","1","1","1","1","1","1","1","1"
"250024","img/neutralC/CFD-BM-029-024-N.jpg","img/neutralC/CFD-BF-003-003-N.jpg","img/neutralC/CFD-MM-319-052-N.jpg","1","0","1","1","0","1","0.420609099994181","0.479906699983985","0.429820699995617","1","1","1","1","1","1","1","1","1"
"250024","img/neutralC/CFD-MM-319-052-N.jpg","img/neutralC/CFD-BM-029-024-N.jpg","img/neutralC/CFD-IM-674-281-N.jpg","1","1","1","1","1","1","0.429820699995617","0.420609099994181","0.500945199994021","1","1","1","1","1","1","1","1","1"
"250024","img/neutralC/CFD-IM-674-281-N.jpg","img/neutralC/CFD-MM-319-052-N.jpg","img/neutralC/CFD-WF-026-002-N.jpg","1","1","1","1","1","1","0.500945199994021","0.429820699995617","0.546875400003046","1","1","1","1","1","1","1","1","1"
"250024","img/neutralC/CFD-WF-026-002-N.jpg","img/neutralC/CFD-IM-674-281-N.jpg","img/neutralC/CFD-WF-022-017-N.jpg","1","1","1","1","1","0","0.546875400003046","0.500945199994021","0.324577399995178","1","1","1","1","1","1","1","1","1"
"250024","img/neutralC/CFD-WF-022-017-N.jpg","img/neutralC/CFD-WF-026-002-N.jpg","img/neutralC/CFD-LF-216-121-N.jpg","1","1","1","0","1","1","0.324577399995178","0.546875400003046","0.355101499997545","1","1","1","1","1","1","1","1","1"
"250024","img/neutralC/CFD-LF-216-121-N.jpg","img/neutralC/CFD-WF-022-017-N.jpg","img/neutralC/CFD-BF-204-189-N.jpg","1","1","1","1","0","1","0.355101499997545","0.324577399995178","0.443163100004313","1","1","1","1","1","1","1","1","1"
"250024","img/neutralC/CFD-BF-204-189-N.jpg","img/neutralC/CFD-LF-216-121-N.jpg","img/neutralC/CFD-AM-217-085-N.jpg","1","1","1","1","1","0","0.443163100004313","0.355101499997545","0.566101699994761","1","1","1","1","1","1","1","1","1"
"250024","img/neutralC/CFD-AM-217-085-N.jpg","img/neutralC/CFD-BF-204-189-N.jpg","img/neutralC/CFD-WM-002-009-N.jpg","1","1","1","0","1","0","0.566101699994761","0.443163100004313","0.355212800001027","1","1","1","1","1","1","1","1","1"
"250024","img/neutralC/CFD-WM-002-009-N.jpg","img/neutralC/CFD-AM-217-085-N.jpg","img/neutralC/CFD-BM-247-240-N.jpg","1","1","1","0","0","0","0.355212800001027","0.566101699994761","0.406905599986203","1","1","1","1","1","1","1","1","1"
"250024","img/neutralC/CFD-BM-247-240-N.jpg","img/neutralC/CFD-WM-002-009-N.jpg",NA,"1","1",NA,"0","0",NA,"0.406905599986203","0.355212800001027",NA,"1","1",NA,"1","1",NA,"1","1",NA
"250024","img/neutralC/CFD-BF-226-119-N.jpg",NA,"img/neutralC/CFD-IM-645-001-N.jpg","1",NA,"1","1",NA,"0","0.436286500000278",NA,"0.308158299987554","1",NA,"1","1",NA,"1","1",NA,"1"
"250024","img/neutralC/CFD-IM-645-001-N.jpg","img/neutralC/CFD-BF-226-119-N.jpg","img/neutralC/CFD-AM-211-052-N.jpg","1","1","1","0","1","1","0.308158299987554","0.436286500000278","0.29013570000825","1","1","1","1","1","1","1","1","1"
"250024","img/neutralC/CFD-AM-211-052-N.jpg","img/neutralC/CFD-IM-645-001-N.jpg","img/neutralC/CFD-WF-214-122-N.jpg","1","1","1","1","0","1","0.29013570000825","0.308158299987554","0.33470110000053","1","1","1","1","1","1","1","1","1"
"250024","img/neutralC/CFD-WF-214-122-N.jpg","img/neutralC/CFD-AM-211-052-N.jpg","img/neutralC/CFD-IF-650-315-N.jpg","1","1","1","1","1","0","0.33470110000053","0.29013570000825","0.588452399999369","1","1","1","1","1","1","1","1","1"
"250024","img/neutralC/CFD-IF-650-315-N.jpg","img/neutralC/CFD-WF-214-122-N.jpg","img/neutralC/CFD-LF-220-120-N.jpg","1","1","1","0","1","1","0.588452399999369","0.33470110000053","0.333907499996712","1","1","1","1","1","1","1","1","1"
"250024","img/neutralC/CFD-LF-220-120-N.jpg","img/neutralC/CFD-IF-650-315-N.jpg","img/neutralC/CFD-WF-036-023-N.jpg","1","1","1","1","0","0","0.333907499996712","0.588452399999369","0.426778099994408","1","1","1","1","1","1","1","1","1"
"250024","img/neutralC/CFD-WF-036-023-N.jpg","img/neutralC/CFD-LF-220-120-N.jpg","img/neutralC/CFD-IF-623-129-N.jpg","1","1","1","0","1","1","0.426778099994408","0.333907499996712","0.391849100007676","1","1","1","1","1","1","1","1","1"
"250024","img/neutralC/CFD-IF-623-129-N.jpg","img/neutralC/CFD-WF-036-023-N.jpg","img/neutralC/CFD-BF-038-037-N.jpg","1","1","1","1","0","1","0.391849100007676","0.426778099994408","0.314956800008076","1","1","1","1","1","1","1","1","1"
"250024","img/neutralC/CFD-BF-038-037-N.jpg","img/neutralC/CFD-IF-623-129-N.jpg","img/neutralC/CFD-WM-033-025-N.jpg","1","1","1","1","1","1","0.314956800008076","0.391849100007676","0.571024499993655","1","1","1","1","1","1","1","1","1"
"250024","img/neutralC/CFD-WM-033-025-N.jpg","img/neutralC/CFD-BF-038-037-N.jpg","img/neutralC/CFD-MF-359-019-N.jpg","1","1","1","1","1","0","0.571024499993655","0.314956800008076","0.559042799999588","1","1","1","1","1","1","1","1","1"
"250024","img/neutralC/CFD-MF-359-019-N.jpg","img/neutralC/CFD-WM-033-025-N.jpg","img/neutralC/CFD-LM-228-188-N.jpg","1","1","1","0","1","1","0.559042799999588","0.571024499993655","0.316903499988257","1","1","1","1","1","1","1","1","1"
"250024","img/neutralC/CFD-LM-228-188-N.jpg","img/neutralC/CFD-MF-359-019-N.jpg","img/neutralC/CFD-WF-200-099-N.jpg","1","1","0","1","0","0","0.316903499988257","0.559042799999588","0.370974599994952","1","1","1","1","1","1","1","1","1"
"250024","img/neutralC/CFD-WF-200-099-N.jpg","img/neutralC/CFD-LM-228-188-N.jpg","img/neutralC/CFD-IM-703-182-N.jpg","0","1","1","0","1","1","0.370974599994952","0.316903499988257","0.390836699996726","1","1","1","1","1","1","1","1","1"
"250024","img/neutralC/CFD-IM-703-182-N.jpg","img/neutralC/CFD-WF-200-099-N.jpg","img/neutralC/CFD-WM-235-147-N.jpg","1","0","1","1","0","0","0.390836699996726","0.370974599994952","0.332240999996429","1","1","1","1","1","1","1","1","1"
"250024","img/neutralC/CFD-WM-235-147-N.jpg","img/neutralC/CFD-IM-703-182-N.jpg","img/neutralC/CFD-BF-229-179-N.jpg","1","1","0","0","1","0","0.332240999996429","0.390836699996726","0.379411300003994","1","1","1","1","1","1","1","1","1"
"250024","img/neutralC/CFD-BF-229-179-N.jpg","img/neutralC/CFD-WM-235-147-N.jpg","img/neutralC/CFD-WM-004-010-N.jpg","0","1","1","0","0","0","0.379411300003994","0.332240999996429","0.486746599999606","1","1","1","1","1","1","1","1","1"
"250024","img/neutralC/CFD-WM-004-010-N.jpg","img/neutralC/CFD-BF-229-179-N.jpg","img/neutralC/CFD-WM-219-008-N.jpg","1","0","1","0","0","0","0.486746599999606","0.379411300003994","0.467643999989377","1","1","1","1","1","1","1","1","1"
"250024","img/neutralC/CFD-WM-219-008-N.jpg","img/neutralC/CFD-WM-004-010-N.jpg","img/neutralC/CFD-IM-671-601-N.jpg","1","1","1","0","0","0","0.467643999989377","0.486746599999606","0.417242700001225","1","1","1","1","1","1","1","1","1"
"250024","img/neutralC/CFD-IM-671-601-N.jpg","img/neutralC/CFD-WM-219-008-N.jpg","img/neutralC/CFD-LF-218-072-N.jpg","1","1","1","0","0","0","0.417242700001225","0.467643999989377","0.456656800000928","1","1","1","1","1","1","1","1","1"
"250024","img/neutralC/CFD-LF-218-072-N.jpg","img/neutralC/CFD-IM-671-601-N.jpg","img/neutralC/CFD-MF-333-012-N.jpg","1","1","1","0","0","0","0.456656800000928","0.417242700001225","0.325366499993834","1","1","1","1","1","1","1","1","1"
"250024","img/neutralC/CFD-MF-333-012-N.jpg","img/neutralC/CFD-LF-218-072-N.jpg","img/neutralC/CFD-MF-352-054-N.jpg","1","1","1","0","0","0","0.325366499993834","0.456656800000928","0.36912369998754","1","1","1","1","1","1","1","1","1"
"250024","img/neutralC/CFD-MF-352-054-N.jpg","img/neutralC/CFD-MF-333-012-N.jpg","img/neutralC/CFD-WF-001-003-N.jpg","1","1","1","0","0","1","0.36912369998754","0.325366499993834","0.347280999994837","1","1","1","1","1","1","1","1","1"
"250024","img/neutralC/CFD-WF-001-003-N.jpg","img/neutralC/CFD-MF-352-054-N.jpg","img/neutralC/CFD-BF-232-187-N.jpg","1","1","1","1","0","1","0.347280999994837","0.36912369998754","0.434797099995194","1","1","1","1","1","1","1","1","1"
"250024","img/neutralC/CFD-BF-232-187-N.jpg","img/neutralC/CFD-WF-001-003-N.jpg","img/neutralC/CFD-LM-237-264-N.jpg","1","1","1","1","1","0","0.434797099995194","0.347280999994837","0.624544799997238","1","1","1","1","1","1","1","1","1"
"250024","img/neutralC/CFD-LM-237-264-N.jpg","img/neutralC/CFD-BF-232-187-N.jpg","img/neutralC/CFD-AM-242-176-N.jpg","1","1","1","0","1","1","0.624544799997238","0.434797099995194","0.322836799983634","1","1","1","1","1","1","1","1","1"
"250024","img/neutralC/CFD-AM-242-176-N.jpg","img/neutralC/CFD-LM-237-264-N.jpg","img/neutralC/CFD-BM-225-154-N.jpg","1","1","1","1","0","1","0.322836799983634","0.624544799997238","0.317464899999322","1","1","1","1","1","1","1","1","1"
"250024","img/neutralC/CFD-BM-225-154-N.jpg","img/neutralC/CFD-AM-242-176-N.jpg","img/neutralC/CFD-IM-743-006-N.jpg","1","1","1","1","1","1","0.317464899999322","0.322836799983634","0.344337499991525","1","1","1","1","1","1","1","1","1"
"250024","img/neutralC/CFD-IM-743-006-N.jpg","img/neutralC/CFD-BM-225-154-N.jpg","img/neutralC/CFD-IM-616-214-N.jpg","1","1","1","1","1","0","0.344337499991525","0.317464899999322","0.33355969999684","1","1","1","1","1","1","1","1","1"
"250024","img/neutralC/CFD-IM-616-214-N.jpg","img/neutralC/CFD-IM-743-006-N.jpg","img/neutralC/CFD-AM-251-124-N.jpg","1","1","1","0","1","0","0.33355969999684","0.344337499991525","0.362169899992296","1","1","1","1","1","1","1","1","1"
"250024","img/neutralC/CFD-AM-251-124-N.jpg","img/neutralC/CFD-IM-616-214-N.jpg","img/neutralC/CFD-WM-020-001-N.jpg","1","1","1","0","0","1","0.362169899992296","0.33355969999684","0.362418999997317","1","1","1","1","1","1","1","1","1"
"250024","img/neutralC/CFD-WM-020-001-N.jpg","img/neutralC/CFD-AM-251-124-N.jpg","img/neutralC/CFD-BM-253-004-N.jpg","1","1","1","1","0","1","0.362418999997317","0.362169899992296","0.459002899995539","1","1","1","1","1","1","1","1","1"
"250024","img/neutralC/CFD-BM-253-004-N.jpg","img/neutralC/CFD-WM-020-001-N.jpg",NA,"1","1",NA,"1","1",NA,"0.459002899995539","0.362418999997317",NA,"1","1",NA,"1","1",NA,"1","1",NA
