"participant_id","current_trial_face","pre_trial_face","post_trial_face","current_trial_accuracy","pre_trial_accuracy","post_trial_accuracy","current_trial_congruency","pre_trial_congruency","post_trial_congruency","current_trial_rt","pre_trial_rt","post_trial_rt","current_trial_responded","pre_trial_responded","post_trial_responded","current_trial_legitResponse","pre_trial_legitResponse","post_trial_legitResponse","current_trial_resp_nums","pre_trial_resp_nums","post_trial_resp_nums"
"250019","img/neutralC/CFD-AM-212-050-N.jpg",NA,"img/neutralC/CFD-LF-214-090-N.jpg","1",NA,"1","1",NA,"0","0.945340800040867",NA,"0.6668671000225","1",NA,"1","1",NA,"1","1",NA,"1"
"250019","img/neutralC/CFD-LF-214-090-N.jpg","img/neutralC/CFD-AM-212-050-N.jpg","img/neutralC/CFD-LF-230-203-N.jpg","1","1","1","0","1","0","0.6668671000225","0.945340800040867","0.745657600025879","1","1","1","1","1","1","1","1","1"
"250019","img/neutralC/CFD-LF-230-203-N.jpg","img/neutralC/CFD-LF-214-090-N.jpg","img/neutralC/CFD-WM-011-002-N.jpg","1","1","1","0","0","0","0.745657600025879","0.6668671000225","0.640270500036422","1","1","1","1","1","1","1","1","1"
"250019","img/neutralC/CFD-WM-011-002-N.jpg","img/neutralC/CFD-LF-230-203-N.jpg","img/neutralC/CFD-IF-710-016-N.jpg","1","1","1","0","0","0","0.640270500036422","0.745657600025879","0.572209800040582","1","1","1","1","1","1","1","1","1"
"250019","img/neutralC/CFD-IF-710-016-N.jpg","img/neutralC/CFD-WM-011-002-N.jpg","img/neutralC/CFD-IM-651-308-N.jpg","1","1","1","0","0","0","0.572209800040582","0.640270500036422","0.57290560004185","1","1","1","1","1","1","1","1","1"
"250019","img/neutralC/CFD-IM-651-308-N.jpg","img/neutralC/CFD-IF-710-016-N.jpg","img/neutralC/CFD-BM-033-003-N.jpg","1","1","1","0","0","0","0.57290560004185","0.572209800040582","0.639494700037176","1","1","1","1","1","1","1","1","1"
"250019","img/neutralC/CFD-BM-033-003-N.jpg","img/neutralC/CFD-IM-651-308-N.jpg","img/neutralC/CFD-BM-019-002-N.jpg","1","1","1","0","0","0","0.639494700037176","0.57290560004185","0.570868000009796","1","1","1","1","1","1","1","1","1"
"250019","img/neutralC/CFD-BM-019-002-N.jpg","img/neutralC/CFD-BM-033-003-N.jpg","img/neutralC/CFD-IF-693-172-N.jpg","1","1","1","0","0","0","0.570868000009796","0.639494700037176","0.705077800026629","1","1","1","1","1","1","1","1","1"
"250019","img/neutralC/CFD-IF-693-172-N.jpg","img/neutralC/CFD-BM-019-002-N.jpg","img/neutralC/CFD-BM-239-136-N.jpg","1","1","1","0","0","1","0.705077800026629","0.570868000009796","0.606612400035374","1","1","1","1","1","1","1","1","1"
"250019","img/neutralC/CFD-BM-239-136-N.jpg","img/neutralC/CFD-IF-693-172-N.jpg","img/neutralC/CFD-LM-215-247-N.jpg","1","1","1","1","0","0","0.606612400035374","0.705077800026629","0.567867500038119","1","1","1","1","1","1","1","1","1"
"250019","img/neutralC/CFD-LM-215-247-N.jpg","img/neutralC/CFD-BM-239-136-N.jpg","img/neutralC/CFD-BF-029-031-N.jpg","1","1","1","0","1","1","0.567867500038119","0.606612400035374","0.623966100014513","1","1","1","1","1","1","1","1","1"
"250019","img/neutralC/CFD-BF-029-031-N.jpg","img/neutralC/CFD-LM-215-247-N.jpg","img/neutralC/CFD-IF-634-382-N.jpg","1","1","1","1","0","1","0.623966100014513","0.567867500038119","0.543022400030168","1","1","1","1","1","1","1","1","1"
"250019","img/neutralC/CFD-IF-634-382-N.jpg","img/neutralC/CFD-BF-029-031-N.jpg","img/neutralC/CFD-WM-021-001-N.jpg","1","1","1","1","1","1","0.543022400030168","0.623966100014513","0.483465100027388","1","1","1","1","1","1","1","1","1"
"250019","img/neutralC/CFD-WM-021-001-N.jpg","img/neutralC/CFD-IF-634-382-N.jpg","img/neutralC/CFD-WF-213-031-N.jpg","1","1","1","1","1","1","0.483465100027388","0.543022400030168","0.758520100032911","1","1","1","1","1","1","1","1","1"
"250019","img/neutralC/CFD-WF-213-031-N.jpg","img/neutralC/CFD-WM-021-001-N.jpg","img/neutralC/CFD-MF-337-026-N.jpg","1","1","1","1","1","1","0.758520100032911","0.483465100027388","0.554473900032463","1","1","1","1","1","1","1","1","1"
"250019","img/neutralC/CFD-MF-337-026-N.jpg","img/neutralC/CFD-WF-213-031-N.jpg","img/neutralC/CFD-AF-231-357-N.jpg","1","1","1","1","1","1","0.554473900032463","0.758520100032911","0.569859800016275","1","1","1","1","1","1","1","1","1"
"250019","img/neutralC/CFD-AF-231-357-N.jpg","img/neutralC/CFD-MF-337-026-N.jpg","img/neutralC/CFD-IM-684-008-N.jpg","1","1","1","1","1","1","0.569859800016275","0.554473900032463","0.499464000022272","1","1","1","1","1","1","1","1","1"
"250019","img/neutralC/CFD-IM-684-008-N.jpg","img/neutralC/CFD-AF-231-357-N.jpg","img/neutralC/CFD-LF-203-066-N.jpg","1","1","1","1","1","0","0.499464000022272","0.569859800016275","0.517830200027674","1","1","1","1","1","1","1","1","1"
"250019","img/neutralC/CFD-LF-203-066-N.jpg","img/neutralC/CFD-IM-684-008-N.jpg","img/neutralC/CFD-BF-205-141-N.jpg","1","1","1","0","1","0","0.517830200027674","0.499464000022272","0.51323810001486","1","1","1","1","1","1","1","1","1"
"250019","img/neutralC/CFD-BF-205-141-N.jpg","img/neutralC/CFD-LF-203-066-N.jpg","img/neutralC/CFD-WF-224-099-N.jpg","1","1","1","0","0","0","0.51323810001486","0.517830200027674","0.630154500016943","1","1","1","1","1","1","1","1","1"
"250019","img/neutralC/CFD-WF-224-099-N.jpg","img/neutralC/CFD-BF-205-141-N.jpg","img/neutralC/CFD-BF-253-202-N.jpg","1","1","1","0","0","0","0.630154500016943","0.51323810001486","0.551101900025969","1","1","1","1","1","1","1","1","1"
"250019","img/neutralC/CFD-BF-253-202-N.jpg","img/neutralC/CFD-WF-224-099-N.jpg","img/neutralC/CFD-BM-041-035-N.jpg","1","1","1","0","0","0","0.551101900025969","0.630154500016943","0.506442500016419","1","1","1","1","1","1","1","1","1"
"250019","img/neutralC/CFD-BM-041-035-N.jpg","img/neutralC/CFD-BF-253-202-N.jpg","img/neutralC/CFD-LF-205-100-N.jpg","1","1","1","0","0","1","0.506442500016419","0.551101900025969","0.5654482000391","1","1","1","1","1","1","1","1","1"
"250019","img/neutralC/CFD-LF-205-100-N.jpg","img/neutralC/CFD-BM-041-035-N.jpg","img/neutralC/CFD-WF-250-167-N.jpg","1","1","1","1","0","1","0.5654482000391","0.506442500016419","0.555893200013088","1","1","1","1","1","1","1","1","1"
"250019","img/neutralC/CFD-WF-250-167-N.jpg","img/neutralC/CFD-LF-205-100-N.jpg","img/neutralC/CFD-WM-041-021-N.jpg","1","1","1","1","1","0","0.555893200013088","0.5654482000391","0.65397590000066","1","1","1","1","1","1","1","1","1"
"250019","img/neutralC/CFD-WM-041-021-N.jpg","img/neutralC/CFD-WF-250-167-N.jpg","img/neutralC/CFD-BF-039-031-N.jpg","1","1","1","0","1","1","0.65397590000066","0.555893200013088","0.67419780002092","1","1","1","1","1","1","1","1","1"
"250019","img/neutralC/CFD-BF-039-031-N.jpg","img/neutralC/CFD-WM-041-021-N.jpg","img/neutralC/CFD-AM-201-076-N.jpg","1","1","1","1","0","1","0.67419780002092","0.65397590000066","0.477561800013063","1","1","1","1","1","1","1","1","1"
"250019","img/neutralC/CFD-AM-201-076-N.jpg","img/neutralC/CFD-BF-039-031-N.jpg","img/neutralC/CFD-LM-218-183-N.jpg","1","1","1","1","1","1","0.477561800013063","0.67419780002092","0.605777200020384","1","1","1","1","1","1","1","1","1"
"250019","img/neutralC/CFD-LM-218-183-N.jpg","img/neutralC/CFD-AM-201-076-N.jpg","img/neutralC/CFD-BF-213-188-N.jpg","1","1","1","1","1","1","0.605777200020384","0.477561800013063","0.556086200027494","1","1","1","1","1","1","1","1","1"
"250019","img/neutralC/CFD-BF-213-188-N.jpg","img/neutralC/CFD-LM-218-183-N.jpg","img/neutralC/CFD-LF-224-176-N.jpg","1","1","1","1","1","0","0.556086200027494","0.605777200020384","0.552072200021939","1","1","1","1","1","1","1","1","1"
"250019","img/neutralC/CFD-LF-224-176-N.jpg","img/neutralC/CFD-BF-213-188-N.jpg","img/neutralC/CFD-MM-316-156-N.jpg","1","1","1","0","1","1","0.552072200021939","0.556086200027494","0.482099900022149","1","1","1","1","1","1","1","1","1"
"250019","img/neutralC/CFD-MM-316-156-N.jpg","img/neutralC/CFD-LF-224-176-N.jpg",NA,"1","1",NA,"1","0",NA,"0.482099900022149","0.552072200021939",NA,"1","1",NA,"1","1",NA,"1","1",NA
"250019","img/neutralC/CFD-LF-204-133-N.jpg",NA,"img/neutralC/CFD-BM-241-235-N.jpg","1",NA,"1","1",NA,"0","0.653230300027644",NA,"0.671966300025815","1",NA,"1","1",NA,"1","1",NA,"1"
"250019","img/neutralC/CFD-BM-241-235-N.jpg","img/neutralC/CFD-LF-204-133-N.jpg","img/neutralC/CFD-BF-006-017-N.jpg","1","1","1","0","1","0","0.671966300025815","0.653230300027644","0.547733000043081","1","1","1","1","1","1","1","1","1"
"250019","img/neutralC/CFD-BF-006-017-N.jpg","img/neutralC/CFD-BM-241-235-N.jpg","img/neutralC/CFD-IM-696-001-N.jpg","1","1","1","0","0","0","0.547733000043081","0.671966300025815","0.504208700032905","1","1","1","1","1","1","1","1","1"
"250019","img/neutralC/CFD-IM-696-001-N.jpg","img/neutralC/CFD-BF-006-017-N.jpg","img/neutralC/CFD-WM-014-002-N.jpg","1","1","1","0","0","0","0.504208700032905","0.547733000043081","0.632764700014377","1","1","1","1","1","1","1","1","1"
"250019","img/neutralC/CFD-WM-014-002-N.jpg","img/neutralC/CFD-IM-696-001-N.jpg","img/neutralC/CFD-BF-044-034-N.jpg","1","1","1","0","0","0","0.632764700014377","0.504208700032905","0.468653600022662","1","1","1","1","1","1","1","1","1"
"250019","img/neutralC/CFD-BF-044-034-N.jpg","img/neutralC/CFD-WM-014-002-N.jpg","img/neutralC/CFD-MF-301-024-N.jpg","1","1","1","0","0","0","0.468653600022662","0.632764700014377","0.6008686000132","1","1","1","1","1","1","1","1","1"
"250019","img/neutralC/CFD-MF-301-024-N.jpg","img/neutralC/CFD-BF-044-034-N.jpg","img/neutralC/CFD-WF-233-112-N.jpg","1","1","1","0","0","1","0.6008686000132","0.468653600022662","0.447734500019578","1","1","1","1","1","1","1","1","1"
"250019","img/neutralC/CFD-WF-233-112-N.jpg","img/neutralC/CFD-MF-301-024-N.jpg","img/neutralC/CFD-IM-726-248-N.jpg","1","1","0","1","0","0","0.447734500019578","0.6008686000132","0.529776300041704","1","1","1","1","1","1","1","1","1"
"250019","img/neutralC/CFD-IM-726-248-N.jpg","img/neutralC/CFD-WF-233-112-N.jpg","img/neutralC/CFD-BM-036-003-N.jpg","0","1","1","0","1","1","0.529776300041704","0.447734500019578","0.548733500007074","1","1","1","1","1","1","1","1","1"
"250019","img/neutralC/CFD-BM-036-003-N.jpg","img/neutralC/CFD-IM-726-248-N.jpg","img/neutralC/CFD-BF-036-027-N.jpg","1","0","1","1","0","0","0.548733500007074","0.529776300041704","0.525944600027287","1","1","1","1","1","1","1","1","1"
"250019","img/neutralC/CFD-BF-036-027-N.jpg","img/neutralC/CFD-BM-036-003-N.jpg","img/neutralC/CFD-IF-677-452-1-N.jpg","1","1","1","0","1","1","0.525944600027287","0.548733500007074","0.476468900043983","1","1","1","1","1","1","1","1","1"
"250019","img/neutralC/CFD-IF-677-452-1-N.jpg","img/neutralC/CFD-BF-036-027-N.jpg","img/neutralC/CFD-WF-029-002-N.jpg","1","1","1","1","0","0","0.476468900043983","0.525944600027287","0.588516900053946","1","1","1","1","1","1","1","1","1"
"250019","img/neutralC/CFD-WF-029-002-N.jpg","img/neutralC/CFD-IF-677-452-1-N.jpg","img/neutralC/CFD-IM-707-105-N.jpg","1","1","1","0","1","1","0.588516900053946","0.476468900043983","0.621275200042874","1","1","1","1","1","1","1","1","1"
"250019","img/neutralC/CFD-IM-707-105-N.jpg","img/neutralC/CFD-WF-029-002-N.jpg","img/neutralC/CFD-BM-207-024-N.jpg","1","1","1","1","0","1","0.621275200042874","0.588516900053946","0.548227700026473","1","1","1","1","1","1","1","1","1"
"250019","img/neutralC/CFD-BM-207-024-N.jpg","img/neutralC/CFD-IM-707-105-N.jpg","img/neutralC/CFD-AM-230-150-N.jpg","1","1","1","1","1","0","0.548227700026473","0.621275200042874","0.61238500001491","1","1","1","1","1","1","1","1","1"
"250019","img/neutralC/CFD-AM-230-150-N.jpg","img/neutralC/CFD-BM-207-024-N.jpg","img/neutralC/CFD-WM-248-036-N.jpg","1","1","1","0","1","1","0.61238500001491","0.548227700026473","0.44516160004423","1","1","1","1","1","1","1","1","1"
"250019","img/neutralC/CFD-WM-248-036-N.jpg","img/neutralC/CFD-AM-230-150-N.jpg","img/neutralC/CFD-BM-238-242-N.jpg","1","1","1","1","0","0","0.44516160004423","0.61238500001491","0.422007700020913","1","1","1","1","1","1","1","1","1"
"250019","img/neutralC/CFD-BM-238-242-N.jpg","img/neutralC/CFD-WM-248-036-N.jpg","img/neutralC/CFD-WM-034-030-N.jpg","1","1","1","0","1","1","0.422007700020913","0.44516160004423","0.545990800019354","1","1","1","1","1","1","1","1","1"
"250019","img/neutralC/CFD-WM-034-030-N.jpg","img/neutralC/CFD-BM-238-242-N.jpg","img/neutralC/CFD-BF-011-002-N.jpg","1","1","1","1","0","1","0.545990800019354","0.422007700020913","0.485430000029737","1","1","1","1","1","1","1","1","1"
"250019","img/neutralC/CFD-BF-011-002-N.jpg","img/neutralC/CFD-WM-034-030-N.jpg","img/neutralC/CFD-BF-236-177-N.jpg","1","1","1","1","1","0","0.485430000029737","0.545990800019354","0.584097900049528","1","1","1","1","1","1","1","1","1"
"250019","img/neutralC/CFD-BF-236-177-N.jpg","img/neutralC/CFD-BF-011-002-N.jpg","img/neutralC/CFD-IF-742-103-N.jpg","1","1","1","0","1","1","0.584097900049528","0.485430000029737","0.454888700012816","1","1","1","1","1","1","1","1","1"
"250019","img/neutralC/CFD-IF-742-103-N.jpg","img/neutralC/CFD-BF-236-177-N.jpg","img/neutralC/CFD-WF-208-068-N.jpg","1","1","1","1","0","1","0.454888700012816","0.584097900049528","0.487294200022006","1","1","1","1","1","1","1","1","1"
"250019","img/neutralC/CFD-WF-208-068-N.jpg","img/neutralC/CFD-IF-742-103-N.jpg","img/neutralC/CFD-BF-247-179-N.jpg","1","1","1","1","1","0","0.487294200022006","0.454888700012816","0.534450500039384","1","1","1","1","1","1","1","1","1"
"250019","img/neutralC/CFD-BF-247-179-N.jpg","img/neutralC/CFD-WF-208-068-N.jpg","img/neutralC/CFD-WF-234-086-N.jpg","1","1","1","0","1","1","0.534450500039384","0.487294200022006","0.522291400033282","1","1","1","1","1","1","1","1","1"
"250019","img/neutralC/CFD-WF-234-086-N.jpg","img/neutralC/CFD-BF-247-179-N.jpg","img/neutralC/CFD-BF-207-004-N.jpg","1","1","1","1","0","1","0.522291400033282","0.534450500039384","0.574531100020977","1","1","1","1","1","1","1","1","1"
"250019","img/neutralC/CFD-BF-207-004-N.jpg","img/neutralC/CFD-WF-234-086-N.jpg","img/neutralC/CFD-LM-213-061-N.jpg","1","1","1","1","1","0","0.574531100020977","0.522291400033282","0.541393200022867","1","1","1","1","1","1","1","1","1"
"250019","img/neutralC/CFD-LM-213-061-N.jpg","img/neutralC/CFD-BF-207-004-N.jpg","img/neutralC/CFD-BF-027-002-N.jpg","1","1","1","0","1","1","0.541393200022867","0.574531100020977","0.512087100039935","1","1","1","1","1","1","1","1","1"
"250019","img/neutralC/CFD-BF-027-002-N.jpg","img/neutralC/CFD-LM-213-061-N.jpg","img/neutralC/CFD-BF-002-001-N.jpg","1","1","1","1","0","0","0.512087100039935","0.541393200022867","0.55060390001745","1","1","1","1","1","1","1","1","1"
"250019","img/neutralC/CFD-BF-002-001-N.jpg","img/neutralC/CFD-BF-027-002-N.jpg","img/neutralC/CFD-BF-214-308-N.jpg","1","1","1","0","1","1","0.55060390001745","0.512087100039935","0.532747400022345","1","1","1","1","1","1","1","1","1"
"250019","img/neutralC/CFD-BF-214-308-N.jpg","img/neutralC/CFD-BF-002-001-N.jpg","img/neutralC/CFD-IF-729-393-N.jpg","1","1","1","1","0","0","0.532747400022345","0.55060390001745","0.490170100034447","1","1","1","1","1","1","1","1","1"
"250019","img/neutralC/CFD-IF-729-393-N.jpg","img/neutralC/CFD-BF-214-308-N.jpg","img/neutralC/CFD-IM-721-341-N.jpg","1","1","1","0","1","1","0.490170100034447","0.532747400022345","0.52372570001171","1","1","1","1","1","1","1","1","1"
"250019","img/neutralC/CFD-IM-721-341-N.jpg","img/neutralC/CFD-IF-729-393-N.jpg",NA,"1","1",NA,"1","0",NA,"0.52372570001171","0.490170100034447",NA,"1","1",NA,"1","1",NA,"1","1",NA
"250019","img/neutralC/CFD-WF-217-085-N.jpg",NA,"img/neutralC/CFD-AF-229-160-N.jpg","1",NA,"1","1",NA,"0","0.626931100036018",NA,"0.529594800027553","1",NA,"1","1",NA,"1","1",NA,"1"
"250019","img/neutralC/CFD-AF-229-160-N.jpg","img/neutralC/CFD-WF-217-085-N.jpg","img/neutralC/CFD-WF-248-129-N.jpg","1","1","1","0","1","0","0.529594800027553","0.626931100036018","0.672729500045534","1","1","1","1","1","1","1","1","1"
"250019","img/neutralC/CFD-WF-248-129-N.jpg","img/neutralC/CFD-AF-229-160-N.jpg","img/neutralC/CFD-LM-217-162-N.jpg","1","1","1","0","0","0","0.672729500045534","0.529594800027553","0.441284200031077","1","1","1","1","1","1","1","1","1"
"250019","img/neutralC/CFD-LM-217-162-N.jpg","img/neutralC/CFD-WF-248-129-N.jpg","img/neutralC/CFD-AM-236-090-N.jpg","1","1","1","0","0","1","0.441284200031077","0.672729500045534","0.486732900026254","1","1","1","1","1","1","1","1","1"
"250019","img/neutralC/CFD-AM-236-090-N.jpg","img/neutralC/CFD-LM-217-162-N.jpg","img/neutralC/CFD-AF-254-167-N.jpg","1","1","1","1","0","1","0.486732900026254","0.441284200031077","0.537139100022614","1","1","1","1","1","1","1","1","1"
"250019","img/neutralC/CFD-AF-254-167-N.jpg","img/neutralC/CFD-AM-236-090-N.jpg","img/neutralC/CFD-WM-024-015-N.jpg","1","1","1","1","1","1","0.537139100022614","0.486732900026254","0.509647500031861","1","1","1","1","1","1","1","1","1"
"250019","img/neutralC/CFD-WM-024-015-N.jpg","img/neutralC/CFD-AF-254-167-N.jpg","img/neutralC/CFD-IM-685-004-N.jpg","1","1","1","1","1","1","0.509647500031861","0.537139100022614","0.508072900032857","1","1","1","1","1","1","1","1","1"
"250019","img/neutralC/CFD-IM-685-004-N.jpg","img/neutralC/CFD-WM-024-015-N.jpg","img/neutralC/CFD-AF-215-70-N.jpg","1","1","1","1","1","0","0.508072900032857","0.509647500031861","0.536150400002953","1","1","1","1","1","1","1","1","1"
"250019","img/neutralC/CFD-AF-215-70-N.jpg","img/neutralC/CFD-IM-685-004-N.jpg","img/neutralC/CFD-MF-340-026-N.jpg","1","1","1","0","1","1","0.536150400002953","0.508072900032857","0.446634400024777","1","1","1","1","1","1","1","1","1"
"250019","img/neutralC/CFD-MF-340-026-N.jpg","img/neutralC/CFD-AF-215-70-N.jpg","img/neutralC/CFD-WF-212-050-N.jpg","1","1","1","1","0","0","0.446634400024777","0.536150400002953","0.461855800036574","1","1","1","1","1","1","1","1","1"
"250019","img/neutralC/CFD-WF-212-050-N.jpg","img/neutralC/CFD-MF-340-026-N.jpg","img/neutralC/CFD-BF-224-002-N.jpg","1","1","1","0","1","1","0.461855800036574","0.446634400024777","0.519797100016149","1","1","1","1","1","1","1","1","1"
"250019","img/neutralC/CFD-BF-224-002-N.jpg","img/neutralC/CFD-WF-212-050-N.jpg","img/neutralC/CFD-IM-675-015-N.jpg","1","1","1","1","0","1","0.519797100016149","0.461855800036574","0.51850590002141","1","1","1","1","1","1","1","1","1"
"250019","img/neutralC/CFD-IM-675-015-N.jpg","img/neutralC/CFD-BF-224-002-N.jpg","img/neutralC/CFD-MF-329-001-N.jpg","1","1","1","1","1","0","0.51850590002141","0.519797100016149","0.426702600030694","1","1","1","1","1","1","1","1","1"
"250019","img/neutralC/CFD-MF-329-001-N.jpg","img/neutralC/CFD-IM-675-015-N.jpg","img/neutralC/CFD-IM-709-103-N.jpg","1","1","1","0","1","0","0.426702600030694","0.51850590002141","0.484270000015386","1","1","1","1","1","1","1","1","1"
"250019","img/neutralC/CFD-IM-709-103-N.jpg","img/neutralC/CFD-MF-329-001-N.jpg","img/neutralC/CFD-BM-243-218-N.jpg","1","1","1","0","0","1","0.484270000015386","0.426702600030694","0.557584800029872","1","1","1","1","1","1","1","1","1"
"250019","img/neutralC/CFD-BM-243-218-N.jpg","img/neutralC/CFD-IM-709-103-N.jpg","img/neutralC/CFD-MF-327-002-N.jpg","1","1","1","1","0","0","0.557584800029872","0.484270000015386","0.478581600007601","1","1","1","1","1","1","1","1","1"
"250019","img/neutralC/CFD-MF-327-002-N.jpg","img/neutralC/CFD-BM-243-218-N.jpg","img/neutralC/CFD-MM-304-002-N.jpg","1","1","1","0","1","1","0.478581600007601","0.557584800029872","0.535010300023714","1","1","1","1","1","1","1","1","1"
"250019","img/neutralC/CFD-MM-304-002-N.jpg","img/neutralC/CFD-MF-327-002-N.jpg","img/neutralC/CFD-MF-300-002-N.jpg","1","1","1","1","0","0","0.535010300023714","0.478581600007601","0.528494900034275","1","1","1","1","1","1","1","1","1"
"250019","img/neutralC/CFD-MF-300-002-N.jpg","img/neutralC/CFD-MM-304-002-N.jpg","img/neutralC/CFD-LF-226-174-N.jpg","1","1","1","0","1","0","0.528494900034275","0.535010300023714","0.510073400015244","1","1","1","1","1","1","1","1","1"
"250019","img/neutralC/CFD-LF-226-174-N.jpg","img/neutralC/CFD-MF-300-002-N.jpg","img/neutralC/CFD-WF-012-002-N.jpg","1","1","1","0","0","1","0.510073400015244","0.528494900034275","0.484536300034961","1","1","1","1","1","1","1","1","1"
"250019","img/neutralC/CFD-WF-012-002-N.jpg","img/neutralC/CFD-LF-226-174-N.jpg","img/neutralC/CFD-WM-232-070-N.jpg","1","1","1","1","0","0","0.484536300034961","0.510073400015244","0.583117800037144","1","1","1","1","1","1","1","1","1"
"250019","img/neutralC/CFD-WM-232-070-N.jpg","img/neutralC/CFD-WF-012-002-N.jpg","img/neutralC/CFD-IF-608-390-N.jpg","1","1","1","0","1","1","0.583117800037144","0.484536300034961","0.547900600038702","1","1","1","1","1","1","1","1","1"
"250019","img/neutralC/CFD-IF-608-390-N.jpg","img/neutralC/CFD-WM-232-070-N.jpg","img/neutralC/CFD-WF-008-002-N.jpg","1","1","1","1","0","1","0.547900600038702","0.583117800037144","0.474984200031031","1","1","1","1","1","1","1","1","1"
"250019","img/neutralC/CFD-WF-008-002-N.jpg","img/neutralC/CFD-IF-608-390-N.jpg","img/neutralC/CFD-BM-039-029-N.jpg","1","1","1","1","1","1","0.474984200031031","0.547900600038702","0.47345430002315","1","1","1","1","1","1","1","1","1"
"250019","img/neutralC/CFD-BM-039-029-N.jpg","img/neutralC/CFD-WF-008-002-N.jpg","img/neutralC/CFD-IM-637-007-N.jpg","1","1","1","1","1","0","0.47345430002315","0.474984200031031","0.517014500044752","1","1","1","1","1","1","1","1","1"
"250019","img/neutralC/CFD-IM-637-007-N.jpg","img/neutralC/CFD-BM-039-029-N.jpg","img/neutralC/CFD-BF-043-003-N.jpg","1","1","1","0","1","0","0.517014500044752","0.47345430002315","0.473829300026409","1","1","1","1","1","1","1","1","1"
"250019","img/neutralC/CFD-BF-043-003-N.jpg","img/neutralC/CFD-IM-637-007-N.jpg","img/neutralC/CFD-LF-201-035-N.jpg","1","1","1","0","0","1","0.473829300026409","0.517014500044752","0.512874800013378","1","1","1","1","1","1","1","1","1"
"250019","img/neutralC/CFD-LF-201-035-N.jpg","img/neutralC/CFD-BF-043-003-N.jpg","img/neutralC/CFD-IM-604-014-N.jpg","1","1","1","1","0","0","0.512874800013378","0.473829300026409","0.480343300034292","1","1","1","1","1","1","1","1","1"
"250019","img/neutralC/CFD-IM-604-014-N.jpg","img/neutralC/CFD-LF-201-035-N.jpg","img/neutralC/CFD-WM-213-076-N.jpg","1","1","0","0","1","1","0.480343300034292","0.512874800013378","0.471573600021657","1","1","1","1","1","1","1","1","1"
"250019","img/neutralC/CFD-WM-213-076-N.jpg","img/neutralC/CFD-IM-604-014-N.jpg","img/neutralC/CFD-BF-051-035-N.jpg","0","1","1","1","0","0","0.471573600021657","0.480343300034292","0.61572610004805","1","1","1","1","1","1","1","1","1"
"250019","img/neutralC/CFD-BF-051-035-N.jpg","img/neutralC/CFD-WM-213-076-N.jpg","img/neutralC/CFD-IF-619-197-N.jpg","1","0","1","0","1","0","0.61572610004805","0.471573600021657","0.576445500046248","1","1","1","1","1","1","1","1","1"
"250019","img/neutralC/CFD-IF-619-197-N.jpg","img/neutralC/CFD-BF-051-035-N.jpg",NA,"1","1",NA,"0","0",NA,"0.576445500046248","0.61572610004805",NA,"1","1",NA,"1","1",NA,"1","1",NA
"250019","img/neutralC/CFD-IM-669-111-N.jpg",NA,"img/neutralC/CFD-AF-213-126-N.jpg","1",NA,"1","1",NA,"1","0.554014100023778",NA,"0.497768000030192","1",NA,"1","1",NA,"1","1",NA,"1"
"250019","img/neutralC/CFD-AF-213-126-N.jpg","img/neutralC/CFD-IM-669-111-N.jpg","img/neutralC/CFD-BF-040-003-N.jpg","1","1","1","1","1","1","0.497768000030192","0.554014100023778","0.444822400022531","1","1","1","1","1","1","1","1","1"
"250019","img/neutralC/CFD-BF-040-003-N.jpg","img/neutralC/CFD-AF-213-126-N.jpg","img/neutralC/CFD-AF-250-200-N.jpg","1","1","1","1","1","1","0.444822400022531","0.497768000030192","0.528475300001446","1","1","1","1","1","1","1","1","1"
"250019","img/neutralC/CFD-AF-250-200-N.jpg","img/neutralC/CFD-BF-040-003-N.jpg","img/neutralC/CFD-LM-204-001-N.jpg","1","1","1","1","1","0","0.528475300001446","0.444822400022531","0.654895700019551","1","1","1","1","1","1","1","1","1"
"250019","img/neutralC/CFD-LM-204-001-N.jpg","img/neutralC/CFD-AF-250-200-N.jpg","img/neutralC/CFD-AF-205-155-N.jpg","1","1","1","0","1","0","0.654895700019551","0.528475300001446","0.505743000016082","1","1","1","1","1","1","1","1","1"
"250019","img/neutralC/CFD-AF-205-155-N.jpg","img/neutralC/CFD-LM-204-001-N.jpg","img/neutralC/CFD-BF-020-002-N.jpg","1","1","1","0","0","1","0.505743000016082","0.654895700019551","0.557587400020566","1","1","1","1","1","1","1","1","1"
"250019","img/neutralC/CFD-BF-020-002-N.jpg","img/neutralC/CFD-AF-205-155-N.jpg","img/neutralC/CFD-IM-632-097-N.jpg","1","1","1","1","0","0","0.557587400020566","0.505743000016082","0.523573500016937","1","1","1","1","1","1","1","1","1"
"250019","img/neutralC/CFD-IM-632-097-N.jpg","img/neutralC/CFD-BF-020-002-N.jpg","img/neutralC/CFD-AF-244-168-N.jpg","1","1","1","0","1","0","0.523573500016937","0.557587400020566","0.436010800040094","1","1","1","1","1","1","1","1","1"
"250019","img/neutralC/CFD-AF-244-168-N.jpg","img/neutralC/CFD-IM-632-097-N.jpg","img/neutralC/CFD-AM-245-111-N.jpg","1","1","1","0","0","1","0.436010800040094","0.523573500016937","0.50716150001972","1","1","1","1","1","1","1","1","1"
"250019","img/neutralC/CFD-AM-245-111-N.jpg","img/neutralC/CFD-AF-244-168-N.jpg","img/neutralC/CFD-BF-217-189-N.jpg","1","1","1","1","0","0","0.50716150001972","0.436010800040094","0.559539500041865","1","1","1","1","1","1","1","1","1"
"250019","img/neutralC/CFD-BF-217-189-N.jpg","img/neutralC/CFD-AM-245-111-N.jpg","img/neutralC/CFD-LF-239-148-N.jpg","1","1","1","0","1","0","0.559539500041865","0.50716150001972","0.534376000025077","1","1","1","1","1","1","1","1","1"
"250019","img/neutralC/CFD-LF-239-148-N.jpg","img/neutralC/CFD-BF-217-189-N.jpg","img/neutralC/CFD-MF-302-027-N.jpg","1","1","1","0","0","0","0.534376000025077","0.559539500041865","0.536177700007102","1","1","1","1","1","1","1","1","1"
"250019","img/neutralC/CFD-MF-302-027-N.jpg","img/neutralC/CFD-LF-239-148-N.jpg","img/neutralC/CFD-AM-233-236-N.jpg","1","1","1","0","0","1","0.536177700007102","0.534376000025077","0.550253100023838","1","1","1","1","1","1","1","1","1"
"250019","img/neutralC/CFD-AM-233-236-N.jpg","img/neutralC/CFD-MF-302-027-N.jpg","img/neutralC/CFD-WM-253-119-N.jpg","1","1","1","1","0","1","0.550253100023838","0.536177700007102","0.585564500041073","1","1","1","1","1","1","1","1","1"
"250019","img/neutralC/CFD-WM-253-119-N.jpg","img/neutralC/CFD-AM-233-236-N.jpg","img/neutralC/CFD-BM-215-155-N.jpg","1","1","1","1","1","0","0.585564500041073","0.550253100023838","0.537160800042329","1","1","1","1","1","1","1","1","1"
"250019","img/neutralC/CFD-BM-215-155-N.jpg","img/neutralC/CFD-WM-253-119-N.jpg","img/neutralC/CFD-BM-004-002-N.jpg","1","1","1","0","1","0","0.537160800042329","0.585564500041073","0.464950600027805","1","1","1","1","1","1","1","1","1"
"250019","img/neutralC/CFD-BM-004-002-N.jpg","img/neutralC/CFD-BM-215-155-N.jpg","img/neutralC/CFD-WF-235-121-N.jpg","1","1","1","0","0","0","0.464950600027805","0.537160800042329","0.518411800032482","1","1","1","1","1","1","1","1","1"
"250019","img/neutralC/CFD-WF-235-121-N.jpg","img/neutralC/CFD-BM-004-002-N.jpg","img/neutralC/CFD-LM-241-125-N.jpg","1","1","1","0","0","1","0.518411800032482","0.464950600027805","0.550696600024821","1","1","1","1","1","1","1","1","1"
"250019","img/neutralC/CFD-LM-241-125-N.jpg","img/neutralC/CFD-WF-235-121-N.jpg","img/neutralC/CFD-IM-678-482-N.jpg","1","1","1","1","0","0","0.550696600024821","0.518411800032482","0.590964100003475","1","1","1","1","1","1","1","1","1"
"250019","img/neutralC/CFD-IM-678-482-N.jpg","img/neutralC/CFD-LM-241-125-N.jpg","img/neutralC/CFD-BF-235-168-N.jpg","1","1","1","0","1","1","0.590964100003475","0.550696600024821","0.518605100020068","1","1","1","1","1","1","1","1","1"
"250019","img/neutralC/CFD-BF-235-168-N.jpg","img/neutralC/CFD-IM-678-482-N.jpg","img/neutralC/CFD-AM-225-102-N.jpg","1","1","1","1","0","0","0.518605100020068","0.590964100003475","0.517226100026164","1","1","1","1","1","1","1","1","1"
"250019","img/neutralC/CFD-AM-225-102-N.jpg","img/neutralC/CFD-BF-235-168-N.jpg","img/neutralC/CFD-MF-307-002-N.jpg","1","1","1","0","1","1","0.517226100026164","0.518605100020068","0.608886400033953","1","1","1","1","1","1","1","1","1"
"250019","img/neutralC/CFD-MF-307-002-N.jpg","img/neutralC/CFD-AM-225-102-N.jpg","img/neutralC/CFD-AF-234-208-N.jpg","1","1","1","1","0","1","0.608886400033953","0.517226100026164","0.478229100030148","1","1","1","1","1","1","1","1","1"
"250019","img/neutralC/CFD-AF-234-208-N.jpg","img/neutralC/CFD-MF-307-002-N.jpg","img/neutralC/CFD-AF-246-242-N.jpg","1","1","1","1","1","0","0.478229100030148","0.608886400033953","0.48528120003175","1","1","1","1","1","1","1","1","1"
"250019","img/neutralC/CFD-AF-246-242-N.jpg","img/neutralC/CFD-AF-234-208-N.jpg","img/neutralC/CFD-BF-042-026-N.jpg","1","1","1","0","1","1","0.48528120003175","0.478229100030148","0.622348400007468","1","1","1","1","1","1","1","1","1"
"250019","img/neutralC/CFD-BF-042-026-N.jpg","img/neutralC/CFD-AF-246-242-N.jpg","img/neutralC/CFD-WF-210-086-N.jpg","1","1","1","1","0","0","0.622348400007468","0.48528120003175","0.61073260003468","1","1","1","1","1","1","1","1","1"
"250019","img/neutralC/CFD-WF-210-086-N.jpg","img/neutralC/CFD-BF-042-026-N.jpg","img/neutralC/CFD-BF-206-143-N.jpg","1","1","1","0","1","1","0.61073260003468","0.622348400007468","0.653986300021643","1","1","1","1","1","1","1","1","1"
"250019","img/neutralC/CFD-BF-206-143-N.jpg","img/neutralC/CFD-WF-210-086-N.jpg","img/neutralC/CFD-WM-018-002-N.jpg","1","1","1","1","0","0","0.653986300021643","0.61073260003468","0.873841100023128","1","1","1","1","1","1","1","1","1"
"250019","img/neutralC/CFD-WM-018-002-N.jpg","img/neutralC/CFD-BF-206-143-N.jpg","img/neutralC/CFD-IF-732-260-N.jpg","1","1","1","0","1","0","0.873841100023128","0.653986300021643","0.561161100020399","1","1","1","1","1","1","1","1","1"
"250019","img/neutralC/CFD-IF-732-260-N.jpg","img/neutralC/CFD-WM-018-002-N.jpg","img/neutralC/CFD-IM-635-010-N.jpg","1","1","1","0","0","1","0.561161100020399","0.873841100023128","0.631548800010933","1","1","1","1","1","1","1","1","1"
"250019","img/neutralC/CFD-IM-635-010-N.jpg","img/neutralC/CFD-IF-732-260-N.jpg","img/neutralC/CFD-IF-636-011-N.jpg","1","1","1","1","0","1","0.631548800010933","0.561161100020399","0.567035400046734","1","1","1","1","1","1","1","1","1"
"250019","img/neutralC/CFD-IF-636-011-N.jpg","img/neutralC/CFD-IM-635-010-N.jpg",NA,"1","1",NA,"1","1",NA,"0.567035400046734","0.631548800010933",NA,"1","1",NA,"1","1",NA,"1","1",NA
"250019","img/neutralC/CFD-LM-200-045-N.jpg",NA,"img/neutralC/CFD-IM-664-651-N.jpg","1",NA,"1","1",NA,"1","0.621186800010037",NA,"0.626757899997756","1",NA,"1","1",NA,"1","1",NA,"1"
"250019","img/neutralC/CFD-IM-664-651-N.jpg","img/neutralC/CFD-LM-200-045-N.jpg","img/neutralC/CFD-IF-626-375-N.jpg","1","1","1","1","1","0","0.626757899997756","0.621186800010037","0.583308700006455","1","1","1","1","1","1","1","1","1"
"250019","img/neutralC/CFD-IF-626-375-N.jpg","img/neutralC/CFD-IM-664-651-N.jpg","img/neutralC/CFD-MF-343-001-N.jpg","1","1","1","0","1","1","0.583308700006455","0.626757899997756","0.618103600048926","1","1","1","1","1","1","1","1","1"
"250019","img/neutralC/CFD-MF-343-001-N.jpg","img/neutralC/CFD-IF-626-375-N.jpg","img/neutralC/CFD-WF-007-001-N.jpg","1","1","1","1","0","1","0.618103600048926","0.583308700006455","0.56291770003736","1","1","1","1","1","1","1","1","1"
"250019","img/neutralC/CFD-WF-007-001-N.jpg","img/neutralC/CFD-MF-343-001-N.jpg","img/neutralC/CFD-LF-206-078-N.jpg","1","1","1","1","1","1","0.56291770003736","0.618103600048926","0.601352100027725","1","1","1","1","1","1","1","1","1"
"250019","img/neutralC/CFD-LF-206-078-N.jpg","img/neutralC/CFD-WF-007-001-N.jpg","img/neutralC/CFD-AF-253-130-N.jpg","1","1","1","1","1","1","0.601352100027725","0.56291770003736","0.579113200044958","1","1","1","1","1","1","1","1","1"
"250019","img/neutralC/CFD-AF-253-130-N.jpg","img/neutralC/CFD-LF-206-078-N.jpg","img/neutralC/CFD-WF-244-163-N.jpg","1","1","1","1","1","1","0.579113200044958","0.601352100027725","0.623910900030751","1","1","1","1","1","1","1","1","1"
"250019","img/neutralC/CFD-WF-244-163-N.jpg","img/neutralC/CFD-AF-253-130-N.jpg","img/neutralC/CFD-BF-014-002-N.jpg","1","1","1","1","1","1","0.623910900030751","0.579113200044958","0.592229500034591","1","1","1","1","1","1","1","1","1"
"250019","img/neutralC/CFD-BF-014-002-N.jpg","img/neutralC/CFD-WF-244-163-N.jpg","img/neutralC/CFD-MM-324-069-N.jpg","1","1","1","1","1","1","0.592229500034591","0.623910900030751","0.488139399996726","1","1","1","1","1","1","1","1","1"
"250019","img/neutralC/CFD-MM-324-069-N.jpg","img/neutralC/CFD-BF-014-002-N.jpg","img/neutralC/CFD-LM-225-130-N.jpg","1","1","1","1","1","0","0.488139399996726","0.592229500034591","0.541187200025888","1","1","1","1","1","1","1","1","1"
"250019","img/neutralC/CFD-LM-225-130-N.jpg","img/neutralC/CFD-MM-324-069-N.jpg","img/neutralC/CFD-MF-305-014-N.jpg","1","1","1","0","1","1","0.541187200025888","0.488139399996726","0.544654500030447","1","1","1","1","1","1","1","1","1"
"250019","img/neutralC/CFD-MF-305-014-N.jpg","img/neutralC/CFD-LM-225-130-N.jpg","img/neutralC/CFD-WF-030-002-N.jpg","1","1","1","1","0","0","0.544654500030447","0.541187200025888","0.591358100005891","1","1","1","1","1","1","1","1","1"
"250019","img/neutralC/CFD-WF-030-002-N.jpg","img/neutralC/CFD-MF-305-014-N.jpg","img/neutralC/CFD-BF-237-172-N.jpg","1","1","1","0","1","1","0.591358100005891","0.544654500030447","0.558675400010543","1","1","1","1","1","1","1","1","1"
"250019","img/neutralC/CFD-BF-237-172-N.jpg","img/neutralC/CFD-WF-030-002-N.jpg","img/neutralC/CFD-IM-706-002-N.jpg","1","1","1","1","0","0","0.558675400010543","0.591358100005891","0.462583400018048","1","1","1","1","1","1","1","1","1"
"250019","img/neutralC/CFD-IM-706-002-N.jpg","img/neutralC/CFD-BF-237-172-N.jpg","img/neutralC/CFD-IM-680-369-N.jpg","1","1","1","0","1","1","0.462583400018048","0.558675400010543","0.661111900029937","1","1","1","1","1","1","1","1","1"
"250019","img/neutralC/CFD-IM-680-369-N.jpg","img/neutralC/CFD-IM-706-002-N.jpg","img/neutralC/CFD-IF-660-464-N.jpg","1","1","1","1","0","0","0.661111900029937","0.462583400018048","0.580321000044933","1","1","1","1","1","1","1","1","1"
"250019","img/neutralC/CFD-IF-660-464-N.jpg","img/neutralC/CFD-IM-680-369-N.jpg","img/neutralC/CFD-BM-250-170-N.jpg","1","1","1","0","1","1","0.580321000044933","0.661111900029937","0.614460400043754","1","1","1","1","1","1","1","1","1"
"250019","img/neutralC/CFD-BM-250-170-N.jpg","img/neutralC/CFD-IF-660-464-N.jpg","img/neutralC/CFD-IM-702-101-N.jpg","1","1","1","1","0","1","0.614460400043754","0.580321000044933","0.50869740001508","1","1","1","1","1","1","1","1","1"
"250019","img/neutralC/CFD-IM-702-101-N.jpg","img/neutralC/CFD-BM-250-170-N.jpg","img/neutralC/CFD-AM-220-134-N.jpg","1","1","1","1","1","0","0.50869740001508","0.614460400043754","0.668304500024533","1","1","1","1","1","1","1","1","1"
"250019","img/neutralC/CFD-AM-220-134-N.jpg","img/neutralC/CFD-IM-702-101-N.jpg","img/neutralC/CFD-WF-222-092-N.jpg","1","1","1","0","1","1","0.668304500024533","0.50869740001508","0.520882600016193","1","1","1","1","1","1","1","1","1"
"250019","img/neutralC/CFD-WF-222-092-N.jpg","img/neutralC/CFD-AM-220-134-N.jpg","img/neutralC/CFD-MF-357-002-N.jpg","1","1","1","1","0","0","0.520882600016193","0.668304500024533","0.518411400029436","1","1","1","1","1","1","1","1","1"
"250019","img/neutralC/CFD-MF-357-002-N.jpg","img/neutralC/CFD-WF-222-092-N.jpg","img/neutralC/CFD-IM-667-369-N.jpg","1","1","1","0","1","0","0.518411400029436","0.520882600016193","0.579237500031013","1","1","1","1","1","1","1","1","1"
"250019","img/neutralC/CFD-IM-667-369-N.jpg","img/neutralC/CFD-MF-357-002-N.jpg","img/neutralC/CFD-LF-255-088-N.jpg","1","1","1","0","0","0","0.579237500031013","0.518411400029436","0.67713950003963","1","1","1","1","1","1","1","1","1"
"250019","img/neutralC/CFD-LF-255-088-N.jpg","img/neutralC/CFD-IM-667-369-N.jpg","img/neutralC/CFD-WM-209-038-N.jpg","1","1","1","0","0","0","0.67713950003963","0.579237500031013","0.594641600036994","1","1","1","1","1","1","1","1","1"
"250019","img/neutralC/CFD-WM-209-038-N.jpg","img/neutralC/CFD-LF-255-088-N.jpg","img/neutralC/CFD-AF-233-190-N.jpg","1","1","1","0","0","0","0.594641600036994","0.67713950003963","0.601542600052198","1","1","1","1","1","1","1","1","1"
"250019","img/neutralC/CFD-AF-233-190-N.jpg","img/neutralC/CFD-WM-209-038-N.jpg","img/neutralC/CFD-MF-316-001-N.jpg","1","1","1","0","0","0","0.601542600052198","0.594641600036994","0.571326700010104","1","1","1","1","1","1","1","1","1"
"250019","img/neutralC/CFD-MF-316-001-N.jpg","img/neutralC/CFD-AF-233-190-N.jpg","img/neutralC/CFD-MF-303-013-N.jpg","1","1","1","0","0","0","0.571326700010104","0.601542600052198","0.41802280000411","1","1","1","1","1","1","1","1","1"
"250019","img/neutralC/CFD-MF-303-013-N.jpg","img/neutralC/CFD-MF-316-001-N.jpg","img/neutralC/CFD-BM-001-014-N.jpg","1","1","1","0","0","0","0.41802280000411","0.571326700010104","0.465838600008283","1","1","1","1","1","1","1","1","1"
"250019","img/neutralC/CFD-BM-001-014-N.jpg","img/neutralC/CFD-MF-303-013-N.jpg","img/neutralC/CFD-WM-015-002-N.jpg","1","1","1","0","0","0","0.465838600008283","0.41802280000411","0.541570400033379","1","1","1","1","1","1","1","1","1"
"250019","img/neutralC/CFD-WM-015-002-N.jpg","img/neutralC/CFD-BM-001-014-N.jpg","img/neutralC/CFD-WM-218-074-N.jpg","1","1","1","0","0","1","0.541570400033379","0.465838600008283","0.549593900039326","1","1","1","1","1","1","1","1","1"
"250019","img/neutralC/CFD-WM-218-074-N.jpg","img/neutralC/CFD-WM-015-002-N.jpg","img/neutralC/CFD-BM-217-082-N.jpg","1","1","1","1","0","0","0.549593900039326","0.541570400033379","0.463323300034972","1","1","1","1","1","1","1","1","1"
"250019","img/neutralC/CFD-BM-217-082-N.jpg","img/neutralC/CFD-WM-218-074-N.jpg",NA,"1","1",NA,"0","1",NA,"0.463323300034972","0.549593900039326",NA,"1","1",NA,"1","1",NA,"1","1",NA
"250019","img/neutralC/CFD-WM-017-002-N.jpg",NA,"img/neutralC/CFD-LM-219-295-N.jpg","1",NA,"1","0",NA,"1","0.506265700038057",NA,"0.48383520002244","1",NA,"1","1",NA,"1","1",NA,"1"
"250019","img/neutralC/CFD-LM-219-295-N.jpg","img/neutralC/CFD-WM-017-002-N.jpg","img/neutralC/CFD-IF-620-218-N.jpg","1","1","1","1","0","0","0.48383520002244","0.506265700038057","0.630837600037921","1","1","1","1","1","1","1","1","1"
"250019","img/neutralC/CFD-IF-620-218-N.jpg","img/neutralC/CFD-LM-219-295-N.jpg","img/neutralC/CFD-IM-617-174-N.jpg","1","1","1","0","1","0","0.630837600037921","0.48383520002244","0.423169600049732","1","1","1","1","1","1","1","1","1"
"250019","img/neutralC/CFD-IM-617-174-N.jpg","img/neutralC/CFD-IF-620-218-N.jpg","img/neutralC/CFD-IM-657-308-N.jpg","1","1","1","0","0","0","0.423169600049732","0.630837600037921","0.619635100010782","1","1","1","1","1","1","1","1","1"
"250019","img/neutralC/CFD-IM-657-308-N.jpg","img/neutralC/CFD-IM-617-174-N.jpg","img/neutralC/CFD-BM-231-155-N.jpg","1","1","1","0","0","1","0.619635100010782","0.423169600049732","0.597714300034568","1","1","1","1","1","1","1","1","1"
"250019","img/neutralC/CFD-BM-231-155-N.jpg","img/neutralC/CFD-IM-657-308-N.jpg","img/neutralC/CFD-LF-250-169-N.jpg","1","1","1","1","0","1","0.597714300034568","0.619635100010782","0.537195700017037","1","1","1","1","1","1","1","1","1"
"250019","img/neutralC/CFD-LF-250-169-N.jpg","img/neutralC/CFD-BM-231-155-N.jpg","img/neutralC/CFD-AF-202-122-N.jpg","1","1","1","1","1","1","0.537195700017037","0.597714300034568","0.474335600010818","1","1","1","1","1","1","1","1","1"
"250019","img/neutralC/CFD-AF-202-122-N.jpg","img/neutralC/CFD-LF-250-169-N.jpg","img/neutralC/CFD-IM-638-250-1-N.jpg","1","1","1","1","1","1","0.474335600010818","0.537195700017037","0.482857500028331","1","1","1","1","1","1","1","1","1"
"250019","img/neutralC/CFD-IM-638-250-1-N.jpg","img/neutralC/CFD-AF-202-122-N.jpg","img/neutralC/CFD-LM-226-175-N.jpg","1","1","1","1","1","0","0.482857500028331","0.474335600010818","0.641314100037562","1","1","1","1","1","1","1","1","1"
"250019","img/neutralC/CFD-LM-226-175-N.jpg","img/neutralC/CFD-IM-638-250-1-N.jpg","img/neutralC/CFD-IM-653-008-N.jpg","1","1","1","0","1","0","0.641314100037562","0.482857500028331","0.513218100037193","1","1","1","1","1","1","1","1","1"
"250019","img/neutralC/CFD-IM-653-008-N.jpg","img/neutralC/CFD-LM-226-175-N.jpg","img/neutralC/CFD-BM-212-117-N.jpg","1","1","1","0","0","0","0.513218100037193","0.641314100037562","0.665598700026749","1","1","1","1","1","1","1","1","1"
"250019","img/neutralC/CFD-BM-212-117-N.jpg","img/neutralC/CFD-IM-653-008-N.jpg","img/neutralC/CFD-LF-245-166-N.jpg","1","1","1","0","0","1","0.665598700026749","0.513218100037193","0.620775200019125","1","1","1","1","1","1","1","1","1"
"250019","img/neutralC/CFD-LF-245-166-N.jpg","img/neutralC/CFD-BM-212-117-N.jpg","img/neutralC/CFD-MF-313-002-N.jpg","1","1","1","1","0","0","0.620775200019125","0.665598700026749","0.48209460004","1","1","1","1","1","1","1","1","1"
"250019","img/neutralC/CFD-MF-313-002-N.jpg","img/neutralC/CFD-LF-245-166-N.jpg","img/neutralC/CFD-AF-241-141-N.jpg","1","1","1","0","1","1","0.48209460004","0.620775200019125","0.577926800004207","1","1","1","1","1","1","1","1","1"
"250019","img/neutralC/CFD-AF-241-141-N.jpg","img/neutralC/CFD-MF-313-002-N.jpg","img/neutralC/CFD-BM-005-003-N.jpg","1","1","1","1","0","1","0.577926800004207","0.48209460004","0.528445200034184","1","1","1","1","1","1","1","1","1"
"250019","img/neutralC/CFD-BM-005-003-N.jpg","img/neutralC/CFD-AF-241-141-N.jpg","img/neutralC/CFD-IM-686-097-N.jpg","1","1","1","1","1","0","0.528445200034184","0.577926800004207","0.5485826000222","1","1","1","1","1","1","1","1","1"
"250019","img/neutralC/CFD-IM-686-097-N.jpg","img/neutralC/CFD-BM-005-003-N.jpg","img/neutralC/CFD-LF-247-051-N.jpg","1","1","1","0","1","1","0.5485826000222","0.528445200034184","0.514174600015394","1","1","1","1","1","1","1","1","1"
"250019","img/neutralC/CFD-LF-247-051-N.jpg","img/neutralC/CFD-IM-686-097-N.jpg","img/neutralC/CFD-WM-242-011-N.jpg","1","1","1","1","0","0","0.514174600015394","0.5485826000222","0.550860300019849","1","1","1","1","1","1","1","1","1"
"250019","img/neutralC/CFD-WM-242-011-N.jpg","img/neutralC/CFD-LF-247-051-N.jpg","img/neutralC/CFD-WM-258-125-N.jpg","1","1","1","0","1","0","0.550860300019849","0.514174600015394","0.550325700023677","1","1","1","1","1","1","1","1","1"
"250019","img/neutralC/CFD-WM-258-125-N.jpg","img/neutralC/CFD-WM-242-011-N.jpg","img/neutralC/CFD-LF-242-121-N.jpg","1","1","1","0","0","0","0.550325700023677","0.550860300019849","0.540786900033709","1","1","1","1","1","1","1","1","1"
"250019","img/neutralC/CFD-LF-242-121-N.jpg","img/neutralC/CFD-WM-258-125-N.jpg","img/neutralC/CFD-BF-033-028-N.jpg","1","1","1","0","0","0","0.540786900033709","0.550325700023677","0.482142000022577","1","1","1","1","1","1","1","1","1"
"250019","img/neutralC/CFD-BF-033-028-N.jpg","img/neutralC/CFD-LF-242-121-N.jpg","img/neutralC/CFD-WF-209-052-N.jpg","1","1","1","0","0","1","0.482142000022577","0.540786900033709","0.426450400031172","1","1","1","1","1","1","1","1","1"
"250019","img/neutralC/CFD-WF-209-052-N.jpg","img/neutralC/CFD-BF-033-028-N.jpg","img/neutralC/CFD-AF-206-079-N.jpg","1","1","1","1","0","1","0.426450400031172","0.482142000022577","0.56806350001716","1","1","1","1","1","1","1","1","1"
"250019","img/neutralC/CFD-AF-206-079-N.jpg","img/neutralC/CFD-WF-209-052-N.jpg","img/neutralC/CFD-BM-026-002-N.jpg","1","1","1","1","1","0","0.56806350001716","0.426450400031172","0.516251900029602","1","1","1","1","1","1","1","1","1"
"250019","img/neutralC/CFD-BM-026-002-N.jpg","img/neutralC/CFD-AF-206-079-N.jpg","img/neutralC/CFD-LM-233-171-N.jpg","1","1","1","0","1","0","0.516251900029602","0.56806350001716","0.678243600035785","1","1","1","1","1","1","1","1","1"
"250019","img/neutralC/CFD-LM-233-171-N.jpg","img/neutralC/CFD-BM-026-002-N.jpg","img/neutralC/CFD-WM-227-099-N.jpg","1","1","1","0","0","1","0.678243600035785","0.516251900029602","0.431454200006556","1","1","1","1","1","1","1","1","1"
"250019","img/neutralC/CFD-WM-227-099-N.jpg","img/neutralC/CFD-LM-233-171-N.jpg","img/neutralC/CFD-IM-727-195-N.jpg","1","1","1","1","0","1","0.431454200006556","0.678243600035785","0.511805500020273","1","1","1","1","1","1","1","1","1"
"250019","img/neutralC/CFD-IM-727-195-N.jpg","img/neutralC/CFD-WM-227-099-N.jpg","img/neutralC/CFD-BF-238-190-N.jpg","1","1","1","1","1","1","0.511805500020273","0.431454200006556","0.602321900019888","1","1","1","1","1","1","1","1","1"
"250019","img/neutralC/CFD-BF-238-190-N.jpg","img/neutralC/CFD-IM-727-195-N.jpg","img/neutralC/CFD-IF-665-015-N.jpg","1","1","1","1","1","0","0.602321900019888","0.511805500020273","0.472262100025546","1","1","1","1","1","1","1","1","1"
"250019","img/neutralC/CFD-IF-665-015-N.jpg","img/neutralC/CFD-BF-238-190-N.jpg","img/neutralC/CFD-BF-010-001-N.jpg","1","1","1","0","1","1","0.472262100025546","0.602321900019888","0.447561900044093","1","1","1","1","1","1","1","1","1"
"250019","img/neutralC/CFD-BF-010-001-N.jpg","img/neutralC/CFD-IF-665-015-N.jpg","img/neutralC/CFD-BM-018-001-N.jpg","1","1","1","1","0","1","0.447561900044093","0.472262100025546","0.504351200041128","1","1","1","1","1","1","1","1","1"
"250019","img/neutralC/CFD-BM-018-001-N.jpg","img/neutralC/CFD-BF-010-001-N.jpg",NA,"1","1",NA,"1","1",NA,"0.504351200041128","0.447561900044093",NA,"1","1",NA,"1","1",NA,"1","1",NA
"250019","img/neutralC/CFD-LM-247-095-N.jpg",NA,"img/neutralC/CFD-WM-254-152-N.jpg","1",NA,"0","0",NA,"1","0.487799800030189",NA,"0.471820700011449","1",NA,"1","1",NA,"1","1",NA,"1"
"250019","img/neutralC/CFD-WM-254-152-N.jpg","img/neutralC/CFD-LM-247-095-N.jpg","img/neutralC/CFD-WF-223-133-N.jpg","0","1","1","1","0","0","0.471820700011449","0.487799800030189","0.817195800016634","1","1","1","1","1","1","1","1","1"
"250019","img/neutralC/CFD-WF-223-133-N.jpg","img/neutralC/CFD-WM-254-152-N.jpg","img/neutralC/CFD-IF-673-389-N.jpg","1","0","1","0","1","0","0.817195800016634","0.471820700011449","0.535590600018622","1","1","1","1","1","1","1","1","1"
"250019","img/neutralC/CFD-IF-673-389-N.jpg","img/neutralC/CFD-WF-223-133-N.jpg","img/neutralC/CFD-IF-625-225-N.jpg","1","1","1","0","0","0","0.535590600018622","0.817195800016634","0.48161280003842","1","1","1","1","1","1","1","1","1"
"250019","img/neutralC/CFD-IF-625-225-N.jpg","img/neutralC/CFD-IF-673-389-N.jpg","img/neutralC/CFD-WF-006-002-N.jpg","1","1","1","0","0","0","0.48161280003842","0.535590600018622","0.468278500018641","1","1","1","1","1","1","1","1","1"
"250019","img/neutralC/CFD-WF-006-002-N.jpg","img/neutralC/CFD-IF-625-225-N.jpg","img/neutralC/CFD-IM-659-359-N.jpg","1","1","1","0","0","0","0.468278500018641","0.48161280003842","0.536272200028179","1","1","1","1","1","1","1","1","1"
"250019","img/neutralC/CFD-IM-659-359-N.jpg","img/neutralC/CFD-WF-006-002-N.jpg","img/neutralC/CFD-AF-239-171-N.jpg","1","1","1","0","0","1","0.536272200028179","0.468278500018641","0.56663200003095","1","1","1","1","1","1","1","1","1"
"250019","img/neutralC/CFD-AF-239-171-N.jpg","img/neutralC/CFD-IM-659-359-N.jpg","img/neutralC/CFD-LF-210-220-N.jpg","1","1","1","1","0","1","0.56663200003095","0.536272200028179","0.508135400013998","1","1","1","1","1","1","1","1","1"
"250019","img/neutralC/CFD-LF-210-220-N.jpg","img/neutralC/CFD-AF-239-171-N.jpg","img/neutralC/CFD-LM-238-129-N.jpg","1","1","1","1","1","1","0.508135400013998","0.56663200003095","0.492610000044806","1","1","1","1","1","1","1","1","1"
"250019","img/neutralC/CFD-LM-238-129-N.jpg","img/neutralC/CFD-LF-210-220-N.jpg","img/neutralC/CFD-BF-045-003-N.jpg","1","1","1","1","1","0","0.492610000044806","0.508135400013998","0.47324380002101","1","1","1","1","1","1","1","1","1"
"250019","img/neutralC/CFD-BF-045-003-N.jpg","img/neutralC/CFD-LM-238-129-N.jpg","img/neutralC/CFD-AF-227-207-N.jpg","1","1","1","0","1","1","0.47324380002101","0.492610000044806","0.574654900003225","1","1","1","1","1","1","1","1","1"
"250019","img/neutralC/CFD-AF-227-207-N.jpg","img/neutralC/CFD-BF-045-003-N.jpg","img/neutralC/CFD-BF-004-014-N.jpg","1","1","1","1","0","1","0.574654900003225","0.47324380002101","0.425557900016429","1","1","1","1","1","1","1","1","1"
"250019","img/neutralC/CFD-BF-004-014-N.jpg","img/neutralC/CFD-AF-227-207-N.jpg","img/neutralC/CFD-IM-701-312-N.jpg","1","1","1","1","1","0","0.425557900016429","0.574654900003225","0.605685200047446","1","1","1","1","1","1","1","1","1"
"250019","img/neutralC/CFD-IM-701-312-N.jpg","img/neutralC/CFD-BF-004-014-N.jpg","img/neutralC/CFD-BM-003-003-N.jpg","1","1","1","0","1","0","0.605685200047446","0.425557900016429","0.519022900029086","1","1","1","1","1","1","1","1","1"
"250019","img/neutralC/CFD-BM-003-003-N.jpg","img/neutralC/CFD-IM-701-312-N.jpg","img/neutralC/CFD-WM-202-107-N.jpg","1","1","1","0","0","1","0.519022900029086","0.605685200047446","0.54392460003146","1","1","1","1","1","1","1","1","1"
"250019","img/neutralC/CFD-WM-202-107-N.jpg","img/neutralC/CFD-BM-003-003-N.jpg","img/neutralC/CFD-MF-336-016-N.jpg","1","1","1","1","0","1","0.54392460003146","0.519022900029086","0.502920600003563","1","1","1","1","1","1","1","1","1"
"250019","img/neutralC/CFD-MF-336-016-N.jpg","img/neutralC/CFD-WM-202-107-N.jpg","img/neutralC/CFD-LF-241-188-N.jpg","1","1","1","1","1","0","0.502920600003563","0.54392460003146","0.558552600006806","1","1","1","1","1","1","1","1","1"
"250019","img/neutralC/CFD-LF-241-188-N.jpg","img/neutralC/CFD-MF-336-016-N.jpg","img/neutralC/CFD-WF-033-002-N.jpg","1","1","1","0","1","1","0.558552600006806","0.502920600003563","0.456582900020294","1","1","1","1","1","1","1","1","1"
"250019","img/neutralC/CFD-WF-033-002-N.jpg","img/neutralC/CFD-LF-241-188-N.jpg","img/neutralC/CFD-BM-213-134-N.jpg","1","1","1","1","0","1","0.456582900020294","0.558552600006806","0.464994700014358","1","1","1","1","1","1","1","1","1"
"250019","img/neutralC/CFD-BM-213-134-N.jpg","img/neutralC/CFD-WF-033-002-N.jpg","img/neutralC/CFD-AF-210-050-N.jpg","1","1","1","1","1","1","0.464994700014358","0.456582900020294","0.460543700028211","1","1","1","1","1","1","1","1","1"
"250019","img/neutralC/CFD-AF-210-050-N.jpg","img/neutralC/CFD-BM-213-134-N.jpg","img/neutralC/CFD-MF-312-002-N.jpg","1","1","1","1","1","1","0.460543700028211","0.464994700014358","0.534513999999035","1","1","1","1","1","1","1","1","1"
"250019","img/neutralC/CFD-MF-312-002-N.jpg","img/neutralC/CFD-AF-210-050-N.jpg","img/neutralC/CFD-BM-013-002-N.jpg","1","1","1","1","1","1","0.534513999999035","0.460543700028211","0.47624430002179","1","1","1","1","1","1","1","1","1"
"250019","img/neutralC/CFD-BM-013-002-N.jpg","img/neutralC/CFD-MF-312-002-N.jpg","img/neutralC/CFD-IM-738-191-N.jpg","1","1","1","1","1","0","0.47624430002179","0.534513999999035","0.442800600023475","1","1","1","1","1","1","1","1","1"
"250019","img/neutralC/CFD-IM-738-191-N.jpg","img/neutralC/CFD-BM-013-002-N.jpg","img/neutralC/CFD-LF-208-127-N.jpg","1","1","1","0","1","0","0.442800600023475","0.47624430002179","0.478435800003354","1","1","1","1","1","1","1","1","1"
"250019","img/neutralC/CFD-LF-208-127-N.jpg","img/neutralC/CFD-IM-738-191-N.jpg","img/neutralC/CFD-AM-221-184-N.jpg","1","1","1","0","0","1","0.478435800003354","0.442800600023475","0.411646800028393","1","1","1","1","1","1","1","1","1"
"250019","img/neutralC/CFD-AM-221-184-N.jpg","img/neutralC/CFD-LF-208-127-N.jpg","img/neutralC/CFD-BM-010-003-N.jpg","1","1","1","1","0","0","0.411646800028393","0.478435800003354","0.560952000028919","1","1","1","1","1","1","1","1","1"
"250019","img/neutralC/CFD-BM-010-003-N.jpg","img/neutralC/CFD-AM-221-184-N.jpg","img/neutralC/CFD-IF-744-114-N.jpg","1","1","1","0","1","0","0.560952000028919","0.411646800028393","0.572661200014409","1","1","1","1","1","1","1","1","1"
"250019","img/neutralC/CFD-IF-744-114-N.jpg","img/neutralC/CFD-BM-010-003-N.jpg","img/neutralC/CFD-WM-228-065-N.jpg","1","1","1","0","0","0","0.572661200014409","0.560952000028919","0.417948000016622","1","1","1","1","1","1","1","1","1"
"250019","img/neutralC/CFD-WM-228-065-N.jpg","img/neutralC/CFD-IF-744-114-N.jpg","img/neutralC/CFD-BM-028-002-N.jpg","1","1","1","0","0","1","0.417948000016622","0.572661200014409","0.479715500026941","1","1","1","1","1","1","1","1","1"
"250019","img/neutralC/CFD-BM-028-002-N.jpg","img/neutralC/CFD-WM-228-065-N.jpg","img/neutralC/CFD-BF-222-240-N.jpg","1","1","1","1","0","0","0.479715500026941","0.417948000016622","0.469588600011775","1","1","1","1","1","1","1","1","1"
"250019","img/neutralC/CFD-BF-222-240-N.jpg","img/neutralC/CFD-BM-028-002-N.jpg","img/neutralC/CFD-LF-225-164-N.jpg","1","1","1","0","1","1","0.469588600011775","0.479715500026941","0.435192100034328","1","1","1","1","1","1","1","1","1"
"250019","img/neutralC/CFD-LF-225-164-N.jpg","img/neutralC/CFD-BF-222-240-N.jpg",NA,"1","1",NA,"1","0",NA,"0.435192100034328","0.469588600011775",NA,"1","1",NA,"1","1",NA,"1","1",NA
"250019","img/neutralC/CFD-WM-221-091-N.jpg",NA,"img/neutralC/CFD-LM-253-075-N.jpg","1",NA,"1","0",NA,"0","0.601655900041806",NA,"0.651692600018578","1",NA,"1","1",NA,"1","1",NA,"1"
"250019","img/neutralC/CFD-LM-253-075-N.jpg","img/neutralC/CFD-WM-221-091-N.jpg","img/neutralC/CFD-AF-232-078-N.jpg","1","1","1","0","0","1","0.651692600018578","0.601655900041806","0.48276860002079","1","1","1","1","1","1","1","1","1"
"250019","img/neutralC/CFD-AF-232-078-N.jpg","img/neutralC/CFD-LM-253-075-N.jpg","img/neutralC/CFD-IM-700-009-N.jpg","1","1","1","1","0","1","0.48276860002079","0.651692600018578","0.43228530001943","1","1","1","1","1","1","1","1","1"
"250019","img/neutralC/CFD-IM-700-009-N.jpg","img/neutralC/CFD-AF-232-078-N.jpg","img/neutralC/CFD-BF-018-039-N.jpg","1","1","1","1","1","1","0.43228530001943","0.48276860002079","0.493503300036536","1","1","1","1","1","1","1","1","1"
"250019","img/neutralC/CFD-BF-018-039-N.jpg","img/neutralC/CFD-IM-700-009-N.jpg","img/neutralC/CFD-WM-237-052-N.jpg","1","1","1","1","1","1","0.493503300036536","0.43228530001943","0.615795600024285","1","1","1","1","1","1","1","1","1"
"250019","img/neutralC/CFD-WM-237-052-N.jpg","img/neutralC/CFD-BF-018-039-N.jpg","img/neutralC/CFD-MF-321-003-N.jpg","1","1","1","1","1","0","0.615795600024285","0.493503300036536","0.649144900031388","1","1","1","1","1","1","1","1","1"
"250019","img/neutralC/CFD-MF-321-003-N.jpg","img/neutralC/CFD-WM-237-052-N.jpg","img/neutralC/CFD-MM-321-021-N.jpg","1","1","1","0","1","0","0.649144900031388","0.615795600024285","0.555096900032368","1","1","1","1","1","1","1","1","1"
"250019","img/neutralC/CFD-MM-321-021-N.jpg","img/neutralC/CFD-MF-321-003-N.jpg","img/neutralC/CFD-BF-254-201-N.jpg","1","1","1","0","0","0","0.555096900032368","0.649144900031388","0.447966100036865","1","1","1","1","1","1","1","1","1"
"250019","img/neutralC/CFD-BF-254-201-N.jpg","img/neutralC/CFD-MM-321-021-N.jpg","img/neutralC/CFD-IM-719-221-N.jpg","1","1","1","0","0","0","0.447966100036865","0.555096900032368","0.482741100015119","1","1","1","1","1","1","1","1","1"
"250019","img/neutralC/CFD-IM-719-221-N.jpg","img/neutralC/CFD-BF-254-201-N.jpg","img/neutralC/CFD-WM-009-002-N.jpg","1","1","1","0","0","0","0.482741100015119","0.447966100036865","0.64415360003477","1","1","1","1","1","1","1","1","1"
"250019","img/neutralC/CFD-WM-009-002-N.jpg","img/neutralC/CFD-IM-719-221-N.jpg","img/neutralC/CFD-WF-023-003-N.jpg","1","1","1","0","0","1","0.64415360003477","0.482741100015119","0.407576100027654","1","1","1","1","1","1","1","1","1"
"250019","img/neutralC/CFD-WF-023-003-N.jpg","img/neutralC/CFD-WM-009-002-N.jpg","img/neutralC/CFD-WF-226-095-N.jpg","1","1","1","1","0","1","0.407576100027654","0.64415360003477","0.455426700034877","1","1","1","1","1","1","1","1","1"
"250019","img/neutralC/CFD-WF-226-095-N.jpg","img/neutralC/CFD-WF-023-003-N.jpg","img/neutralC/CFD-IF-629-234-N.jpg","1","1","1","1","1","0","0.455426700034877","0.407576100027654","0.56427950001671","1","1","1","1","1","1","1","1","1"
"250019","img/neutralC/CFD-IF-629-234-N.jpg","img/neutralC/CFD-WF-226-095-N.jpg","img/neutralC/CFD-WF-027-003-N.jpg","1","1","1","0","1","1","0.56427950001671","0.455426700034877","0.371991500025615","1","1","1","1","1","1","1","1","1"
"250019","img/neutralC/CFD-WF-027-003-N.jpg","img/neutralC/CFD-IF-629-234-N.jpg","img/neutralC/CFD-WM-201-063-N.jpg","1","1","1","1","0","1","0.371991500025615","0.56427950001671","0.452996600011829","1","1","1","1","1","1","1","1","1"
"250019","img/neutralC/CFD-WM-201-063-N.jpg","img/neutralC/CFD-WF-027-003-N.jpg","img/neutralC/CFD-IM-627-178-N.jpg","1","1","1","1","1","1","0.452996600011829","0.371991500025615","0.436503200035077","1","1","1","1","1","1","1","1","1"
"250019","img/neutralC/CFD-IM-627-178-N.jpg","img/neutralC/CFD-WM-201-063-N.jpg","img/neutralC/CFD-WM-255-219-N.jpg","1","1","1","1","1","0","0.436503200035077","0.452996600011829","0.459242600016296","1","1","1","1","1","1","1","1","1"
"250019","img/neutralC/CFD-WM-255-219-N.jpg","img/neutralC/CFD-IM-627-178-N.jpg","img/neutralC/CFD-WM-013-001-N.jpg","1","1","1","0","1","1","0.459242600016296","0.436503200035077","0.530239200044889","1","1","1","1","1","1","1","1","1"
"250019","img/neutralC/CFD-WM-013-001-N.jpg","img/neutralC/CFD-WM-255-219-N.jpg","img/neutralC/CFD-AF-221-147-N.jpg","1","1","1","1","0","0","0.530239200044889","0.459242600016296","0.443936800031224","1","1","1","1","1","1","1","1","1"
"250019","img/neutralC/CFD-AF-221-147-N.jpg","img/neutralC/CFD-WM-013-001-N.jpg","img/neutralC/CFD-LF-211-003-N.jpg","1","1","1","0","1","0","0.443936800031224","0.530239200044889","0.531404700042913","1","1","1","1","1","1","1","1","1"
"250019","img/neutralC/CFD-LF-211-003-N.jpg","img/neutralC/CFD-AF-221-147-N.jpg","img/neutralC/CFD-WF-245-084-N.jpg","1","1","0","0","0","1","0.531404700042913","0.443936800031224","0.830775800015545","1","1","1","1","1","1","1","1","1"
"250019","img/neutralC/CFD-WF-245-084-N.jpg","img/neutralC/CFD-LF-211-003-N.jpg","img/neutralC/CFD-BF-218-207-N.jpg","0","1","1","1","0","1","0.830775800015545","0.531404700042913","0.655227100010961","1","1","1","1","1","1","1","1","1"
"250019","img/neutralC/CFD-BF-218-207-N.jpg","img/neutralC/CFD-WF-245-084-N.jpg","img/neutralC/CFD-BM-023-029-N.jpg","1","0","1","1","1","1","0.655227100010961","0.830775800015545","0.552035000029719","1","1","1","1","1","1","1","1","1"
"250019","img/neutralC/CFD-BM-023-029-N.jpg","img/neutralC/CFD-BF-218-207-N.jpg","img/neutralC/CFD-BM-200-046-N.jpg","1","1","1","1","1","0","0.552035000029719","0.655227100010961","0.564886000007391","1","1","1","1","1","1","1","1","1"
"250019","img/neutralC/CFD-BM-200-046-N.jpg","img/neutralC/CFD-BM-023-029-N.jpg","img/neutralC/CFD-MF-318-022-N.jpg","1","1","1","0","1","1","0.564886000007391","0.552035000029719","0.430519900022773","1","1","1","1","1","1","1","1","1"
"250019","img/neutralC/CFD-MF-318-022-N.jpg","img/neutralC/CFD-BM-200-046-N.jpg","img/neutralC/CFD-LF-215-157-N.jpg","1","1","1","1","0","0","0.430519900022773","0.564886000007391","0.532339400029741","1","1","1","1","1","1","1","1","1"
"250019","img/neutralC/CFD-LF-215-157-N.jpg","img/neutralC/CFD-MF-318-022-N.jpg","img/neutralC/CFD-WF-018-017-N.jpg","1","1","1","0","1","1","0.532339400029741","0.430519900022773","0.452811000024667","1","1","1","1","1","1","1","1","1"
"250019","img/neutralC/CFD-WF-018-017-N.jpg","img/neutralC/CFD-LF-215-157-N.jpg","img/neutralC/CFD-AM-244-222-N.jpg","1","1","1","1","0","0","0.452811000024667","0.532339400029741","0.518265500024427","1","1","1","1","1","1","1","1","1"
"250019","img/neutralC/CFD-AM-244-222-N.jpg","img/neutralC/CFD-WF-018-017-N.jpg","img/neutralC/CFD-WF-238-023-N.jpg","1","1","1","0","1","0","0.518265500024427","0.452811000024667","0.561609399999725","1","1","1","1","1","1","1","1","1"
"250019","img/neutralC/CFD-WF-238-023-N.jpg","img/neutralC/CFD-AM-244-222-N.jpg","img/neutralC/CFD-BM-204-003-N.jpg","1","1","1","0","0","0","0.561609399999725","0.518265500024427","0.541880600008881","1","1","1","1","1","1","1","1","1"
"250019","img/neutralC/CFD-BM-204-003-N.jpg","img/neutralC/CFD-WF-238-023-N.jpg","img/neutralC/CFD-MF-342-022-N.jpg","1","1","1","0","0","1","0.541880600008881","0.561609399999725","0.568595400050981","1","1","1","1","1","1","1","1","1"
"250019","img/neutralC/CFD-MF-342-022-N.jpg","img/neutralC/CFD-BM-204-003-N.jpg",NA,"1","1",NA,"1","0",NA,"0.568595400050981","0.541880600008881",NA,"1","1",NA,"1","1",NA,"1","1",NA
"250019","img/neutralC/CFD-LF-222-147-N.jpg",NA,"img/neutralC/CFD-BM-043-071-N.jpg","1",NA,"1","0",NA,"0","0.554103000002215",NA,"0.550707600021269","1",NA,"1","1",NA,"1","1",NA,"1"
"250019","img/neutralC/CFD-BM-043-071-N.jpg","img/neutralC/CFD-LF-222-147-N.jpg","img/neutralC/CFD-LF-212-066-N.jpg","1","1","1","0","0","1","0.550707600021269","0.554103000002215","0.542875600018306","1","1","1","1","1","1","1","1","1"
"250019","img/neutralC/CFD-LF-212-066-N.jpg","img/neutralC/CFD-BM-043-071-N.jpg","img/neutralC/CFD-LF-238-154-N.jpg","1","1","1","1","0","1","0.542875600018306","0.550707600021269","0.448883400036721","1","1","1","1","1","1","1","1","1"
"250019","img/neutralC/CFD-LF-238-154-N.jpg","img/neutralC/CFD-LF-212-066-N.jpg","img/neutralC/CFD-IM-697-015-N.jpg","1","1","1","1","1","1","0.448883400036721","0.542875600018306","0.525373800017405","1","1","1","1","1","1","1","1","1"
"250019","img/neutralC/CFD-IM-697-015-N.jpg","img/neutralC/CFD-LF-238-154-N.jpg","img/neutralC/CFD-WF-009-001-N.jpg","1","1","1","1","1","1","0.525373800017405","0.448883400036721","0.550018700043438","1","1","1","1","1","1","1","1","1"
"250019","img/neutralC/CFD-WF-009-001-N.jpg","img/neutralC/CFD-IM-697-015-N.jpg","img/neutralC/CFD-BM-021-021-N.jpg","1","1","1","1","1","1","0.550018700043438","0.525373800017405","0.467549600027269","1","1","1","1","1","1","1","1","1"
"250019","img/neutralC/CFD-BM-021-021-N.jpg","img/neutralC/CFD-WF-009-001-N.jpg","img/neutralC/CFD-IM-615-167-N.jpg","1","1","1","1","1","0","0.467549600027269","0.550018700043438","0.498240100016119","1","1","1","1","1","1","1","1","1"
"250019","img/neutralC/CFD-IM-615-167-N.jpg","img/neutralC/CFD-BM-021-021-N.jpg","img/neutralC/CFD-BF-244-231-N.jpg","1","1","1","0","1","1","0.498240100016119","0.467549600027269","0.412187100038864","1","1","1","1","1","1","1","1","1"
"250019","img/neutralC/CFD-BF-244-231-N.jpg","img/neutralC/CFD-IM-615-167-N.jpg","img/neutralC/CFD-WM-025-002-N.jpg","1","1","1","1","0","0","0.412187100038864","0.498240100016119","0.606269000039902","1","1","1","1","1","1","1","1","1"
"250019","img/neutralC/CFD-WM-025-002-N.jpg","img/neutralC/CFD-BF-244-231-N.jpg","img/neutralC/CFD-AM-249-163-N.jpg","1","1","1","0","1","1","0.606269000039902","0.412187100038864","0.364372600015486","1","1","1","1","1","1","1","1","1"
"250019","img/neutralC/CFD-AM-249-163-N.jpg","img/neutralC/CFD-WM-025-002-N.jpg","img/neutralC/CFD-IF-676-017-N.jpg","1","1","1","1","0","1","0.364372600015486","0.606269000039902","0.371416200010572","1","1","1","1","1","1","1","1","1"
"250019","img/neutralC/CFD-IF-676-017-N.jpg","img/neutralC/CFD-AM-249-163-N.jpg","img/neutralC/CFD-BF-012-001-N.jpg","1","1","1","1","1","0","0.371416200010572","0.364372600015486","0.638108400045894","1","1","1","1","1","1","1","1","1"
"250019","img/neutralC/CFD-BF-012-001-N.jpg","img/neutralC/CFD-IF-676-017-N.jpg","img/neutralC/CFD-WF-241-210-N.jpg","1","1","1","0","1","0","0.638108400045894","0.371416200010572","0.635348400013754","1","1","1","1","1","1","1","1","1"
"250019","img/neutralC/CFD-WF-241-210-N.jpg","img/neutralC/CFD-BF-012-001-N.jpg","img/neutralC/CFD-WF-243-148-N.jpg","1","1","1","0","0","0","0.635348400013754","0.638108400045894","0.491619000036735","1","1","1","1","1","1","1","1","1"
"250019","img/neutralC/CFD-WF-243-148-N.jpg","img/neutralC/CFD-WF-241-210-N.jpg","img/neutralC/CFD-AM-205-153-N.jpg","1","1","1","0","0","1","0.491619000036735","0.635348400013754","0.447581000014907","1","1","1","1","1","1","1","1","1"
"250019","img/neutralC/CFD-AM-205-153-N.jpg","img/neutralC/CFD-WF-243-148-N.jpg","img/neutralC/CFD-BM-020-001-N.jpg","1","1","1","1","0","0","0.447581000014907","0.491619000036735","0.510057400038932","1","1","1","1","1","1","1","1","1"
"250019","img/neutralC/CFD-BM-020-001-N.jpg","img/neutralC/CFD-AM-205-153-N.jpg","img/neutralC/CFD-MF-328-020-N.jpg","1","1","1","0","1","0","0.510057400038932","0.447581000014907","0.486776400008239","1","1","1","1","1","1","1","1","1"
"250019","img/neutralC/CFD-MF-328-020-N.jpg","img/neutralC/CFD-BM-020-001-N.jpg","img/neutralC/CFD-WM-028-003-N.jpg","1","1","1","0","0","1","0.486776400008239","0.510057400038932","0.537072900042403","1","1","1","1","1","1","1","1","1"
"250019","img/neutralC/CFD-WM-028-003-N.jpg","img/neutralC/CFD-MF-328-020-N.jpg","img/neutralC/CFD-AF-237-223-N.jpg","1","1","1","1","0","0","0.537072900042403","0.486776400008239","0.550034400017466","1","1","1","1","1","1","1","1","1"
"250019","img/neutralC/CFD-AF-237-223-N.jpg","img/neutralC/CFD-WM-028-003-N.jpg","img/neutralC/CFD-BM-009-002-N.jpg","1","1","1","0","1","1","0.550034400017466","0.537072900042403","0.510882900009165","1","1","1","1","1","1","1","1","1"
"250019","img/neutralC/CFD-BM-009-002-N.jpg","img/neutralC/CFD-AF-237-223-N.jpg","img/neutralC/CFD-AM-219-101-N.jpg","1","1","1","1","0","0","0.510882900009165","0.550034400017466","0.337677800038364","1","1","1","1","1","1","1","1","1"
"250019","img/neutralC/CFD-AM-219-101-N.jpg","img/neutralC/CFD-BM-009-002-N.jpg","img/neutralC/CFD-BM-227-191-N.jpg","1","1","1","0","1","1","0.337677800038364","0.510882900009165","0.354303400032222","1","1","1","1","1","1","1","1","1"
"250019","img/neutralC/CFD-BM-227-191-N.jpg","img/neutralC/CFD-AM-219-101-N.jpg","img/neutralC/CFD-IM-606-008-N.jpg","1","1","1","1","0","0","0.354303400032222","0.337677800038364","0.367691800027387","1","1","1","1","1","1","1","1","1"
"250019","img/neutralC/CFD-IM-606-008-N.jpg","img/neutralC/CFD-BM-227-191-N.jpg","img/neutralC/CFD-BM-030-003-N.jpg","1","1","1","0","1","0","0.367691800027387","0.354303400032222","0.522029600018868","1","1","1","1","1","1","1","1","1"
"250019","img/neutralC/CFD-BM-030-003-N.jpg","img/neutralC/CFD-IM-606-008-N.jpg","img/neutralC/CFD-MM-306-010-N.jpg","1","1","1","0","0","0","0.522029600018868","0.367691800027387","0.56436840002425","1","1","1","1","1","1","1","1","1"
"250019","img/neutralC/CFD-MM-306-010-N.jpg","img/neutralC/CFD-BM-030-003-N.jpg","img/neutralC/CFD-WF-207-014-N.jpg","1","1","1","0","0","1","0.56436840002425","0.522029600018868","0.483602800028166","1","1","1","1","1","1","1","1","1"
"250019","img/neutralC/CFD-WF-207-014-N.jpg","img/neutralC/CFD-MM-306-010-N.jpg","img/neutralC/CFD-WM-023-001-N.jpg","1","1","1","1","0","0","0.483602800028166","0.56436840002425","0.522989000019152","1","1","1","1","1","1","1","1","1"
"250019","img/neutralC/CFD-WM-023-001-N.jpg","img/neutralC/CFD-WF-207-014-N.jpg","img/neutralC/CFD-WF-221-005-N.jpg","1","1","1","0","1","0","0.522989000019152","0.483602800028166","0.565147600049386","1","1","1","1","1","1","1","1","1"
"250019","img/neutralC/CFD-WF-221-005-N.jpg","img/neutralC/CFD-WM-023-001-N.jpg","img/neutralC/CFD-LM-240-013-N.jpg","1","1","1","0","0","1","0.565147600049386","0.522989000019152","0.380688600038411","1","1","1","1","1","1","1","1","1"
"250019","img/neutralC/CFD-LM-240-013-N.jpg","img/neutralC/CFD-WF-221-005-N.jpg","img/neutralC/CFD-AM-243-212-N.jpg","1","1","1","1","0","1","0.380688600038411","0.565147600049386","0.520494900032645","1","1","1","1","1","1","1","1","1"
"250019","img/neutralC/CFD-AM-243-212-N.jpg","img/neutralC/CFD-LM-240-013-N.jpg","img/neutralC/CFD-IM-689-263-N.jpg","1","1","1","1","1","1","0.520494900032645","0.380688600038411","0.459467600012431","1","1","1","1","1","1","1","1","1"
"250019","img/neutralC/CFD-IM-689-263-N.jpg","img/neutralC/CFD-AM-243-212-N.jpg",NA,"1","1",NA,"1","1",NA,"0.459467600012431","0.520494900032645",NA,"1","1",NA,"1","1",NA,"1","1",NA
"250019","img/neutralC/CFD-LF-236-221-N.jpg",NA,"img/neutralC/CFD-WM-040-022-N.jpg","1",NA,"1","1",NA,"0","0.446096800034866",NA,"0.481044600019231","1",NA,"1","1",NA,"1","1",NA,"1"
"250019","img/neutralC/CFD-WM-040-022-N.jpg","img/neutralC/CFD-LF-236-221-N.jpg","img/neutralC/CFD-LM-252-076-N.jpg","1","1","1","0","1","1","0.481044600019231","0.446096800034866","0.43236880004406","1","1","1","1","1","1","1","1","1"
"250019","img/neutralC/CFD-LM-252-076-N.jpg","img/neutralC/CFD-WM-040-022-N.jpg","img/neutralC/CFD-WF-026-002-N.jpg","1","1","1","1","0","1","0.43236880004406","0.481044600019231","0.434962800034555","1","1","1","1","1","1","1","1","1"
"250019","img/neutralC/CFD-WF-026-002-N.jpg","img/neutralC/CFD-LM-252-076-N.jpg","img/neutralC/CFD-WM-002-009-N.jpg","1","1","1","1","1","0","0.434962800034555","0.43236880004406","0.271019400010118","1","1","1","1","1","1","1","1","1"
"250019","img/neutralC/CFD-WM-002-009-N.jpg","img/neutralC/CFD-WF-026-002-N.jpg","img/neutralC/CFD-WF-002-004-N.jpg","1","1","1","0","1","0","0.271019400010118","0.434962800034555","0.341275900020264","1","1","1","1","1","1","1","1","1"
"250019","img/neutralC/CFD-WF-002-004-N.jpg","img/neutralC/CFD-WM-002-009-N.jpg","img/neutralC/CFD-BM-211-174-N.jpg","1","1","1","0","0","0","0.341275900020264","0.271019400010118","0.306470200011972","1","1","1","1","1","1","1","1","1"
"250019","img/neutralC/CFD-BM-211-174-N.jpg","img/neutralC/CFD-WF-002-004-N.jpg","img/neutralC/CFD-WM-257-161-N.jpg","1","1","1","0","0","1","0.306470200011972","0.341275900020264","0.426260100037325","1","1","1","1","1","1","1","1","1"
"250019","img/neutralC/CFD-WM-257-161-N.jpg","img/neutralC/CFD-BM-211-174-N.jpg","img/neutralC/CFD-BM-015-015-N.jpg","1","1","1","1","0","0","0.426260100037325","0.306470200011972","0.329612800036557","1","1","1","1","1","1","1","1","1"
"250019","img/neutralC/CFD-BM-015-015-N.jpg","img/neutralC/CFD-WM-257-161-N.jpg","img/neutralC/CFD-IM-639-263-N.jpg","1","1","0","0","1","1","0.329612800036557","0.426260100037325","0.388264300039737","1","1","1","1","1","1","1","1","1"
"250019","img/neutralC/CFD-IM-639-263-N.jpg","img/neutralC/CFD-BM-015-015-N.jpg","img/neutralC/CFD-BF-028-001-N.jpg","0","1","1","1","0","1","0.388264300039737","0.329612800036557","0.42633400001796","1","1","1","1","1","1","1","1","1"
"250019","img/neutralC/CFD-BF-028-001-N.jpg","img/neutralC/CFD-IM-639-263-N.jpg","img/neutralC/CFD-BM-247-240-N.jpg","1","0","1","1","1","0","0.42633400001796","0.388264300039737","0.464279200008605","1","1","1","1","1","1","1","1","1"
"250019","img/neutralC/CFD-BM-247-240-N.jpg","img/neutralC/CFD-BF-028-001-N.jpg","img/neutralC/CFD-WM-038-003-N.jpg","1","1","1","0","1","0","0.464279200008605","0.42633400001796","0.501077800028725","1","1","1","1","1","1","1","1","1"
"250019","img/neutralC/CFD-WM-038-003-N.jpg","img/neutralC/CFD-BM-247-240-N.jpg","img/neutralC/CFD-AM-215-120-N.jpg","1","1","1","0","0","1","0.501077800028725","0.464279200008605","0.295819500024663","1","1","1","1","1","1","1","1","1"
"250019","img/neutralC/CFD-AM-215-120-N.jpg","img/neutralC/CFD-WM-038-003-N.jpg","img/neutralC/CFD-BF-255-140-N.jpg","1","1","1","1","0","1","0.295819500024663","0.501077800028725","0.422593200026313","1","1","1","1","1","1","1","1","1"
"250019","img/neutralC/CFD-BF-255-140-N.jpg","img/neutralC/CFD-AM-215-120-N.jpg","img/neutralC/CFD-BF-003-003-N.jpg","1","1","1","1","1","0","0.422593200026313","0.295819500024663","0.522095700027421","1","1","1","1","1","1","1","1","1"
"250019","img/neutralC/CFD-BF-003-003-N.jpg","img/neutralC/CFD-BF-255-140-N.jpg","img/neutralC/CFD-IM-728-041-N.jpg","1","1","1","0","1","0","0.522095700027421","0.422593200026313","0.374520500015933","1","1","1","1","1","1","1","1","1"
"250019","img/neutralC/CFD-IM-728-041-N.jpg","img/neutralC/CFD-BF-003-003-N.jpg","img/neutralC/CFD-IF-718-001-N.jpg","1","1","1","0","0","1","0.374520500015933","0.522095700027421","0.428315500030294","1","1","1","1","1","1","1","1","1"
"250019","img/neutralC/CFD-IF-718-001-N.jpg","img/neutralC/CFD-IM-728-041-N.jpg","img/neutralC/CFD-BF-204-189-N.jpg","1","1","1","1","0","1","0.428315500030294","0.374520500015933","0.435317500028759","1","1","1","1","1","1","1","1","1"
"250019","img/neutralC/CFD-BF-204-189-N.jpg","img/neutralC/CFD-IF-718-001-N.jpg","img/neutralC/CFD-BF-023-010-N.jpg","1","1","1","1","1","1","0.435317500028759","0.428315500030294","0.320955600036541","1","1","1","1","1","1","1","1","1"
"250019","img/neutralC/CFD-BF-023-010-N.jpg","img/neutralC/CFD-BF-204-189-N.jpg","img/neutralC/CFD-BM-029-024-N.jpg","1","1","1","1","1","1","0.320955600036541","0.435317500028759","0.402979600039544","1","1","1","1","1","1","1","1","1"
"250019","img/neutralC/CFD-BM-029-024-N.jpg","img/neutralC/CFD-BF-023-010-N.jpg","img/neutralC/CFD-IF-672-305-N.jpg","1","1","1","1","1","0","0.402979600039544","0.320955600036541","0.407000400009565","1","1","1","1","1","1","1","1","1"
"250019","img/neutralC/CFD-IF-672-305-N.jpg","img/neutralC/CFD-BM-029-024-N.jpg","img/neutralC/CFD-WM-225-127-N.jpg","1","1","1","0","1","0","0.407000400009565","0.402979600039544","0.49362750002183","1","1","1","1","1","1","1","1","1"
"250019","img/neutralC/CFD-WM-225-127-N.jpg","img/neutralC/CFD-IF-672-305-N.jpg","img/neutralC/CFD-BF-201-080-N.jpg","1","1","0","0","0","1","0.49362750002183","0.407000400009565","0.445378300035372","1","1","1","1","1","1","1","1","1"
"250019","img/neutralC/CFD-BF-201-080-N.jpg","img/neutralC/CFD-WM-225-127-N.jpg","img/neutralC/CFD-BF-208-266-N.jpg","0","1","1","1","0","0","0.445378300035372","0.49362750002183","1.14650020000408","1","1","1","1","1","1","1","1","1"
"250019","img/neutralC/CFD-BF-208-266-N.jpg","img/neutralC/CFD-BF-201-080-N.jpg","img/neutralC/CFD-MM-319-052-N.jpg","1","0","1","0","1","1","1.14650020000408","0.445378300035372","0.557186200021533","1","1","1","1","1","1","1","1","1"
"250019","img/neutralC/CFD-MM-319-052-N.jpg","img/neutralC/CFD-BF-208-266-N.jpg","img/neutralC/CFD-AM-217-085-N.jpg","1","1","1","1","0","0","0.557186200021533","1.14650020000408","0.54623820001143","1","1","1","1","1","1","1","1","1"
"250019","img/neutralC/CFD-AM-217-085-N.jpg","img/neutralC/CFD-MM-319-052-N.jpg","img/neutralC/CFD-IM-674-281-N.jpg","1","1","1","0","1","1","0.54623820001143","0.557186200021533","0.542339000036009","1","1","1","1","1","1","1","1","1"
"250019","img/neutralC/CFD-IM-674-281-N.jpg","img/neutralC/CFD-AM-217-085-N.jpg","img/neutralC/CFD-AM-235-241-N.jpg","1","1","1","1","0","0","0.542339000036009","0.54623820001143","0.515796600026079","1","1","1","1","1","1","1","1","1"
"250019","img/neutralC/CFD-AM-235-241-N.jpg","img/neutralC/CFD-IM-674-281-N.jpg","img/neutralC/CFD-BM-027-001-N.jpg","1","1","1","0","1","0","0.515796600026079","0.542339000036009","0.412900800030911","1","1","1","1","1","1","1","1","1"
"250019","img/neutralC/CFD-BM-027-001-N.jpg","img/neutralC/CFD-AM-235-241-N.jpg","img/neutralC/CFD-WF-022-017-N.jpg","1","1","1","0","0","0","0.412900800030911","0.515796600026079","0.424031000002287","1","1","1","1","1","1","1","1","1"
"250019","img/neutralC/CFD-WF-022-017-N.jpg","img/neutralC/CFD-BM-027-001-N.jpg","img/neutralC/CFD-LF-216-121-N.jpg","1","1","1","0","0","1","0.424031000002287","0.412900800030911","0.421950700023444","1","1","1","1","1","1","1","1","1"
"250019","img/neutralC/CFD-LF-216-121-N.jpg","img/neutralC/CFD-WF-022-017-N.jpg",NA,"1","1",NA,"1","0",NA,"0.421950700023444","0.424031000002287",NA,"1","1",NA,"1","1",NA,"1","1",NA
"250019","img/neutralC/CFD-LM-201-057-N.jpg",NA,"img/neutralC/CFD-MM-317-061-N.jpg","1",NA,"1","1",NA,"1","0.540050700015854",NA,"1.0791475000151","1",NA,"1","1",NA,"1","1",NA,"1"
"250019","img/neutralC/CFD-MM-317-061-N.jpg","img/neutralC/CFD-LM-201-057-N.jpg","img/neutralC/CFD-IM-646-023-N.jpg","1","1","1","1","1","1","1.0791475000151","0.540050700015854","0.460842700034846","1","1","1","1","1","1","1","1","1"
"250019","img/neutralC/CFD-IM-646-023-N.jpg","img/neutralC/CFD-MM-317-061-N.jpg","img/neutralC/CFD-BM-248-128-N.jpg","1","1","1","1","1","0","0.460842700034846","1.0791475000151","0.484260800032644","1","1","1","1","1","1","1","1","1"
"250019","img/neutralC/CFD-BM-248-128-N.jpg","img/neutralC/CFD-IM-646-023-N.jpg","img/neutralC/CFD-BF-025-002-N.jpg","1","1","1","0","1","0","0.484260800032644","0.460842700034846","0.512340700021014","1","1","1","1","1","1","1","1","1"
"250019","img/neutralC/CFD-BF-025-002-N.jpg","img/neutralC/CFD-BM-248-128-N.jpg","img/neutralC/CFD-WM-026-001-N.jpg","1","1","1","0","0","1","0.512340700021014","0.484260800032644","0.452928500017151","1","1","1","1","1","1","1","1","1"
"250019","img/neutralC/CFD-WM-026-001-N.jpg","img/neutralC/CFD-BF-025-002-N.jpg","img/neutralC/CFD-LM-214-165-N.jpg","1","1","1","1","0","1","0.452928500017151","0.512340700021014","0.497459600039292","1","1","1","1","1","1","1","1","1"
"250019","img/neutralC/CFD-LM-214-165-N.jpg","img/neutralC/CFD-WM-026-001-N.jpg","img/neutralC/CFD-WF-240-083-N.jpg","1","1","1","1","1","0","0.497459600039292","0.452928500017151","0.550038000015775","1","1","1","1","1","1","1","1","1"
"250019","img/neutralC/CFD-WF-240-083-N.jpg","img/neutralC/CFD-LM-214-165-N.jpg","img/neutralC/CFD-BF-041-001-N.jpg","1","1","1","0","1","1","0.550038000015775","0.497459600039292","0.393606000026921","1","1","1","1","1","1","1","1","1"
"250019","img/neutralC/CFD-BF-041-001-N.jpg","img/neutralC/CFD-WF-240-083-N.jpg","img/neutralC/CFD-WM-006-002-N.jpg","1","1","1","1","0","0","0.393606000026921","0.550038000015775","0.496181900030933","1","1","1","1","1","1","1","1","1"
"250019","img/neutralC/CFD-WM-006-002-N.jpg","img/neutralC/CFD-BF-041-001-N.jpg","img/neutralC/CFD-WM-019-003-N.jpg","1","1","1","0","1","1","0.496181900030933","0.393606000026921","0.463935100007802","1","1","1","1","1","1","1","1","1"
"250019","img/neutralC/CFD-WM-019-003-N.jpg","img/neutralC/CFD-WM-006-002-N.jpg","img/neutralC/CFD-AM-247-165-N.jpg","1","1","1","1","0","1","0.463935100007802","0.496181900030933","0.427821400022367","1","1","1","1","1","1","1","1","1"
"250019","img/neutralC/CFD-AM-247-165-N.jpg","img/neutralC/CFD-WM-019-003-N.jpg","img/neutralC/CFD-WM-249-239-N.jpg","1","1","1","1","1","1","0.427821400022367","0.463935100007802","0.402041900029872","1","1","1","1","1","1","1","1","1"
"250019","img/neutralC/CFD-WM-249-239-N.jpg","img/neutralC/CFD-AM-247-165-N.jpg","img/neutralC/CFD-BM-205-001-N.jpg","1","1","0","1","1","0","0.402041900029872","0.427821400022367","0.49403360002907","1","1","1","1","1","1","1","1","1"
"250019","img/neutralC/CFD-BM-205-001-N.jpg","img/neutralC/CFD-WM-249-239-N.jpg","img/neutralC/CFD-LM-216-082-N.jpg","0","1","1","0","1","0","0.49403360002907","0.402041900029872","0.587602900021011","1","1","1","1","1","1","1","1","1"
"250019","img/neutralC/CFD-LM-216-082-N.jpg","img/neutralC/CFD-BM-205-001-N.jpg","img/neutralC/CFD-WM-212-097-N.jpg","1","0","1","0","0","0","0.587602900021011","0.49403360002907","0.546251699997811","1","1","1","1","1","1","1","1","1"
"250019","img/neutralC/CFD-WM-212-097-N.jpg","img/neutralC/CFD-LM-216-082-N.jpg","img/neutralC/CFD-BF-202-109-N.jpg","1","1","1","0","0","1","0.546251699997811","0.587602900021011","0.512087800045265","1","1","1","1","1","1","1","1","1"
"250019","img/neutralC/CFD-BF-202-109-N.jpg","img/neutralC/CFD-WM-212-097-N.jpg","img/neutralC/CFD-WM-215-041-N.jpg","1","1","1","1","0","0","0.512087800045265","0.546251699997811","0.460796200030018","1","1","1","1","1","1","1","1","1"
"250019","img/neutralC/CFD-WM-215-041-N.jpg","img/neutralC/CFD-BF-202-109-N.jpg","img/neutralC/CFD-BF-228-212-N.jpg","1","1","1","0","1","0","0.460796200030018","0.512087800045265","0.600018800003454","1","1","1","1","1","1","1","1","1"
"250019","img/neutralC/CFD-BF-228-212-N.jpg","img/neutralC/CFD-WM-215-041-N.jpg","img/neutralC/CFD-WM-012-001-N.jpg","1","1","1","0","0","1","0.600018800003454","0.460796200030018","0.491212800028734","1","1","1","1","1","1","1","1","1"
"250019","img/neutralC/CFD-WM-012-001-N.jpg","img/neutralC/CFD-BF-228-212-N.jpg","img/neutralC/CFD-IM-648-337-N.jpg","1","1","1","1","0","0","0.491212800028734","0.600018800003454","0.51958600000944","1","1","1","1","1","1","1","1","1"
"250019","img/neutralC/CFD-IM-648-337-N.jpg","img/neutralC/CFD-WM-012-001-N.jpg","img/neutralC/CFD-MF-309-002-N.jpg","1","1","1","0","1","0","0.51958600000944","0.491212800028734","0.399152600031812","1","1","1","1","1","1","1","1","1"
"250019","img/neutralC/CFD-MF-309-002-N.jpg","img/neutralC/CFD-IM-648-337-N.jpg","img/neutralC/CFD-WF-005-010-N.jpg","1","1","1","0","0","0","0.399152600031812","0.51958600000944","0.48727520002285","1","1","1","1","1","1","1","1","1"
"250019","img/neutralC/CFD-WF-005-010-N.jpg","img/neutralC/CFD-MF-309-002-N.jpg","img/neutralC/CFD-BF-212-315-N.jpg","1","1","1","0","0","1","0.48727520002285","0.399152600031812","0.589219700021204","1","1","1","1","1","1","1","1","1"
"250019","img/neutralC/CFD-BF-212-315-N.jpg","img/neutralC/CFD-WF-005-010-N.jpg","img/neutralC/CFD-AF-240-206-N.jpg","1","1","1","1","0","0","0.589219700021204","0.48727520002285","0.442307900026208","1","1","1","1","1","1","1","1","1"
"250019","img/neutralC/CFD-AF-240-206-N.jpg","img/neutralC/CFD-BF-212-315-N.jpg","img/neutralC/CFD-IF-642-295-N.jpg","1","1","1","0","1","1","0.442307900026208","0.589219700021204","0.512870500038844","1","1","1","1","1","1","1","1","1"
"250019","img/neutralC/CFD-IF-642-295-N.jpg","img/neutralC/CFD-AF-240-206-N.jpg","img/neutralC/CFD-WF-017-003-N.jpg","1","1","1","1","0","1","0.512870500038844","0.442307900026208","0.567435600009048","1","1","1","1","1","1","1","1","1"
"250019","img/neutralC/CFD-WF-017-003-N.jpg","img/neutralC/CFD-IF-642-295-N.jpg","img/neutralC/CFD-MF-335-002-N.jpg","1","1","1","1","1","0","0.567435600009048","0.512870500038844","0.52277840001625","1","1","1","1","1","1","1","1","1"
"250019","img/neutralC/CFD-MF-335-002-N.jpg","img/neutralC/CFD-WF-017-003-N.jpg","img/neutralC/CFD-WF-228-196-N.jpg","1","1","1","0","1","0","0.52277840001625","0.567435600009048","0.513959600008093","1","1","1","1","1","1","1","1","1"
"250019","img/neutralC/CFD-WF-228-196-N.jpg","img/neutralC/CFD-MF-335-002-N.jpg","img/neutralC/CFD-BM-251-013-N.jpg","1","1","1","0","0","1","0.513959600008093","0.52277840001625","0.639412900025491","1","1","1","1","1","1","1","1","1"
"250019","img/neutralC/CFD-BM-251-013-N.jpg","img/neutralC/CFD-WF-228-196-N.jpg","img/neutralC/CFD-LM-244-068-N.jpg","1","1","1","1","0","1","0.639412900025491","0.513959600008093","0.434341200016206","1","1","1","1","1","1","1","1","1"
"250019","img/neutralC/CFD-LM-244-068-N.jpg","img/neutralC/CFD-BM-251-013-N.jpg","img/neutralC/CFD-LM-243-075-N.jpg","1","1","1","1","1","0","0.434341200016206","0.639412900025491","0.536133600020548","1","1","1","1","1","1","1","1","1"
"250019","img/neutralC/CFD-LM-243-075-N.jpg","img/neutralC/CFD-LM-244-068-N.jpg",NA,"1","1",NA,"0","1",NA,"0.536133600020548","0.434341200016206",NA,"1","1",NA,"1","1",NA,"1","1",NA
"250019","img/neutralC/CFD-IM-703-182-N.jpg",NA,"img/neutralC/CFD-IF-623-129-N.jpg","1",NA,"1","1",NA,"1","0.644817400025204",NA,"0.407084700040286","1",NA,"1","1",NA,"1","1",NA,"1"
"250019","img/neutralC/CFD-IF-623-129-N.jpg","img/neutralC/CFD-IM-703-182-N.jpg","img/neutralC/CFD-AM-242-176-N.jpg","1","1","1","1","1","1","0.407084700040286","0.644817400025204","0.450709500029916","1","1","1","1","1","1","1","1","1"
"250019","img/neutralC/CFD-AM-242-176-N.jpg","img/neutralC/CFD-IF-623-129-N.jpg","img/neutralC/CFD-MF-359-019-N.jpg","1","1","1","1","1","0","0.450709500029916","0.407084700040286","0.509409100021003","1","1","1","1","1","1","1","1","1"
"250019","img/neutralC/CFD-MF-359-019-N.jpg","img/neutralC/CFD-AM-242-176-N.jpg","img/neutralC/CFD-AM-211-052-N.jpg","1","1","1","0","1","1","0.509409100021003","0.450709500029916","0.429537700023502","1","1","1","1","1","1","1","1","1"
"250019","img/neutralC/CFD-AM-211-052-N.jpg","img/neutralC/CFD-MF-359-019-N.jpg","img/neutralC/CFD-MF-352-054-N.jpg","1","1","1","1","0","0","0.429537700023502","0.509409100021003","0.502263600035803","1","1","1","1","1","1","1","1","1"
"250019","img/neutralC/CFD-MF-352-054-N.jpg","img/neutralC/CFD-AM-211-052-N.jpg","img/neutralC/CFD-IM-616-214-N.jpg","1","1","1","0","1","0","0.502263600035803","0.429537700023502","0.533053799998015","1","1","1","1","1","1","1","1","1"
"250019","img/neutralC/CFD-IM-616-214-N.jpg","img/neutralC/CFD-MF-352-054-N.jpg","img/neutralC/CFD-BF-038-037-N.jpg","1","1","1","0","0","1","0.533053799998015","0.502263600035803","0.505439400003524","1","1","1","1","1","1","1","1","1"
"250019","img/neutralC/CFD-BF-038-037-N.jpg","img/neutralC/CFD-IM-616-214-N.jpg","img/neutralC/CFD-WF-036-023-N.jpg","1","1","1","1","0","0","0.505439400003524","0.533053799998015","0.692202200036263","1","1","1","1","1","1","1","1","1"
"250019","img/neutralC/CFD-WF-036-023-N.jpg","img/neutralC/CFD-BF-038-037-N.jpg","img/neutralC/CFD-IM-671-601-N.jpg","1","1","1","0","1","0","0.692202200036263","0.505439400003524","0.636824000015622","1","1","1","1","1","1","1","1","1"
"250019","img/neutralC/CFD-IM-671-601-N.jpg","img/neutralC/CFD-WF-036-023-N.jpg","img/neutralC/CFD-AM-251-124-N.jpg","1","1","1","0","0","0","0.636824000015622","0.692202200036263","0.504096700024093","1","1","1","1","1","1","1","1","1"
"250019","img/neutralC/CFD-AM-251-124-N.jpg","img/neutralC/CFD-IM-671-601-N.jpg","img/neutralC/CFD-BM-225-154-N.jpg","1","1","1","0","0","1","0.504096700024093","0.636824000015622","0.667721700039692","1","1","1","1","1","1","1","1","1"
"250019","img/neutralC/CFD-BM-225-154-N.jpg","img/neutralC/CFD-AM-251-124-N.jpg","img/neutralC/CFD-LF-218-072-N.jpg","1","1","1","1","0","0","0.667721700039692","0.504096700024093","0.625052200019127","1","1","1","1","1","1","1","1","1"
"250019","img/neutralC/CFD-LF-218-072-N.jpg","img/neutralC/CFD-BM-225-154-N.jpg","img/neutralC/CFD-WM-033-025-N.jpg","1","1","1","0","1","1","0.625052200019127","0.667721700039692","0.502378200006206","1","1","1","1","1","1","1","1","1"
"250019","img/neutralC/CFD-WM-033-025-N.jpg","img/neutralC/CFD-LF-218-072-N.jpg","img/neutralC/CFD-WM-219-008-N.jpg","1","1","1","1","0","0","0.502378200006206","0.625052200019127","0.768464100023266","1","1","1","1","1","1","1","1","1"
"250019","img/neutralC/CFD-WM-219-008-N.jpg","img/neutralC/CFD-WM-033-025-N.jpg","img/neutralC/CFD-IM-743-006-N.jpg","1","1","1","0","1","1","0.768464100023266","0.502378200006206","0.481992900022306","1","1","1","1","1","1","1","1","1"
"250019","img/neutralC/CFD-IM-743-006-N.jpg","img/neutralC/CFD-WM-219-008-N.jpg","img/neutralC/CFD-BM-253-004-N.jpg","1","1","1","1","0","1","0.481992900022306","0.768464100023266","0.512562700023409","1","1","1","1","1","1","1","1","1"
"250019","img/neutralC/CFD-BM-253-004-N.jpg","img/neutralC/CFD-IM-743-006-N.jpg","img/neutralC/CFD-WM-020-001-N.jpg","1","1","1","1","1","1","0.512562700023409","0.481992900022306","0.519549700024072","1","1","1","1","1","1","1","1","1"
"250019","img/neutralC/CFD-WM-020-001-N.jpg","img/neutralC/CFD-BM-253-004-N.jpg","img/neutralC/CFD-WF-001-003-N.jpg","1","1","1","1","1","1","0.519549700024072","0.512562700023409","0.561996900039958","1","1","1","1","1","1","1","1","1"
"250019","img/neutralC/CFD-WF-001-003-N.jpg","img/neutralC/CFD-WM-020-001-N.jpg","img/neutralC/CFD-LF-220-120-N.jpg","1","1","1","1","1","1","0.561996900039958","0.519549700024072","0.457099500024924","1","1","1","1","1","1","1","1","1"
"250019","img/neutralC/CFD-LF-220-120-N.jpg","img/neutralC/CFD-WF-001-003-N.jpg","img/neutralC/CFD-LM-228-188-N.jpg","1","1","1","1","1","1","0.457099500024924","0.561996900039958","0.446494300005725","1","1","1","1","1","1","1","1","1"
"250019","img/neutralC/CFD-LM-228-188-N.jpg","img/neutralC/CFD-LF-220-120-N.jpg","img/neutralC/CFD-BF-226-119-N.jpg","1","1","1","1","1","1","0.446494300005725","0.457099500024924","0.530241100030253","1","1","1","1","1","1","1","1","1"
"250019","img/neutralC/CFD-BF-226-119-N.jpg","img/neutralC/CFD-LM-228-188-N.jpg","img/neutralC/CFD-BF-229-179-N.jpg","1","1","1","1","1","0","0.530241100030253","0.446494300005725","0.398314100020798","1","1","1","1","1","1","1","1","1"
"250019","img/neutralC/CFD-BF-229-179-N.jpg","img/neutralC/CFD-BF-226-119-N.jpg","img/neutralC/CFD-BF-232-187-N.jpg","1","1","1","0","1","1","0.398314100020798","0.530241100030253","0.492601900041336","1","1","1","1","1","1","1","1","1"
"250019","img/neutralC/CFD-BF-232-187-N.jpg","img/neutralC/CFD-BF-229-179-N.jpg","img/neutralC/CFD-WF-200-099-N.jpg","1","1","1","1","0","0","0.492601900041336","0.398314100020798","0.518169000046328","1","1","1","1","1","1","1","1","1"
"250019","img/neutralC/CFD-WF-200-099-N.jpg","img/neutralC/CFD-BF-232-187-N.jpg","img/neutralC/CFD-WM-004-010-N.jpg","1","1","1","0","1","0","0.518169000046328","0.492601900041336","0.509332300018286","1","1","1","1","1","1","1","1","1"
"250019","img/neutralC/CFD-WM-004-010-N.jpg","img/neutralC/CFD-WF-200-099-N.jpg","img/neutralC/CFD-WM-235-147-N.jpg","1","1","1","0","0","0","0.509332300018286","0.518169000046328","0.44863090000581","1","1","1","1","1","1","1","1","1"
"250019","img/neutralC/CFD-WM-235-147-N.jpg","img/neutralC/CFD-WM-004-010-N.jpg","img/neutralC/CFD-IF-650-315-N.jpg","1","1","1","0","0","0","0.44863090000581","0.509332300018286","0.598310100001981","1","1","1","1","1","1","1","1","1"
"250019","img/neutralC/CFD-IF-650-315-N.jpg","img/neutralC/CFD-WM-235-147-N.jpg","img/neutralC/CFD-MF-333-012-N.jpg","1","1","1","0","0","0","0.598310100001981","0.44863090000581","0.44744499999797","1","1","1","1","1","1","1","1","1"
"250019","img/neutralC/CFD-MF-333-012-N.jpg","img/neutralC/CFD-IF-650-315-N.jpg","img/neutralC/CFD-WF-214-122-N.jpg","1","1","1","0","0","1","0.44744499999797","0.598310100001981","0.704699699999765","1","1","1","1","1","1","1","1","1"
"250019","img/neutralC/CFD-WF-214-122-N.jpg","img/neutralC/CFD-MF-333-012-N.jpg","img/neutralC/CFD-LM-237-264-N.jpg","1","1","1","1","0","0","0.704699699999765","0.44744499999797","0.682310400035931","1","1","1","1","1","1","1","1","1"
"250019","img/neutralC/CFD-LM-237-264-N.jpg","img/neutralC/CFD-WF-214-122-N.jpg","img/neutralC/CFD-IM-645-001-N.jpg","1","1","1","0","1","0","0.682310400035931","0.704699699999765","0.655073100031586","1","1","1","1","1","1","1","1","1"
"250019","img/neutralC/CFD-IM-645-001-N.jpg","img/neutralC/CFD-LM-237-264-N.jpg",NA,"1","1",NA,"0","0",NA,"0.655073100031586","0.682310400035931",NA,"1","1",NA,"1","1",NA,"1","1",NA
