"participant_id","current_trial_face","pre_trial_face","post_trial_face","current_trial_accuracy","pre_trial_accuracy","post_trial_accuracy","current_trial_congruency","pre_trial_congruency","post_trial_congruency","current_trial_rt","pre_trial_rt","post_trial_rt","current_trial_responded","pre_trial_responded","post_trial_responded","current_trial_legitResponse","pre_trial_legitResponse","post_trial_legitResponse","current_trial_resp_nums","pre_trial_resp_nums","post_trial_resp_nums"
"250051","img/neutralC/CFD-IF-629-234-N.jpg",NA,"img/neutralC/CFD-IM-719-221-N.jpg","1",NA,"1","0",NA,"0","0.765383999998448",NA,"0.745432800002163","1",NA,"1","1",NA,"1","1",NA,"1"
"250051","img/neutralC/CFD-IM-719-221-N.jpg","img/neutralC/CFD-IF-629-234-N.jpg","img/neutralC/CFD-LM-253-075-N.jpg","1","1","1","0","0","0","0.745432800002163","0.765383999998448","0.615640699994401","1","1","1","1","1","1","1","1","1"
"250051","img/neutralC/CFD-LM-253-075-N.jpg","img/neutralC/CFD-IM-719-221-N.jpg","img/neutralC/CFD-MF-342-022-N.jpg","1","1","1","0","0","1","0.615640699994401","0.745432800002163","0.529180999990785","1","1","1","1","1","1","1","1","1"
"250051","img/neutralC/CFD-MF-342-022-N.jpg","img/neutralC/CFD-LM-253-075-N.jpg","img/neutralC/CFD-LF-215-157-N.jpg","1","1","1","1","0","0","0.529180999990785","0.615640699994401","0.590036399997189","1","1","1","1","1","1","1","1","1"
"250051","img/neutralC/CFD-LF-215-157-N.jpg","img/neutralC/CFD-MF-342-022-N.jpg","img/neutralC/CFD-AM-244-222-N.jpg","1","1","1","0","1","0","0.590036399997189","0.529180999990785","0.735819299996365","1","1","1","1","1","1","1","1","1"
"250051","img/neutralC/CFD-AM-244-222-N.jpg","img/neutralC/CFD-LF-215-157-N.jpg","img/neutralC/CFD-MF-318-022-N.jpg","1","1","1","0","0","1","0.735819299996365","0.590036399997189","0.615106700002798","1","1","1","1","1","1","1","1","1"
"250051","img/neutralC/CFD-MF-318-022-N.jpg","img/neutralC/CFD-AM-244-222-N.jpg","img/neutralC/CFD-WM-009-002-N.jpg","1","1","1","1","0","0","0.615106700002798","0.735819299996365","0.560010899993358","1","1","1","1","1","1","1","1","1"
"250051","img/neutralC/CFD-WM-009-002-N.jpg","img/neutralC/CFD-MF-318-022-N.jpg","img/neutralC/CFD-WM-255-219-N.jpg","1","1","1","0","1","0","0.560010899993358","0.615106700002798","0.591891699994449","1","1","1","1","1","1","1","1","1"
"250051","img/neutralC/CFD-WM-255-219-N.jpg","img/neutralC/CFD-WM-009-002-N.jpg","img/neutralC/CFD-BF-254-201-N.jpg","1","1","1","0","0","0","0.591891699994449","0.560010899993358","0.764922299989848","1","1","1","1","1","1","1","1","1"
"250051","img/neutralC/CFD-BF-254-201-N.jpg","img/neutralC/CFD-WM-255-219-N.jpg","img/neutralC/CFD-WM-201-063-N.jpg","1","1","1","0","0","1","0.764922299989848","0.591891699994449","0.637149399990449","1","1","1","1","1","1","1","1","1"
"250051","img/neutralC/CFD-WM-201-063-N.jpg","img/neutralC/CFD-BF-254-201-N.jpg","img/neutralC/CFD-MF-321-003-N.jpg","1","1","1","1","0","0","0.637149399990449","0.764922299989848","0.517050299997209","1","1","1","1","1","1","1","1","1"
"250051","img/neutralC/CFD-MF-321-003-N.jpg","img/neutralC/CFD-WM-201-063-N.jpg","img/neutralC/CFD-IM-700-009-N.jpg","1","1","1","0","1","1","0.517050299997209","0.637149399990449","0.629835599989747","1","1","1","1","1","1","1","1","1"
"250051","img/neutralC/CFD-IM-700-009-N.jpg","img/neutralC/CFD-MF-321-003-N.jpg","img/neutralC/CFD-AF-221-147-N.jpg","1","1","1","1","0","0","0.629835599989747","0.517050299997209","0.633523099997547","1","1","1","1","1","1","1","1","1"
"250051","img/neutralC/CFD-AF-221-147-N.jpg","img/neutralC/CFD-IM-700-009-N.jpg","img/neutralC/CFD-WF-018-017-N.jpg","1","1","1","0","1","1","0.633523099997547","0.629835599989747","0.620183799997903","1","1","1","1","1","1","1","1","1"
"250051","img/neutralC/CFD-WF-018-017-N.jpg","img/neutralC/CFD-AF-221-147-N.jpg","img/neutralC/CFD-BF-018-039-N.jpg","1","1","1","1","0","1","0.620183799997903","0.633523099997547","0.650990800000727","1","1","1","1","1","1","1","1","1"
"250051","img/neutralC/CFD-BF-018-039-N.jpg","img/neutralC/CFD-WF-018-017-N.jpg","img/neutralC/CFD-BF-218-207-N.jpg","1","1","1","1","1","1","0.650990800000727","0.620183799997903","0.765616299991962","1","1","1","1","1","1","1","1","1"
"250051","img/neutralC/CFD-BF-218-207-N.jpg","img/neutralC/CFD-BF-018-039-N.jpg","img/neutralC/CFD-BM-023-029-N.jpg","1","1","1","1","1","1","0.765616299991962","0.650990800000727","0.539041199997882","1","1","1","1","1","1","1","1","1"
"250051","img/neutralC/CFD-BM-023-029-N.jpg","img/neutralC/CFD-BF-218-207-N.jpg","img/neutralC/CFD-WM-013-001-N.jpg","1","1","1","1","1","1","0.539041199997882","0.765616299991962","0.521599800005788","1","1","1","1","1","1","1","1","1"
"250051","img/neutralC/CFD-WM-013-001-N.jpg","img/neutralC/CFD-BM-023-029-N.jpg","img/neutralC/CFD-WF-226-095-N.jpg","1","1","1","1","1","1","0.521599800005788","0.539041199997882","0.582736399999703","1","1","1","1","1","1","1","1","1"
"250051","img/neutralC/CFD-WF-226-095-N.jpg","img/neutralC/CFD-WM-013-001-N.jpg","img/neutralC/CFD-WF-245-084-N.jpg","1","1","1","1","1","1","0.582736399999703","0.521599800005788","0.526256899989676","1","1","1","1","1","1","1","1","1"
"250051","img/neutralC/CFD-WF-245-084-N.jpg","img/neutralC/CFD-WF-226-095-N.jpg","img/neutralC/CFD-MM-321-021-N.jpg","1","1","1","1","1","0","0.526256899989676","0.582736399999703","0.589746999990894","1","1","1","1","1","1","1","1","1"
"250051","img/neutralC/CFD-MM-321-021-N.jpg","img/neutralC/CFD-WF-245-084-N.jpg","img/neutralC/CFD-WF-238-023-N.jpg","1","1","1","0","1","0","0.589746999990894","0.526256899989676","0.58351149999362","1","1","1","1","1","1","1","1","1"
"250051","img/neutralC/CFD-WF-238-023-N.jpg","img/neutralC/CFD-MM-321-021-N.jpg","img/neutralC/CFD-WF-027-003-N.jpg","1","1","1","0","0","1","0.58351149999362","0.589746999990894","0.543722999995225","1","1","1","1","1","1","1","1","1"
"250051","img/neutralC/CFD-WF-027-003-N.jpg","img/neutralC/CFD-WF-238-023-N.jpg","img/neutralC/CFD-BM-204-003-N.jpg","1","1","1","1","0","0","0.543722999995225","0.58351149999362","0.544452100002673","1","1","1","1","1","1","1","1","1"
"250051","img/neutralC/CFD-BM-204-003-N.jpg","img/neutralC/CFD-WF-027-003-N.jpg","img/neutralC/CFD-WM-237-052-N.jpg","1","1","1","0","1","1","0.544452100002673","0.543722999995225","0.530998000002","1","1","1","1","1","1","1","1","1"
"250051","img/neutralC/CFD-WM-237-052-N.jpg","img/neutralC/CFD-BM-204-003-N.jpg","img/neutralC/CFD-BM-200-046-N.jpg","1","1","1","1","0","0","0.530998000002","0.544452100002673","0.603425799999968","1","1","1","1","1","1","1","1","1"
"250051","img/neutralC/CFD-BM-200-046-N.jpg","img/neutralC/CFD-WM-237-052-N.jpg","img/neutralC/CFD-IM-627-178-N.jpg","1","1","1","0","1","1","0.603425799999968","0.530998000002","0.635757299984107","1","1","1","1","1","1","1","1","1"
"250051","img/neutralC/CFD-IM-627-178-N.jpg","img/neutralC/CFD-BM-200-046-N.jpg","img/neutralC/CFD-WM-221-091-N.jpg","1","1","1","1","0","0","0.635757299984107","0.603425799999968","0.487899600004312","1","1","1","1","1","1","1","1","1"
"250051","img/neutralC/CFD-WM-221-091-N.jpg","img/neutralC/CFD-IM-627-178-N.jpg","img/neutralC/CFD-AF-232-078-N.jpg","1","1","1","0","1","1","0.487899600004312","0.635757299984107","0.505652899999404","1","1","1","1","1","1","1","1","1"
"250051","img/neutralC/CFD-AF-232-078-N.jpg","img/neutralC/CFD-WM-221-091-N.jpg","img/neutralC/CFD-LF-211-003-N.jpg","1","1","1","1","0","0","0.505652899999404","0.487899600004312","0.669188300002133","1","1","1","1","1","1","1","1","1"
"250051","img/neutralC/CFD-LF-211-003-N.jpg","img/neutralC/CFD-AF-232-078-N.jpg","img/neutralC/CFD-WF-023-003-N.jpg","1","1","1","0","1","1","0.669188300002133","0.505652899999404","0.568464099997072","1","1","1","1","1","1","1","1","1"
"250051","img/neutralC/CFD-WF-023-003-N.jpg","img/neutralC/CFD-LF-211-003-N.jpg",NA,"1","1",NA,"1","0",NA,"0.568464099997072","0.669188300002133",NA,"1","1",NA,"1","1",NA,"1","1",NA
"250051","img/neutralC/CFD-BF-201-080-N.jpg",NA,"img/neutralC/CFD-LM-252-076-N.jpg","1",NA,"1","1",NA,"1","0.54719609998574",NA,"0.358018699989771","1",NA,"1","1",NA,"1","1",NA,"1"
"250051","img/neutralC/CFD-LM-252-076-N.jpg","img/neutralC/CFD-BF-201-080-N.jpg","img/neutralC/CFD-IF-672-305-N.jpg","1","1","1","1","1","0","0.358018699989771","0.54719609998574","0.486978799992357","1","1","1","1","1","1","1","1","1"
"250051","img/neutralC/CFD-IF-672-305-N.jpg","img/neutralC/CFD-LM-252-076-N.jpg","img/neutralC/CFD-IF-718-001-N.jpg","1","1","1","0","1","1","0.486978799992357","0.358018699989771","0.528301300000749","1","1","1","1","1","1","1","1","1"
"250051","img/neutralC/CFD-IF-718-001-N.jpg","img/neutralC/CFD-IF-672-305-N.jpg","img/neutralC/CFD-BF-204-189-N.jpg","1","1","1","1","0","1","0.528301300000749","0.486978799992357","0.372155199991539","1","1","1","1","1","1","1","1","1"
"250051","img/neutralC/CFD-BF-204-189-N.jpg","img/neutralC/CFD-IF-718-001-N.jpg","img/neutralC/CFD-WM-002-009-N.jpg","1","1","1","1","1","0","0.372155199991539","0.528301300000749","0.448108800002956","1","1","1","1","1","1","1","1","1"
"250051","img/neutralC/CFD-WM-002-009-N.jpg","img/neutralC/CFD-BF-204-189-N.jpg","img/neutralC/CFD-IM-728-041-N.jpg","1","1","1","0","1","0","0.448108800002956","0.372155199991539","0.392837899998995","1","1","1","1","1","1","1","1","1"
"250051","img/neutralC/CFD-IM-728-041-N.jpg","img/neutralC/CFD-WM-002-009-N.jpg","img/neutralC/CFD-BM-015-015-N.jpg","1","1","1","0","0","0","0.392837899998995","0.448108800002956","0.501948899996933","1","1","1","1","1","1","1","1","1"
"250051","img/neutralC/CFD-BM-015-015-N.jpg","img/neutralC/CFD-IM-728-041-N.jpg","img/neutralC/CFD-WM-225-127-N.jpg","1","1","0","0","0","0","0.501948899996933","0.392837899998995","0.444780699996045","1","1","1","1","1","1","1","1","1"
"250051","img/neutralC/CFD-WM-225-127-N.jpg","img/neutralC/CFD-BM-015-015-N.jpg","img/neutralC/CFD-AM-215-120-N.jpg","0","1","1","0","0","1","0.444780699996045","0.501948899996933","0.487826299999142","1","1","1","1","1","1","1","1","1"
"250051","img/neutralC/CFD-AM-215-120-N.jpg","img/neutralC/CFD-WM-225-127-N.jpg","img/neutralC/CFD-WF-002-004-N.jpg","1","0","1","1","0","0","0.487826299999142","0.444780699996045","0.653573599993251","1","1","1","1","1","1","1","1","1"
"250051","img/neutralC/CFD-WF-002-004-N.jpg","img/neutralC/CFD-AM-215-120-N.jpg","img/neutralC/CFD-IM-639-263-N.jpg","1","1","1","0","1","1","0.653573599993251","0.487826299999142","0.578708800007007","1","1","1","1","1","1","1","1","1"
"250051","img/neutralC/CFD-IM-639-263-N.jpg","img/neutralC/CFD-WF-002-004-N.jpg","img/neutralC/CFD-AM-235-241-N.jpg","1","1","1","1","0","0","0.578708800007007","0.653573599993251","0.61003399999754","1","1","1","1","1","1","1","1","1"
"250051","img/neutralC/CFD-AM-235-241-N.jpg","img/neutralC/CFD-IM-639-263-N.jpg","img/neutralC/CFD-BF-028-001-N.jpg","1","1","1","0","1","1","0.61003399999754","0.578708800007007","0.459033500010264","1","1","1","1","1","1","1","1","1"
"250051","img/neutralC/CFD-BF-028-001-N.jpg","img/neutralC/CFD-AM-235-241-N.jpg","img/neutralC/CFD-IM-674-281-N.jpg","1","1","0","1","0","1","0.459033500010264","0.61003399999754","0.358734399997047","1","1","1","1","1","1","1","1","1"
"250051","img/neutralC/CFD-IM-674-281-N.jpg","img/neutralC/CFD-BF-028-001-N.jpg","img/neutralC/CFD-LF-216-121-N.jpg","0","1","1","1","1","1","0.358734399997047","0.459033500010264","0.490081899988581","1","1","1","1","1","1","1","1","1"
"250051","img/neutralC/CFD-LF-216-121-N.jpg","img/neutralC/CFD-IM-674-281-N.jpg","img/neutralC/CFD-AM-217-085-N.jpg","1","0","1","1","1","0","0.490081899988581","0.358734399997047","0.428661799989641","1","1","1","1","1","1","1","1","1"
"250051","img/neutralC/CFD-AM-217-085-N.jpg","img/neutralC/CFD-LF-216-121-N.jpg","img/neutralC/CFD-BM-029-024-N.jpg","1","1","1","0","1","1","0.428661799989641","0.490081899988581","0.467477600002894","1","1","1","1","1","1","1","1","1"
"250051","img/neutralC/CFD-BM-029-024-N.jpg","img/neutralC/CFD-AM-217-085-N.jpg","img/neutralC/CFD-BF-003-003-N.jpg","1","1","1","1","0","0","0.467477600002894","0.428661799989641","0.46351109999523","1","1","1","1","1","1","1","1","1"
"250051","img/neutralC/CFD-BF-003-003-N.jpg","img/neutralC/CFD-BM-029-024-N.jpg","img/neutralC/CFD-BF-255-140-N.jpg","1","1","1","0","1","1","0.46351109999523","0.467477600002894","0.436453399990569","1","1","1","1","1","1","1","1","1"
"250051","img/neutralC/CFD-BF-255-140-N.jpg","img/neutralC/CFD-BF-003-003-N.jpg","img/neutralC/CFD-BM-027-001-N.jpg","1","1","1","1","0","0","0.436453399990569","0.46351109999523","0.395419099993887","1","1","1","1","1","1","1","1","1"
"250051","img/neutralC/CFD-BM-027-001-N.jpg","img/neutralC/CFD-BF-255-140-N.jpg","img/neutralC/CFD-WF-026-002-N.jpg","1","1","1","0","1","1","0.395419099993887","0.436453399990569","0.439615900002536","1","1","1","1","1","1","1","1","1"
"250051","img/neutralC/CFD-WF-026-002-N.jpg","img/neutralC/CFD-BM-027-001-N.jpg","img/neutralC/CFD-WM-038-003-N.jpg","1","1","1","1","0","0","0.439615900002536","0.395419099993887","0.327588700005435","1","1","1","1","1","1","1","1","1"
"250051","img/neutralC/CFD-WM-038-003-N.jpg","img/neutralC/CFD-WF-026-002-N.jpg","img/neutralC/CFD-BM-211-174-N.jpg","1","1","0","0","1","0","0.327588700005435","0.439615900002536","0.461468199995579","1","1","1","1","1","1","1","1","1"
"250051","img/neutralC/CFD-BM-211-174-N.jpg","img/neutralC/CFD-WM-038-003-N.jpg","img/neutralC/CFD-LF-236-221-N.jpg","0","1","1","0","0","1","0.461468199995579","0.327588700005435","0.553610100003425","1","1","1","1","1","1","1","1","1"
"250051","img/neutralC/CFD-LF-236-221-N.jpg","img/neutralC/CFD-BM-211-174-N.jpg","img/neutralC/CFD-MM-319-052-N.jpg","1","0","1","1","0","1","0.553610100003425","0.461468199995579","0.533760300007998","1","1","1","1","1","1","1","1","1"
"250051","img/neutralC/CFD-MM-319-052-N.jpg","img/neutralC/CFD-LF-236-221-N.jpg","img/neutralC/CFD-BM-247-240-N.jpg","1","1","1","1","1","0","0.533760300007998","0.553610100003425","0.576166899991222","1","1","1","1","1","1","1","1","1"
"250051","img/neutralC/CFD-BM-247-240-N.jpg","img/neutralC/CFD-MM-319-052-N.jpg","img/neutralC/CFD-WM-257-161-N.jpg","1","1","1","0","1","1","0.576166899991222","0.533760300007998","0.426147100006347","1","1","1","1","1","1","1","1","1"
"250051","img/neutralC/CFD-WM-257-161-N.jpg","img/neutralC/CFD-BM-247-240-N.jpg","img/neutralC/CFD-BF-023-010-N.jpg","1","1","1","1","0","1","0.426147100006347","0.576166899991222","0.430380300007528","1","1","1","1","1","1","1","1","1"
"250051","img/neutralC/CFD-BF-023-010-N.jpg","img/neutralC/CFD-WM-257-161-N.jpg","img/neutralC/CFD-BF-208-266-N.jpg","1","1","1","1","1","0","0.430380300007528","0.426147100006347","0.450612100001308","1","1","1","1","1","1","1","1","1"
"250051","img/neutralC/CFD-BF-208-266-N.jpg","img/neutralC/CFD-BF-023-010-N.jpg","img/neutralC/CFD-WM-040-022-N.jpg","1","1","1","0","1","0","0.450612100001308","0.430380300007528","0.561585099989315","1","1","1","1","1","1","1","1","1"
"250051","img/neutralC/CFD-WM-040-022-N.jpg","img/neutralC/CFD-BF-208-266-N.jpg","img/neutralC/CFD-WF-022-017-N.jpg","1","1","1","0","0","0","0.561585099989315","0.450612100001308","0.415865300004953","1","1","1","1","1","1","1","1","1"
"250051","img/neutralC/CFD-WF-022-017-N.jpg","img/neutralC/CFD-WM-040-022-N.jpg",NA,"1","1",NA,"0","0",NA,"0.415865300004953","0.561585099989315",NA,"1","1",NA,"1","1",NA,"1","1",NA
"250051","img/neutralC/CFD-WF-217-085-N.jpg",NA,"img/neutralC/CFD-BF-043-003-N.jpg","1",NA,"1","1",NA,"0","0.581757499996456",NA,"0.350600699995994","1",NA,"1","1",NA,"1","1",NA,"1"
"250051","img/neutralC/CFD-BF-043-003-N.jpg","img/neutralC/CFD-WF-217-085-N.jpg","img/neutralC/CFD-MF-327-002-N.jpg","1","1","1","0","1","0","0.350600699995994","0.581757499996456","0.427414399993722","1","1","1","1","1","1","1","1","1"
"250051","img/neutralC/CFD-MF-327-002-N.jpg","img/neutralC/CFD-BF-043-003-N.jpg","img/neutralC/CFD-AF-229-160-N.jpg","1","1","1","0","0","0","0.427414399993722","0.350600699995994","0.333806399998139","1","1","1","1","1","1","1","1","1"
"250051","img/neutralC/CFD-AF-229-160-N.jpg","img/neutralC/CFD-MF-327-002-N.jpg","img/neutralC/CFD-WF-212-050-N.jpg","1","1","0","0","0","0","0.333806399998139","0.427414399993722","0.510261199990055","1","1","1","1","1","1","1","1","1"
"250051","img/neutralC/CFD-WF-212-050-N.jpg","img/neutralC/CFD-AF-229-160-N.jpg","img/neutralC/CFD-IM-637-007-N.jpg","0","1","1","0","0","0","0.510261199990055","0.333806399998139","0.546031599995331","1","1","1","1","1","1","1","1","1"
"250051","img/neutralC/CFD-IM-637-007-N.jpg","img/neutralC/CFD-WF-212-050-N.jpg","img/neutralC/CFD-BF-051-035-N.jpg","1","0","0","0","0","0","0.546031599995331","0.510261199990055","0.346412899991265","1","1","1","1","1","1","1","1","1"
"250051","img/neutralC/CFD-BF-051-035-N.jpg","img/neutralC/CFD-IM-637-007-N.jpg","img/neutralC/CFD-LM-217-162-N.jpg","0","1","1","0","0","0","0.346412899991265","0.546031599995331","0.551349499990465","1","1","1","1","1","1","1","1","1"
"250051","img/neutralC/CFD-LM-217-162-N.jpg","img/neutralC/CFD-BF-051-035-N.jpg","img/neutralC/CFD-AF-254-167-N.jpg","1","0","1","0","0","1","0.551349499990465","0.346412899991265","0.63356569998723","1","1","1","1","1","1","1","1","1"
"250051","img/neutralC/CFD-AF-254-167-N.jpg","img/neutralC/CFD-LM-217-162-N.jpg","img/neutralC/CFD-AF-215-70-N.jpg","1","1","1","1","0","0","0.63356569998723","0.551349499990465","0.544830999991973","1","1","1","1","1","1","1","1","1"
"250051","img/neutralC/CFD-AF-215-70-N.jpg","img/neutralC/CFD-AF-254-167-N.jpg","img/neutralC/CFD-MF-300-002-N.jpg","1","1","1","0","1","0","0.544830999991973","0.63356569998723","0.542164400001639","1","1","1","1","1","1","1","1","1"
"250051","img/neutralC/CFD-MF-300-002-N.jpg","img/neutralC/CFD-AF-215-70-N.jpg","img/neutralC/CFD-WM-024-015-N.jpg","1","1","1","0","0","1","0.542164400001639","0.544830999991973","0.419319099994027","1","1","1","1","1","1","1","1","1"
"250051","img/neutralC/CFD-WM-024-015-N.jpg","img/neutralC/CFD-MF-300-002-N.jpg","img/neutralC/CFD-IM-685-004-N.jpg","1","1","1","1","0","1","0.419319099994027","0.542164400001639","0.486334499990335","1","1","1","1","1","1","1","1","1"
"250051","img/neutralC/CFD-IM-685-004-N.jpg","img/neutralC/CFD-WM-024-015-N.jpg","img/neutralC/CFD-WM-213-076-N.jpg","1","1","1","1","1","1","0.486334499990335","0.419319099994027","0.387711599993054","1","1","1","1","1","1","1","1","1"
"250051","img/neutralC/CFD-WM-213-076-N.jpg","img/neutralC/CFD-IM-685-004-N.jpg","img/neutralC/CFD-WF-008-002-N.jpg","1","1","1","1","1","1","0.387711599993054","0.486334499990335","0.286476299996138","1","1","1","1","1","1","1","1","1"
"250051","img/neutralC/CFD-WF-008-002-N.jpg","img/neutralC/CFD-WM-213-076-N.jpg","img/neutralC/CFD-IF-619-197-N.jpg","1","1","1","1","1","0","0.286476299996138","0.387711599993054","0.350480599998264","1","1","1","1","1","1","1","1","1"
"250051","img/neutralC/CFD-IF-619-197-N.jpg","img/neutralC/CFD-WF-008-002-N.jpg","img/neutralC/CFD-WF-248-129-N.jpg","1","1","1","0","1","0","0.350480599998264","0.286476299996138","0.310402099989005","1","1","1","1","1","1","1","1","1"
"250051","img/neutralC/CFD-WF-248-129-N.jpg","img/neutralC/CFD-IF-619-197-N.jpg","img/neutralC/CFD-MM-304-002-N.jpg","1","1","1","0","0","1","0.310402099989005","0.350480599998264","0.436307500000112","1","1","1","1","1","1","1","1","1"
"250051","img/neutralC/CFD-MM-304-002-N.jpg","img/neutralC/CFD-WF-248-129-N.jpg","img/neutralC/CFD-IM-675-015-N.jpg","1","1","1","1","0","1","0.436307500000112","0.310402099989005","0.415479599992978","1","1","1","1","1","1","1","1","1"
"250051","img/neutralC/CFD-IM-675-015-N.jpg","img/neutralC/CFD-MM-304-002-N.jpg","img/neutralC/CFD-LF-201-035-N.jpg","1","1","1","1","1","1","0.415479599992978","0.436307500000112","0.345546500000637","1","1","1","1","1","1","1","1","1"
"250051","img/neutralC/CFD-LF-201-035-N.jpg","img/neutralC/CFD-IM-675-015-N.jpg","img/neutralC/CFD-MF-329-001-N.jpg","1","1","1","1","1","0","0.345546500000637","0.415479599992978","0.582010300000547","1","1","1","1","1","1","1","1","1"
"250051","img/neutralC/CFD-MF-329-001-N.jpg","img/neutralC/CFD-LF-201-035-N.jpg","img/neutralC/CFD-WM-232-070-N.jpg","1","1","1","0","1","0","0.582010300000547","0.345546500000637","0.334942999994382","1","1","1","1","1","1","1","1","1"
"250051","img/neutralC/CFD-WM-232-070-N.jpg","img/neutralC/CFD-MF-329-001-N.jpg","img/neutralC/CFD-MF-340-026-N.jpg","1","1","1","0","0","1","0.334942999994382","0.582010300000547","0.532105100006447","1","1","1","1","1","1","1","1","1"
"250051","img/neutralC/CFD-MF-340-026-N.jpg","img/neutralC/CFD-WM-232-070-N.jpg","img/neutralC/CFD-IM-604-014-N.jpg","1","1","1","1","0","0","0.532105100006447","0.334942999994382","0.443095899987384","1","1","1","1","1","1","1","1","1"
"250051","img/neutralC/CFD-IM-604-014-N.jpg","img/neutralC/CFD-MF-340-026-N.jpg","img/neutralC/CFD-BF-224-002-N.jpg","1","1","1","0","1","1","0.443095899987384","0.532105100006447","0.424767599994084","1","1","1","1","1","1","1","1","1"
"250051","img/neutralC/CFD-BF-224-002-N.jpg","img/neutralC/CFD-IM-604-014-N.jpg","img/neutralC/CFD-BM-243-218-N.jpg","1","1","1","1","0","1","0.424767599994084","0.443095899987384","0.357586599988281","1","1","1","1","1","1","1","1","1"
"250051","img/neutralC/CFD-BM-243-218-N.jpg","img/neutralC/CFD-BF-224-002-N.jpg","img/neutralC/CFD-LF-226-174-N.jpg","1","1","1","1","1","0","0.357586599988281","0.424767599994084","0.530642899990198","1","1","1","1","1","1","1","1","1"
"250051","img/neutralC/CFD-LF-226-174-N.jpg","img/neutralC/CFD-BM-243-218-N.jpg","img/neutralC/CFD-WF-012-002-N.jpg","1","1","1","0","1","1","0.530642899990198","0.357586599988281","0.442453700001352","1","1","1","1","1","1","1","1","1"
"250051","img/neutralC/CFD-WF-012-002-N.jpg","img/neutralC/CFD-LF-226-174-N.jpg","img/neutralC/CFD-IM-709-103-N.jpg","1","1","0","1","0","0","0.442453700001352","0.530642899990198","0.357824000006076","1","1","1","1","1","1","1","1","1"
"250051","img/neutralC/CFD-IM-709-103-N.jpg","img/neutralC/CFD-WF-012-002-N.jpg","img/neutralC/CFD-BM-039-029-N.jpg","0","1","1","0","1","1","0.357824000006076","0.442453700001352","0.372508300002664","1","1","1","1","1","1","1","1","1"
"250051","img/neutralC/CFD-BM-039-029-N.jpg","img/neutralC/CFD-IM-709-103-N.jpg","img/neutralC/CFD-IF-608-390-N.jpg","1","0","1","1","0","1","0.372508300002664","0.357824000006076","0.274997499989695","1","1","1","1","1","1","1","1","1"
"250051","img/neutralC/CFD-IF-608-390-N.jpg","img/neutralC/CFD-BM-039-029-N.jpg","img/neutralC/CFD-AM-236-090-N.jpg","1","1","1","1","1","1","0.274997499989695","0.372508300002664","0.375716800001101","1","1","1","1","1","1","1","1","1"
"250051","img/neutralC/CFD-AM-236-090-N.jpg","img/neutralC/CFD-IF-608-390-N.jpg",NA,"1","1",NA,"1","1",NA,"0.375716800001101","0.274997499989695",NA,"1","1",NA,"1","1",NA,"1","1",NA
"250051","img/neutralC/CFD-BF-217-189-N.jpg",NA,"img/neutralC/CFD-LM-241-125-N.jpg","0",NA,"1","0",NA,"1","0.682977499993285",NA,"0.391184599997359","1",NA,"1","1",NA,"1","1",NA,"1"
"250051","img/neutralC/CFD-LM-241-125-N.jpg","img/neutralC/CFD-BF-217-189-N.jpg","img/neutralC/CFD-BM-215-155-N.jpg","1","0","1","1","0","0","0.391184599997359","0.682977499993285","0.274240300001111","1","1","1","1","1","1","1","1","1"
"250051","img/neutralC/CFD-BM-215-155-N.jpg","img/neutralC/CFD-LM-241-125-N.jpg","img/neutralC/CFD-MF-307-002-N.jpg","1","1","0","0","1","1","0.274240300001111","0.391184599997359","0.269368599998415","1","1","1","1","1","1","1","1","1"
"250051","img/neutralC/CFD-MF-307-002-N.jpg","img/neutralC/CFD-BM-215-155-N.jpg","img/neutralC/CFD-BF-040-003-N.jpg","0","1","1","1","0","1","0.269368599998415","0.274240300001111","0.434612099998049","1","1","1","1","1","1","1","1","1"
"250051","img/neutralC/CFD-BF-040-003-N.jpg","img/neutralC/CFD-MF-307-002-N.jpg","img/neutralC/CFD-AM-225-102-N.jpg","1","0","0","1","1","0","0.434612099998049","0.269368599998415","0.3477622000064","1","1","1","1","1","1","1","1","1"
"250051","img/neutralC/CFD-AM-225-102-N.jpg","img/neutralC/CFD-BF-040-003-N.jpg","img/neutralC/CFD-IM-678-482-N.jpg","0","1","1","0","1","0","0.3477622000064","0.434612099998049","0.442516399998567","1","1","1","1","1","1","1","1","1"
"250051","img/neutralC/CFD-IM-678-482-N.jpg","img/neutralC/CFD-AM-225-102-N.jpg","img/neutralC/CFD-LF-239-148-N.jpg","1","0","1","0","0","0","0.442516399998567","0.3477622000064","0.460975599999074","1","1","1","1","1","1","1","1","1"
"250051","img/neutralC/CFD-LF-239-148-N.jpg","img/neutralC/CFD-IM-678-482-N.jpg","img/neutralC/CFD-BM-004-002-N.jpg","1","1","1","0","0","0","0.460975599999074","0.442516399998567","0.311293099992326","1","1","1","1","1","1","1","1","1"
"250051","img/neutralC/CFD-BM-004-002-N.jpg","img/neutralC/CFD-LF-239-148-N.jpg","img/neutralC/CFD-IM-635-010-N.jpg","1","1","1","0","0","1","0.311293099992326","0.460975599999074","0.44567719999759","1","1","1","1","1","1","1","1","1"
"250051","img/neutralC/CFD-IM-635-010-N.jpg","img/neutralC/CFD-BM-004-002-N.jpg","img/neutralC/CFD-AF-213-126-N.jpg","1","1","1","1","0","1","0.44567719999759","0.311293099992326","0.440386099988245","1","1","1","1","1","1","1","1","1"
"250051","img/neutralC/CFD-AF-213-126-N.jpg","img/neutralC/CFD-IM-635-010-N.jpg","img/neutralC/CFD-AF-250-200-N.jpg","1","1","1","1","1","1","0.440386099988245","0.44567719999759","0.340358799992828","1","1","1","1","1","1","1","1","1"
"250051","img/neutralC/CFD-AF-250-200-N.jpg","img/neutralC/CFD-AF-213-126-N.jpg","img/neutralC/CFD-BF-206-143-N.jpg","1","1","1","1","1","1","0.340358799992828","0.440386099988245","0.424091599998064","1","1","1","1","1","1","1","1","1"
"250051","img/neutralC/CFD-BF-206-143-N.jpg","img/neutralC/CFD-AF-250-200-N.jpg","img/neutralC/CFD-AF-246-242-N.jpg","1","1","1","1","1","0","0.424091599998064","0.340358799992828","0.27642680000281","1","1","1","1","1","1","1","1","1"
"250051","img/neutralC/CFD-AF-246-242-N.jpg","img/neutralC/CFD-BF-206-143-N.jpg","img/neutralC/CFD-AM-233-236-N.jpg","1","1","1","0","1","1","0.27642680000281","0.424091599998064","0.396559300002991","1","1","1","1","1","1","1","1","1"
"250051","img/neutralC/CFD-AM-233-236-N.jpg","img/neutralC/CFD-AF-246-242-N.jpg","img/neutralC/CFD-LM-204-001-N.jpg","1","1","0","1","0","0","0.396559300002991","0.27642680000281","0.263400700001512","1","1","1","1","1","1","1","1","1"
"250051","img/neutralC/CFD-LM-204-001-N.jpg","img/neutralC/CFD-AM-233-236-N.jpg","img/neutralC/CFD-AF-205-155-N.jpg","0","1","1","0","1","0","0.263400700001512","0.396559300002991","0.37852379999822","1","1","1","1","1","1","1","1","1"
"250051","img/neutralC/CFD-AF-205-155-N.jpg","img/neutralC/CFD-LM-204-001-N.jpg","img/neutralC/CFD-WM-018-002-N.jpg","1","0","1","0","0","0","0.37852379999822","0.263400700001512","0.349222999997437","1","1","1","1","1","1","1","1","1"
"250051","img/neutralC/CFD-WM-018-002-N.jpg","img/neutralC/CFD-AF-205-155-N.jpg","img/neutralC/CFD-BF-042-026-N.jpg","1","1","1","0","0","1","0.349222999997437","0.37852379999822","0.267752700005076","1","1","1","1","1","1","1","1","1"
"250051","img/neutralC/CFD-BF-042-026-N.jpg","img/neutralC/CFD-WM-018-002-N.jpg","img/neutralC/CFD-AF-234-208-N.jpg","1","1","1","1","0","1","0.267752700005076","0.349222999997437","0.383171499997843","1","1","1","1","1","1","1","1","1"
"250051","img/neutralC/CFD-AF-234-208-N.jpg","img/neutralC/CFD-BF-042-026-N.jpg","img/neutralC/CFD-IM-632-097-N.jpg","1","1","0","1","1","0","0.383171499997843","0.267752700005076","0.232916499997373","1","1","1","1","1","1","1","1","1"
"250051","img/neutralC/CFD-IM-632-097-N.jpg","img/neutralC/CFD-AF-234-208-N.jpg","img/neutralC/CFD-AM-245-111-N.jpg","0","1","0","0","1","1","0.232916499997373","0.383171499997843","0.335326699991128","1","1","1","1","1","1","1","1","1"
"250051","img/neutralC/CFD-AM-245-111-N.jpg","img/neutralC/CFD-IM-632-097-N.jpg","img/neutralC/CFD-WF-235-121-N.jpg","0","0","1","1","0","0","0.335326699991128","0.232916499997373","0.434371800001827","1","1","1","1","1","1","1","1","1"
"250051","img/neutralC/CFD-WF-235-121-N.jpg","img/neutralC/CFD-AM-245-111-N.jpg","img/neutralC/CFD-WM-253-119-N.jpg","1","0","1","0","1","1","0.434371800001827","0.335326699991128","0.408217500007595","1","1","1","1","1","1","1","1","1"
"250051","img/neutralC/CFD-WM-253-119-N.jpg","img/neutralC/CFD-WF-235-121-N.jpg","img/neutralC/CFD-AF-244-168-N.jpg","1","1","1","1","0","0","0.408217500007595","0.434371800001827","0.284495200001402","1","1","1","1","1","1","1","1","1"
"250051","img/neutralC/CFD-AF-244-168-N.jpg","img/neutralC/CFD-WM-253-119-N.jpg","img/neutralC/CFD-IF-636-011-N.jpg","1","1","1","0","1","1","0.284495200001402","0.408217500007595","0.477717600006144","1","1","1","1","1","1","1","1","1"
"250051","img/neutralC/CFD-IF-636-011-N.jpg","img/neutralC/CFD-AF-244-168-N.jpg","img/neutralC/CFD-WF-210-086-N.jpg","1","1","0","1","0","0","0.477717600006144","0.284495200001402","0.332200599994394","1","1","1","1","1","1","1","1","1"
"250051","img/neutralC/CFD-WF-210-086-N.jpg","img/neutralC/CFD-IF-636-011-N.jpg","img/neutralC/CFD-BF-235-168-N.jpg","0","1","1","0","1","1","0.332200599994394","0.477717600006144","0.418804999993881","1","1","1","1","1","1","1","1","1"
"250051","img/neutralC/CFD-BF-235-168-N.jpg","img/neutralC/CFD-WF-210-086-N.jpg","img/neutralC/CFD-BF-020-002-N.jpg","1","0","1","1","0","1","0.418804999993881","0.332200599994394","0.357321799994679","1","1","1","1","1","1","1","1","1"
"250051","img/neutralC/CFD-BF-020-002-N.jpg","img/neutralC/CFD-BF-235-168-N.jpg","img/neutralC/CFD-IF-732-260-N.jpg","1","1","0","1","1","0","0.357321799994679","0.418804999993881","0.455446399995708","1","1","1","1","1","1","1","1","1"
"250051","img/neutralC/CFD-IF-732-260-N.jpg","img/neutralC/CFD-BF-020-002-N.jpg","img/neutralC/CFD-MF-302-027-N.jpg","0","1","1","0","1","0","0.455446399995708","0.357321799994679","0.452482099994086","1","1","1","1","1","1","1","1","1"
"250051","img/neutralC/CFD-MF-302-027-N.jpg","img/neutralC/CFD-IF-732-260-N.jpg","img/neutralC/CFD-IM-669-111-N.jpg","1","0","0","0","0","1","0.452482099994086","0.455446399995708","0.332383499990101","1","1","1","1","1","1","1","1","1"
"250051","img/neutralC/CFD-IM-669-111-N.jpg","img/neutralC/CFD-MF-302-027-N.jpg",NA,"0","1",NA,"1","0",NA,"0.332383499990101","0.452482099994086",NA,"1","1",NA,"1","1",NA,"1","1",NA
"250051","img/neutralC/CFD-WM-020-001-N.jpg",NA,"img/neutralC/CFD-AM-251-124-N.jpg","1",NA,"0","1",NA,"0","0.509149899997283",NA,"0.459714199998416","1",NA,"1","1",NA,"1","1",NA,"1"
"250051","img/neutralC/CFD-AM-251-124-N.jpg","img/neutralC/CFD-WM-020-001-N.jpg","img/neutralC/CFD-BF-038-037-N.jpg","0","1","1","0","1","1","0.459714199998416","0.509149899997283","0.413013900004444","1","1","1","1","1","1","1","1","1"
"250051","img/neutralC/CFD-BF-038-037-N.jpg","img/neutralC/CFD-AM-251-124-N.jpg","img/neutralC/CFD-BM-253-004-N.jpg","1","0","0","1","0","1","0.413013900004444","0.459714199998416","0.331014099996537","1","1","1","1","1","1","1","1","1"
"250051","img/neutralC/CFD-BM-253-004-N.jpg","img/neutralC/CFD-BF-038-037-N.jpg","img/neutralC/CFD-BF-226-119-N.jpg","0","1","1","1","1","1","0.331014099996537","0.413013900004444","0.534356200005277","1","1","1","1","1","1","1","1","1"
"250051","img/neutralC/CFD-BF-226-119-N.jpg","img/neutralC/CFD-BM-253-004-N.jpg","img/neutralC/CFD-WF-214-122-N.jpg","1","0","0","1","1","1","0.534356200005277","0.331014099996537","0.324967599997763","1","1","1","1","1","1","1","1","1"
"250051","img/neutralC/CFD-WF-214-122-N.jpg","img/neutralC/CFD-BF-226-119-N.jpg","img/neutralC/CFD-LF-218-072-N.jpg","0","1","0","1","1","0","0.324967599997763","0.534356200005277","0.496129499995732","1","1","1","1","1","1","1","1","1"
"250051","img/neutralC/CFD-LF-218-072-N.jpg","img/neutralC/CFD-WF-214-122-N.jpg","img/neutralC/CFD-IF-650-315-N.jpg","0","0","1","0","1","0","0.496129499995732","0.324967599997763","0.587421999996877","1","1","1","1","1","1","1","1","1"
"250051","img/neutralC/CFD-IF-650-315-N.jpg","img/neutralC/CFD-LF-218-072-N.jpg","img/neutralC/CFD-WM-004-010-N.jpg","1","0","1","0","0","0","0.587421999996877","0.496129499995732","0.458399600000121","1","1","1","1","1","1","1","1","1"
"250051","img/neutralC/CFD-WM-004-010-N.jpg","img/neutralC/CFD-IF-650-315-N.jpg","img/neutralC/CFD-IM-743-006-N.jpg","1","1","1","0","0","1","0.458399600000121","0.587421999996877","0.377090800000587","1","1","1","1","1","1","1","1","1"
"250051","img/neutralC/CFD-IM-743-006-N.jpg","img/neutralC/CFD-WM-004-010-N.jpg","img/neutralC/CFD-IM-671-601-N.jpg","1","1","1","1","0","0","0.377090800000587","0.458399600000121","0.500274799996987","1","1","1","1","1","1","1","1","1"
"250051","img/neutralC/CFD-IM-671-601-N.jpg","img/neutralC/CFD-IM-743-006-N.jpg","img/neutralC/CFD-IM-703-182-N.jpg","1","1","0","0","1","1","0.500274799996987","0.377090800000587","0.327280899990001","1","1","1","1","1","1","1","1","1"
"250051","img/neutralC/CFD-IM-703-182-N.jpg","img/neutralC/CFD-IM-671-601-N.jpg","img/neutralC/CFD-WF-036-023-N.jpg","0","1","1","1","0","0","0.327280899990001","0.500274799996987","0.506447599997045","1","1","1","1","1","1","1","1","1"
"250051","img/neutralC/CFD-WF-036-023-N.jpg","img/neutralC/CFD-IM-703-182-N.jpg","img/neutralC/CFD-MF-333-012-N.jpg","1","0","1","0","1","0","0.506447599997045","0.327280899990001","0.387006500008283","1","1","1","1","1","1","1","1","1"
"250051","img/neutralC/CFD-MF-333-012-N.jpg","img/neutralC/CFD-WF-036-023-N.jpg","img/neutralC/CFD-AM-211-052-N.jpg","1","1","1","0","0","1","0.387006500008283","0.506447599997045","0.443743399999221","1","1","1","1","1","1","1","1","1"
"250051","img/neutralC/CFD-AM-211-052-N.jpg","img/neutralC/CFD-MF-333-012-N.jpg","img/neutralC/CFD-WM-033-025-N.jpg","1","1","1","1","0","1","0.443743399999221","0.387006500008283","0.370361099994625","1","1","1","1","1","1","1","1","1"
"250051","img/neutralC/CFD-WM-033-025-N.jpg","img/neutralC/CFD-AM-211-052-N.jpg","img/neutralC/CFD-WM-219-008-N.jpg","1","1","1","1","1","0","0.370361099994625","0.443743399999221","0.453546300006565","1","1","1","1","1","1","1","1","1"
"250051","img/neutralC/CFD-WM-219-008-N.jpg","img/neutralC/CFD-WM-033-025-N.jpg","img/neutralC/CFD-LM-228-188-N.jpg","1","1","1","0","1","1","0.453546300006565","0.370361099994625","0.352095299997018","1","1","1","1","1","1","1","1","1"
"250051","img/neutralC/CFD-LM-228-188-N.jpg","img/neutralC/CFD-WM-219-008-N.jpg","img/neutralC/CFD-LF-220-120-N.jpg","1","1","1","1","0","1","0.352095299997018","0.453546300006565","0.486404399984167","1","1","1","1","1","1","1","1","1"
"250051","img/neutralC/CFD-LF-220-120-N.jpg","img/neutralC/CFD-LM-228-188-N.jpg","img/neutralC/CFD-LM-237-264-N.jpg","1","1","1","1","1","0","0.486404399984167","0.352095299997018","0.446870700005093","1","1","1","1","1","1","1","1","1"
"250051","img/neutralC/CFD-LM-237-264-N.jpg","img/neutralC/CFD-LF-220-120-N.jpg","img/neutralC/CFD-IF-623-129-N.jpg","1","1","1","0","1","1","0.446870700005093","0.486404399984167","0.41434780000418","1","1","1","1","1","1","1","1","1"
"250051","img/neutralC/CFD-IF-623-129-N.jpg","img/neutralC/CFD-LM-237-264-N.jpg","img/neutralC/CFD-BF-229-179-N.jpg","1","1","1","1","0","0","0.41434780000418","0.446870700005093","0.580868499993812","1","1","1","1","1","1","1","1","1"
"250051","img/neutralC/CFD-BF-229-179-N.jpg","img/neutralC/CFD-IF-623-129-N.jpg","img/neutralC/CFD-BM-225-154-N.jpg","1","1","1","0","1","1","0.580868499993812","0.41434780000418","0.396443199992063","1","1","1","1","1","1","1","1","1"
"250051","img/neutralC/CFD-BM-225-154-N.jpg","img/neutralC/CFD-BF-229-179-N.jpg","img/neutralC/CFD-MF-359-019-N.jpg","1","1","1","1","0","0","0.396443199992063","0.580868499993812","0.493400999999722","1","1","1","1","1","1","1","1","1"
"250051","img/neutralC/CFD-MF-359-019-N.jpg","img/neutralC/CFD-BM-225-154-N.jpg","img/neutralC/CFD-IM-616-214-N.jpg","1","1","1","0","1","0","0.493400999999722","0.396443199992063","0.400873400009004","1","1","1","1","1","1","1","1","1"
"250051","img/neutralC/CFD-IM-616-214-N.jpg","img/neutralC/CFD-MF-359-019-N.jpg","img/neutralC/CFD-WM-235-147-N.jpg","1","1","1","0","0","0","0.400873400009004","0.493400999999722","0.400452900008531","1","1","1","1","1","1","1","1","1"
"250051","img/neutralC/CFD-WM-235-147-N.jpg","img/neutralC/CFD-IM-616-214-N.jpg","img/neutralC/CFD-IM-645-001-N.jpg","1","1","1","0","0","0","0.400452900008531","0.400873400009004","0.660183200001484","1","1","1","1","1","1","1","1","1"
"250051","img/neutralC/CFD-IM-645-001-N.jpg","img/neutralC/CFD-WM-235-147-N.jpg","img/neutralC/CFD-AM-242-176-N.jpg","1","1","1","0","0","1","0.660183200001484","0.400452900008531","0.440069999996922","1","1","1","1","1","1","1","1","1"
"250051","img/neutralC/CFD-AM-242-176-N.jpg","img/neutralC/CFD-IM-645-001-N.jpg","img/neutralC/CFD-WF-001-003-N.jpg","1","1","1","1","0","1","0.440069999996922","0.660183200001484","0.545416300010402","1","1","1","1","1","1","1","1","1"
"250051","img/neutralC/CFD-WF-001-003-N.jpg","img/neutralC/CFD-AM-242-176-N.jpg","img/neutralC/CFD-WF-200-099-N.jpg","1","1","1","1","1","0","0.545416300010402","0.440069999996922","0.490350699998089","1","1","1","1","1","1","1","1","1"
"250051","img/neutralC/CFD-WF-200-099-N.jpg","img/neutralC/CFD-WF-001-003-N.jpg","img/neutralC/CFD-MF-352-054-N.jpg","1","1","0","0","1","0","0.490350699998089","0.545416300010402","0.381928599992534","1","1","1","1","1","1","1","1","1"
"250051","img/neutralC/CFD-MF-352-054-N.jpg","img/neutralC/CFD-WF-200-099-N.jpg","img/neutralC/CFD-BF-232-187-N.jpg","0","1","1","0","0","1","0.381928599992534","0.490350699998089","0.458244199995534","1","1","1","1","1","1","1","1","1"
"250051","img/neutralC/CFD-BF-232-187-N.jpg","img/neutralC/CFD-MF-352-054-N.jpg",NA,"1","0",NA,"1","0",NA,"0.458244199995534","0.381928599992534",NA,"1","1",NA,"1","1",NA,"1","1",NA
"250051","img/neutralC/CFD-LF-208-127-N.jpg",NA,"img/neutralC/CFD-WM-202-107-N.jpg","1",NA,"1","0",NA,"1","0.507495199984987",NA,"0.502641899991431","1",NA,"1","1",NA,"1","1",NA,"1"
"250051","img/neutralC/CFD-WM-202-107-N.jpg","img/neutralC/CFD-LF-208-127-N.jpg","img/neutralC/CFD-LM-238-129-N.jpg","1","1","1","1","0","1","0.502641899991431","0.507495199984987","0.344653899999685","1","1","1","1","1","1","1","1","1"
"250051","img/neutralC/CFD-LM-238-129-N.jpg","img/neutralC/CFD-WM-202-107-N.jpg","img/neutralC/CFD-IF-744-114-N.jpg","1","1","1","1","1","0","0.344653899999685","0.502641899991431","0.511685000004945","1","1","1","1","1","1","1","1","1"
"250051","img/neutralC/CFD-IF-744-114-N.jpg","img/neutralC/CFD-LM-238-129-N.jpg","img/neutralC/CFD-IM-701-312-N.jpg","1","1","1","0","1","0","0.511685000004945","0.344653899999685","0.67920199999935","1","1","1","1","1","1","1","1","1"
"250051","img/neutralC/CFD-IM-701-312-N.jpg","img/neutralC/CFD-IF-744-114-N.jpg","img/neutralC/CFD-MF-336-016-N.jpg","1","1","1","0","0","1","0.67920199999935","0.511685000004945","0.371532200006186","1","1","1","1","1","1","1","1","1"
"250051","img/neutralC/CFD-MF-336-016-N.jpg","img/neutralC/CFD-IM-701-312-N.jpg","img/neutralC/CFD-IM-738-191-N.jpg","1","1","1","1","0","0","0.371532200006186","0.67920199999935","0.470429299995885","1","1","1","1","1","1","1","1","1"
"250051","img/neutralC/CFD-IM-738-191-N.jpg","img/neutralC/CFD-MF-336-016-N.jpg","img/neutralC/CFD-BM-213-134-N.jpg","1","1","1","0","1","1","0.470429299995885","0.371532200006186","0.388913199989474","1","1","1","1","1","1","1","1","1"
"250051","img/neutralC/CFD-BM-213-134-N.jpg","img/neutralC/CFD-IM-738-191-N.jpg","img/neutralC/CFD-LM-247-095-N.jpg","1","1","1","1","0","0","0.388913199989474","0.470429299995885","0.567509800006519","1","1","1","1","1","1","1","1","1"
"250051","img/neutralC/CFD-LM-247-095-N.jpg","img/neutralC/CFD-BM-213-134-N.jpg","img/neutralC/CFD-IM-659-359-N.jpg","1","1","1","0","1","0","0.567509800006519","0.388913199989474","0.447326599998633","1","1","1","1","1","1","1","1","1"
"250051","img/neutralC/CFD-IM-659-359-N.jpg","img/neutralC/CFD-LM-247-095-N.jpg","img/neutralC/CFD-AF-227-207-N.jpg","1","1","1","0","0","1","0.447326599998633","0.567509800006519","0.372149600007106","1","1","1","1","1","1","1","1","1"
"250051","img/neutralC/CFD-AF-227-207-N.jpg","img/neutralC/CFD-IM-659-359-N.jpg","img/neutralC/CFD-IF-625-225-N.jpg","1","1","1","1","0","0","0.372149600007106","0.447326599998633","0.327543799998239","1","1","1","1","1","1","1","1","1"
"250051","img/neutralC/CFD-IF-625-225-N.jpg","img/neutralC/CFD-AF-227-207-N.jpg","img/neutralC/CFD-BF-222-240-N.jpg","1","1","1","0","1","0","0.327543799998239","0.372149600007106","0.327264799998375","1","1","1","1","1","1","1","1","1"
"250051","img/neutralC/CFD-BF-222-240-N.jpg","img/neutralC/CFD-IF-625-225-N.jpg","img/neutralC/CFD-WF-033-002-N.jpg","1","1","1","0","0","1","0.327264799998375","0.327543799998239","0.555048800000804","1","1","1","1","1","1","1","1","1"
"250051","img/neutralC/CFD-WF-033-002-N.jpg","img/neutralC/CFD-BF-222-240-N.jpg","img/neutralC/CFD-LF-210-220-N.jpg","1","1","1","1","0","1","0.555048800000804","0.327264799998375","0.502051899995422","1","1","1","1","1","1","1","1","1"
"250051","img/neutralC/CFD-LF-210-220-N.jpg","img/neutralC/CFD-WF-033-002-N.jpg","img/neutralC/CFD-BF-004-014-N.jpg","1","1","1","1","1","1","0.502051899995422","0.555048800000804","0.397730799988494","1","1","1","1","1","1","1","1","1"
"250051","img/neutralC/CFD-BF-004-014-N.jpg","img/neutralC/CFD-LF-210-220-N.jpg","img/neutralC/CFD-WF-006-002-N.jpg","1","1","0","1","1","0","0.397730799988494","0.502051899995422","0.306071700004395","1","1","1","1","1","1","1","1","1"
"250051","img/neutralC/CFD-WF-006-002-N.jpg","img/neutralC/CFD-BF-004-014-N.jpg","img/neutralC/CFD-AM-221-184-N.jpg","0","1","1","0","1","1","0.306071700004395","0.397730799988494","0.382821199993487","1","1","1","1","1","1","1","1","1"
"250051","img/neutralC/CFD-AM-221-184-N.jpg","img/neutralC/CFD-WF-006-002-N.jpg","img/neutralC/CFD-BM-010-003-N.jpg","1","0","0","1","0","0","0.382821199993487","0.306071700004395","0.458253100005095","1","1","1","1","1","1","1","1","1"
"250051","img/neutralC/CFD-BM-010-003-N.jpg","img/neutralC/CFD-AM-221-184-N.jpg","img/neutralC/CFD-BF-045-003-N.jpg","0","1","1","0","1","0","0.458253100005095","0.382821199993487","0.40455030000885","1","1","1","1","1","1","1","1","1"
"250051","img/neutralC/CFD-BF-045-003-N.jpg","img/neutralC/CFD-BM-010-003-N.jpg","img/neutralC/CFD-BM-013-002-N.jpg","1","0","1","0","0","1","0.40455030000885","0.458253100005095","0.342375499996706","1","1","1","1","1","1","1","1","1"
"250051","img/neutralC/CFD-BM-013-002-N.jpg","img/neutralC/CFD-BF-045-003-N.jpg","img/neutralC/CFD-IF-673-389-N.jpg","1","1","0","1","0","0","0.342375499996706","0.40455030000885","0.38915819999238","1","1","1","1","1","1","1","1","1"
"250051","img/neutralC/CFD-IF-673-389-N.jpg","img/neutralC/CFD-BM-013-002-N.jpg","img/neutralC/CFD-AF-210-050-N.jpg","0","1","1","0","1","1","0.38915819999238","0.342375499996706","0.443858499987982","1","1","1","1","1","1","1","1","1"
"250051","img/neutralC/CFD-AF-210-050-N.jpg","img/neutralC/CFD-IF-673-389-N.jpg","img/neutralC/CFD-MF-312-002-N.jpg","1","0","1","1","0","1","0.443858499987982","0.38915819999238","0.477304999993066","1","1","1","1","1","1","1","1","1"
"250051","img/neutralC/CFD-MF-312-002-N.jpg","img/neutralC/CFD-AF-210-050-N.jpg","img/neutralC/CFD-BM-003-003-N.jpg","1","1","1","1","1","0","0.477304999993066","0.443858499987982","0.319083900001715","1","1","1","1","1","1","1","1","1"
"250051","img/neutralC/CFD-BM-003-003-N.jpg","img/neutralC/CFD-MF-312-002-N.jpg","img/neutralC/CFD-LF-241-188-N.jpg","1","1","0","0","1","0","0.319083900001715","0.477304999993066","0.47367910000321","1","1","1","1","1","1","1","1","1"
"250051","img/neutralC/CFD-LF-241-188-N.jpg","img/neutralC/CFD-BM-003-003-N.jpg","img/neutralC/CFD-WM-228-065-N.jpg","0","1","1","0","0","0","0.47367910000321","0.319083900001715","0.612491399995633","1","1","1","1","1","1","1","1","1"
"250051","img/neutralC/CFD-WM-228-065-N.jpg","img/neutralC/CFD-LF-241-188-N.jpg","img/neutralC/CFD-LF-225-164-N.jpg","1","0","1","0","0","1","0.612491399995633","0.47367910000321","0.506338799998048","1","1","1","1","1","1","1","1","1"
"250051","img/neutralC/CFD-LF-225-164-N.jpg","img/neutralC/CFD-WM-228-065-N.jpg","img/neutralC/CFD-AF-239-171-N.jpg","1","1","1","1","0","1","0.506338799998048","0.612491399995633","0.465855300004478","1","1","1","1","1","1","1","1","1"
"250051","img/neutralC/CFD-AF-239-171-N.jpg","img/neutralC/CFD-LF-225-164-N.jpg","img/neutralC/CFD-WM-254-152-N.jpg","1","1","1","1","1","1","0.465855300004478","0.506338799998048","0.374887199999648","1","1","1","1","1","1","1","1","1"
"250051","img/neutralC/CFD-WM-254-152-N.jpg","img/neutralC/CFD-AF-239-171-N.jpg","img/neutralC/CFD-WF-223-133-N.jpg","1","1","1","1","1","0","0.374887199999648","0.465855300004478","0.732475500000874","1","1","1","1","1","1","1","1","1"
"250051","img/neutralC/CFD-WF-223-133-N.jpg","img/neutralC/CFD-WM-254-152-N.jpg","img/neutralC/CFD-BM-028-002-N.jpg","1","1","1","0","1","1","0.732475500000874","0.374887199999648","0.474532099993667","1","1","1","1","1","1","1","1","1"
"250051","img/neutralC/CFD-BM-028-002-N.jpg","img/neutralC/CFD-WF-223-133-N.jpg",NA,"1","1",NA,"1","0",NA,"0.474532099993667","0.732475500000874",NA,"1","1",NA,"1","1",NA,"1","1",NA
"250051","img/neutralC/CFD-WF-009-001-N.jpg",NA,"img/neutralC/CFD-BM-227-191-N.jpg","1",NA,"1","1",NA,"1","0.485372899987851",NA,"0.394122500001686","1",NA,"1","1",NA,"1","1",NA,"1"
"250051","img/neutralC/CFD-BM-227-191-N.jpg","img/neutralC/CFD-WF-009-001-N.jpg","img/neutralC/CFD-WM-025-002-N.jpg","1","1","1","1","1","0","0.394122500001686","0.485372899987851","0.388096800001222","1","1","1","1","1","1","1","1","1"
"250051","img/neutralC/CFD-WM-025-002-N.jpg","img/neutralC/CFD-BM-227-191-N.jpg","img/neutralC/CFD-AM-219-101-N.jpg","1","1","1","0","1","0","0.388096800001222","0.394122500001686","0.447280399996089","1","1","1","1","1","1","1","1","1"
"250051","img/neutralC/CFD-AM-219-101-N.jpg","img/neutralC/CFD-WM-025-002-N.jpg","img/neutralC/CFD-LF-222-147-N.jpg","1","1","1","0","0","0","0.447280399996089","0.388096800001222","0.441973900000448","1","1","1","1","1","1","1","1","1"
"250051","img/neutralC/CFD-LF-222-147-N.jpg","img/neutralC/CFD-AM-219-101-N.jpg","img/neutralC/CFD-WM-028-003-N.jpg","1","1","1","0","0","1","0.441973900000448","0.447280399996089","0.487642799998866","1","1","1","1","1","1","1","1","1"
"250051","img/neutralC/CFD-WM-028-003-N.jpg","img/neutralC/CFD-LF-222-147-N.jpg","img/neutralC/CFD-WF-221-005-N.jpg","1","1","1","1","0","0","0.487642799998866","0.441973900000448","0.496571199997561","1","1","1","1","1","1","1","1","1"
"250051","img/neutralC/CFD-WF-221-005-N.jpg","img/neutralC/CFD-WM-028-003-N.jpg","img/neutralC/CFD-IM-689-263-N.jpg","1","1","1","0","1","1","0.496571199997561","0.487642799998866","0.45408110000426","1","1","1","1","1","1","1","1","1"
"250051","img/neutralC/CFD-IM-689-263-N.jpg","img/neutralC/CFD-WF-221-005-N.jpg","img/neutralC/CFD-BM-043-071-N.jpg","1","1","1","1","0","0","0.45408110000426","0.496571199997561","0.442179299992858","1","1","1","1","1","1","1","1","1"
"250051","img/neutralC/CFD-BM-043-071-N.jpg","img/neutralC/CFD-IM-689-263-N.jpg","img/neutralC/CFD-BF-244-231-N.jpg","1","1","1","0","1","1","0.442179299992858","0.45408110000426","0.329776799990213","1","1","1","1","1","1","1","1","1"
"250051","img/neutralC/CFD-BF-244-231-N.jpg","img/neutralC/CFD-BM-043-071-N.jpg","img/neutralC/CFD-WM-023-001-N.jpg","1","1","1","1","0","0","0.329776799990213","0.442179299992858","0.286741999996593","1","1","1","1","1","1","1","1","1"
"250051","img/neutralC/CFD-WM-023-001-N.jpg","img/neutralC/CFD-BF-244-231-N.jpg","img/neutralC/CFD-LF-238-154-N.jpg","1","1","1","0","1","1","0.286741999996593","0.329776799990213","0.354485599993495","1","1","1","1","1","1","1","1","1"
"250051","img/neutralC/CFD-LF-238-154-N.jpg","img/neutralC/CFD-WM-023-001-N.jpg","img/neutralC/CFD-AM-205-153-N.jpg","1","1","1","1","0","1","0.354485599993495","0.286741999996593","0.353965799993603","1","1","1","1","1","1","1","1","1"
"250051","img/neutralC/CFD-AM-205-153-N.jpg","img/neutralC/CFD-LF-238-154-N.jpg","img/neutralC/CFD-AM-249-163-N.jpg","1","1","1","1","1","1","0.353965799993603","0.354485599993495","0.278969099992537","1","1","1","1","1","1","1","1","1"
"250051","img/neutralC/CFD-AM-249-163-N.jpg","img/neutralC/CFD-AM-205-153-N.jpg","img/neutralC/CFD-BF-012-001-N.jpg","1","1","1","1","1","0","0.278969099992537","0.353965799993603","0.436966399996891","1","1","1","1","1","1","1","1","1"
"250051","img/neutralC/CFD-BF-012-001-N.jpg","img/neutralC/CFD-AM-249-163-N.jpg","img/neutralC/CFD-WF-243-148-N.jpg","1","1","1","0","1","0","0.436966399996891","0.278969099992537","0.379742999997688","1","1","1","1","1","1","1","1","1"
"250051","img/neutralC/CFD-WF-243-148-N.jpg","img/neutralC/CFD-BF-012-001-N.jpg","img/neutralC/CFD-WF-241-210-N.jpg","1","1","1","0","0","0","0.379742999997688","0.436966399996891","0.390617399985786","1","1","1","1","1","1","1","1","1"
"250051","img/neutralC/CFD-WF-241-210-N.jpg","img/neutralC/CFD-WF-243-148-N.jpg","img/neutralC/CFD-BM-009-002-N.jpg","1","1","0","0","0","1","0.390617399985786","0.379742999997688","0.445105000006151","1","1","1","1","1","1","1","1","1"
"250051","img/neutralC/CFD-BM-009-002-N.jpg","img/neutralC/CFD-WF-241-210-N.jpg","img/neutralC/CFD-BM-030-003-N.jpg","0","1","1","1","0","0","0.445105000006151","0.390617399985786","0.394544399998267","1","1","1","1","1","1","1","1","1"
"250051","img/neutralC/CFD-BM-030-003-N.jpg","img/neutralC/CFD-BM-009-002-N.jpg","img/neutralC/CFD-WF-207-014-N.jpg","1","0","1","0","1","1","0.394544399998267","0.445105000006151","0.411673900001915","1","1","1","1","1","1","1","1","1"
"250051","img/neutralC/CFD-WF-207-014-N.jpg","img/neutralC/CFD-BM-030-003-N.jpg","img/neutralC/CFD-LM-240-013-N.jpg","1","1","1","1","0","1","0.411673900001915","0.394544399998267","0.373428200007766","1","1","1","1","1","1","1","1","1"
"250051","img/neutralC/CFD-LM-240-013-N.jpg","img/neutralC/CFD-WF-207-014-N.jpg","img/neutralC/CFD-IM-697-015-N.jpg","1","1","1","1","1","1","0.373428200007766","0.411673900001915","0.488916900008917","1","1","1","1","1","1","1","1","1"
"250051","img/neutralC/CFD-IM-697-015-N.jpg","img/neutralC/CFD-LM-240-013-N.jpg","img/neutralC/CFD-MF-328-020-N.jpg","1","1","1","1","1","0","0.488916900008917","0.373428200007766","0.500776300003054","1","1","1","1","1","1","1","1","1"
"250051","img/neutralC/CFD-MF-328-020-N.jpg","img/neutralC/CFD-IM-697-015-N.jpg","img/neutralC/CFD-LF-212-066-N.jpg","1","1","1","0","1","1","0.500776300003054","0.488916900008917","0.34965820000798","1","1","1","1","1","1","1","1","1"
"250051","img/neutralC/CFD-LF-212-066-N.jpg","img/neutralC/CFD-MF-328-020-N.jpg","img/neutralC/CFD-AF-237-223-N.jpg","1","1","1","1","0","0","0.34965820000798","0.500776300003054","0.327530399998068","1","1","1","1","1","1","1","1","1"
"250051","img/neutralC/CFD-AF-237-223-N.jpg","img/neutralC/CFD-LF-212-066-N.jpg","img/neutralC/CFD-BM-020-001-N.jpg","1","1","1","0","1","0","0.327530399998068","0.34965820000798","0.593337199999951","1","1","1","1","1","1","1","1","1"
"250051","img/neutralC/CFD-BM-020-001-N.jpg","img/neutralC/CFD-AF-237-223-N.jpg","img/neutralC/CFD-IF-676-017-N.jpg","1","1","1","0","0","1","0.593337199999951","0.327530399998068","0.38715460000094","1","1","1","1","1","1","1","1","1"
"250051","img/neutralC/CFD-IF-676-017-N.jpg","img/neutralC/CFD-BM-020-001-N.jpg","img/neutralC/CFD-IM-606-008-N.jpg","1","1","1","1","0","0","0.38715460000094","0.593337199999951","0.434096600001794","1","1","1","1","1","1","1","1","1"
"250051","img/neutralC/CFD-IM-606-008-N.jpg","img/neutralC/CFD-IF-676-017-N.jpg","img/neutralC/CFD-AM-243-212-N.jpg","1","1","1","0","1","1","0.434096600001794","0.38715460000094","0.379869600001257","1","1","1","1","1","1","1","1","1"
"250051","img/neutralC/CFD-AM-243-212-N.jpg","img/neutralC/CFD-IM-606-008-N.jpg","img/neutralC/CFD-BM-021-021-N.jpg","1","1","1","1","0","1","0.379869600001257","0.434096600001794","0.370689100003801","1","1","1","1","1","1","1","1","1"
"250051","img/neutralC/CFD-BM-021-021-N.jpg","img/neutralC/CFD-AM-243-212-N.jpg","img/neutralC/CFD-MM-306-010-N.jpg","1","1","1","1","1","0","0.370689100003801","0.379869600001257","0.45048400000087","1","1","1","1","1","1","1","1","1"
"250051","img/neutralC/CFD-MM-306-010-N.jpg","img/neutralC/CFD-BM-021-021-N.jpg","img/neutralC/CFD-IM-615-167-N.jpg","1","1","1","0","1","0","0.45048400000087","0.370689100003801","0.395269000000553","1","1","1","1","1","1","1","1","1"
"250051","img/neutralC/CFD-IM-615-167-N.jpg","img/neutralC/CFD-MM-306-010-N.jpg",NA,"1","1",NA,"0","0",NA,"0.395269000000553","0.45048400000087",NA,"1","1",NA,"1","1",NA,"1","1",NA
"250051","img/neutralC/CFD-BF-002-001-N.jpg",NA,"img/neutralC/CFD-BM-238-242-N.jpg","0",NA,"1","0",NA,"0","0.851367100010975",NA,"0.414549399996758","1",NA,"1","1",NA,"1","1",NA,"1"
"250051","img/neutralC/CFD-BM-238-242-N.jpg","img/neutralC/CFD-BF-002-001-N.jpg","img/neutralC/CFD-BF-214-308-N.jpg","1","0","1","0","0","1","0.414549399996758","0.851367100010975","0.391198400000576","1","1","1","1","1","1","1","1","1"
"250051","img/neutralC/CFD-BF-214-308-N.jpg","img/neutralC/CFD-BM-238-242-N.jpg","img/neutralC/CFD-BF-236-177-N.jpg","1","1","0","1","0","0","0.391198400000576","0.414549399996758","0.291981300004409","1","1","1","1","1","1","1","1","1"
"250051","img/neutralC/CFD-BF-236-177-N.jpg","img/neutralC/CFD-BF-214-308-N.jpg","img/neutralC/CFD-WF-233-112-N.jpg","0","1","0","0","1","1","0.291981300004409","0.391198400000576","0.285712400000193","1","1","1","1","1","1","1","1","1"
"250051","img/neutralC/CFD-WF-233-112-N.jpg","img/neutralC/CFD-BF-236-177-N.jpg","img/neutralC/CFD-IM-721-341-N.jpg","0","0","1","1","0","1","0.285712400000193","0.291981300004409","0.345083299995167","1","1","1","1","1","1","1","1","1"
"250051","img/neutralC/CFD-IM-721-341-N.jpg","img/neutralC/CFD-WF-233-112-N.jpg","img/neutralC/CFD-AM-230-150-N.jpg","1","0","0","1","1","0","0.345083299995167","0.285712400000193","0.340118599997368","1","1","1","1","1","1","1","1","1"
"250051","img/neutralC/CFD-AM-230-150-N.jpg","img/neutralC/CFD-IM-721-341-N.jpg","img/neutralC/CFD-BF-207-004-N.jpg","0","1","1","0","1","1","0.340118599997368","0.345083299995167","0.500512400001753","1","1","1","1","1","1","1","1","1"
"250051","img/neutralC/CFD-BF-207-004-N.jpg","img/neutralC/CFD-AM-230-150-N.jpg","img/neutralC/CFD-BM-207-024-N.jpg","1","0","1","1","0","1","0.500512400001753","0.340118599997368","0.349640900007216","1","1","1","1","1","1","1","1","1"
"250051","img/neutralC/CFD-BM-207-024-N.jpg","img/neutralC/CFD-BF-207-004-N.jpg","img/neutralC/CFD-BF-044-034-N.jpg","1","1","1","1","1","0","0.349640900007216","0.500512400001753","0.639983000000939","1","1","1","1","1","1","1","1","1"
"250051","img/neutralC/CFD-BF-044-034-N.jpg","img/neutralC/CFD-BM-207-024-N.jpg","img/neutralC/CFD-WM-248-036-N.jpg","1","1","1","0","1","1","0.639983000000939","0.349640900007216","0.415618700004416","1","1","1","1","1","1","1","1","1"
"250051","img/neutralC/CFD-WM-248-036-N.jpg","img/neutralC/CFD-BF-044-034-N.jpg","img/neutralC/CFD-IM-696-001-N.jpg","1","1","0","1","0","0","0.415618700004416","0.639983000000939","0.377194200002123","1","1","1","1","1","1","1","1","1"
"250051","img/neutralC/CFD-IM-696-001-N.jpg","img/neutralC/CFD-WM-248-036-N.jpg","img/neutralC/CFD-LF-204-133-N.jpg","0","1","1","0","1","1","0.377194200002123","0.415618700004416","0.435625700003584","1","1","1","1","1","1","1","1","1"
"250051","img/neutralC/CFD-LF-204-133-N.jpg","img/neutralC/CFD-IM-696-001-N.jpg","img/neutralC/CFD-IM-726-248-N.jpg","1","0","1","1","0","0","0.435625700003584","0.377194200002123","0.539044699995429","1","1","1","1","1","1","1","1","1"
"250051","img/neutralC/CFD-IM-726-248-N.jpg","img/neutralC/CFD-LF-204-133-N.jpg","img/neutralC/CFD-MF-301-024-N.jpg","1","1","1","0","1","0","0.539044699995429","0.435625700003584","0.447094200004358","1","1","1","1","1","1","1","1","1"
"250051","img/neutralC/CFD-MF-301-024-N.jpg","img/neutralC/CFD-IM-726-248-N.jpg","img/neutralC/CFD-LM-213-061-N.jpg","1","1","1","0","0","0","0.447094200004358","0.539044699995429","0.466402400008519","1","1","1","1","1","1","1","1","1"
"250051","img/neutralC/CFD-LM-213-061-N.jpg","img/neutralC/CFD-MF-301-024-N.jpg","img/neutralC/CFD-BM-036-003-N.jpg","1","1","1","0","0","1","0.466402400008519","0.447094200004358","0.447804099996574","1","1","1","1","1","1","1","1","1"
"250051","img/neutralC/CFD-BM-036-003-N.jpg","img/neutralC/CFD-LM-213-061-N.jpg","img/neutralC/CFD-BM-241-235-N.jpg","1","1","1","1","0","0","0.447804099996574","0.466402400008519","0.441557500002091","1","1","1","1","1","1","1","1","1"
"250051","img/neutralC/CFD-BM-241-235-N.jpg","img/neutralC/CFD-BM-036-003-N.jpg","img/neutralC/CFD-WM-014-002-N.jpg","1","1","1","0","1","0","0.441557500002091","0.447804099996574","0.530222199988202","1","1","1","1","1","1","1","1","1"
"250051","img/neutralC/CFD-WM-014-002-N.jpg","img/neutralC/CFD-BM-241-235-N.jpg","img/neutralC/CFD-BF-027-002-N.jpg","1","1","1","0","0","1","0.530222199988202","0.441557500002091","0.410769399997662","1","1","1","1","1","1","1","1","1"
"250051","img/neutralC/CFD-BF-027-002-N.jpg","img/neutralC/CFD-WM-014-002-N.jpg","img/neutralC/CFD-IM-707-105-N.jpg","1","1","1","1","0","1","0.410769399997662","0.530222199988202","0.432015400001546","1","1","1","1","1","1","1","1","1"
"250051","img/neutralC/CFD-IM-707-105-N.jpg","img/neutralC/CFD-BF-027-002-N.jpg","img/neutralC/CFD-WF-208-068-N.jpg","1","1","0","1","1","1","0.432015400001546","0.410769399997662","0.248540999993565","1","1","1","1","1","1","1","1","1"
"250051","img/neutralC/CFD-WF-208-068-N.jpg","img/neutralC/CFD-IM-707-105-N.jpg","img/neutralC/CFD-IF-729-393-N.jpg","0","1","1","1","1","0","0.248540999993565","0.432015400001546","0.38952060000156","1","1","1","1","1","1","1","1","1"
"250051","img/neutralC/CFD-IF-729-393-N.jpg","img/neutralC/CFD-WF-208-068-N.jpg","img/neutralC/CFD-BF-006-017-N.jpg","1","0","1","0","1","0","0.38952060000156","0.248540999993565","0.44145369999751","1","1","1","1","1","1","1","1","1"
"250051","img/neutralC/CFD-BF-006-017-N.jpg","img/neutralC/CFD-IF-729-393-N.jpg","img/neutralC/CFD-WF-234-086-N.jpg","1","1","1","0","0","1","0.44145369999751","0.38952060000156","0.351058999993256","1","1","1","1","1","1","1","1","1"
"250051","img/neutralC/CFD-WF-234-086-N.jpg","img/neutralC/CFD-BF-006-017-N.jpg","img/neutralC/CFD-BF-247-179-N.jpg","1","1","0","1","0","0","0.351058999993256","0.44145369999751","0.331502999993972","1","1","1","1","1","1","1","1","1"
"250051","img/neutralC/CFD-BF-247-179-N.jpg","img/neutralC/CFD-WF-234-086-N.jpg","img/neutralC/CFD-IF-742-103-N.jpg","0","1","1","0","1","1","0.331502999993972","0.351058999993256","0.384796199999982","1","1","1","1","1","1","1","1","1"
"250051","img/neutralC/CFD-IF-742-103-N.jpg","img/neutralC/CFD-BF-247-179-N.jpg","img/neutralC/CFD-WF-029-002-N.jpg","1","0","1","1","0","0","0.384796199999982","0.331502999993972","0.373723399985465","1","1","1","1","1","1","1","1","1"
"250051","img/neutralC/CFD-WF-029-002-N.jpg","img/neutralC/CFD-IF-742-103-N.jpg","img/neutralC/CFD-BF-036-027-N.jpg","1","1","1","0","1","0","0.373723399985465","0.384796199999982","0.340999499996542","1","1","1","1","1","1","1","1","1"
"250051","img/neutralC/CFD-BF-036-027-N.jpg","img/neutralC/CFD-WF-029-002-N.jpg","img/neutralC/CFD-WM-034-030-N.jpg","1","1","1","0","0","1","0.340999499996542","0.373723399985465","0.338233799993759","1","1","1","1","1","1","1","1","1"
"250051","img/neutralC/CFD-WM-034-030-N.jpg","img/neutralC/CFD-BF-036-027-N.jpg","img/neutralC/CFD-BF-011-002-N.jpg","1","1","1","1","0","1","0.338233799993759","0.340999499996542","0.430465600002208","1","1","1","1","1","1","1","1","1"
"250051","img/neutralC/CFD-BF-011-002-N.jpg","img/neutralC/CFD-WM-034-030-N.jpg","img/neutralC/CFD-IF-677-452-1-N.jpg","1","1","1","1","1","1","0.430465600002208","0.338233799993759","0.35155219999433","1","1","1","1","1","1","1","1","1"
"250051","img/neutralC/CFD-IF-677-452-1-N.jpg","img/neutralC/CFD-BF-011-002-N.jpg",NA,"1","1",NA,"1","1",NA,"0.35155219999433","0.430465600002208",NA,"1","1",NA,"1","1",NA,"1","1",NA
"250051","img/neutralC/CFD-LM-233-171-N.jpg",NA,"img/neutralC/CFD-IM-727-195-N.jpg","1",NA,"1","0",NA,"1","0.560194899997441",NA,"0.403552999996464","1",NA,"1","1",NA,"1","1",NA,"1"
"250051","img/neutralC/CFD-IM-727-195-N.jpg","img/neutralC/CFD-LM-233-171-N.jpg","img/neutralC/CFD-BM-212-117-N.jpg","1","1","1","1","0","0","0.403552999996464","0.560194899997441","0.381217399990419","1","1","1","1","1","1","1","1","1"
"250051","img/neutralC/CFD-BM-212-117-N.jpg","img/neutralC/CFD-IM-727-195-N.jpg","img/neutralC/CFD-BM-018-001-N.jpg","1","1","0","0","1","1","0.381217399990419","0.403552999996464","0.288031999996747","1","1","1","1","1","1","1","1","1"
"250051","img/neutralC/CFD-BM-018-001-N.jpg","img/neutralC/CFD-BM-212-117-N.jpg","img/neutralC/CFD-BF-238-190-N.jpg","0","1","1","1","0","1","0.288031999996747","0.381217399990419","0.333359899988864","1","1","1","1","1","1","1","1","1"
"250051","img/neutralC/CFD-BF-238-190-N.jpg","img/neutralC/CFD-BM-018-001-N.jpg","img/neutralC/CFD-IM-657-308-N.jpg","1","0","1","1","1","0","0.333359899988864","0.288031999996747","0.323974699989776","1","1","1","1","1","1","1","1","1"
"250051","img/neutralC/CFD-IM-657-308-N.jpg","img/neutralC/CFD-BF-238-190-N.jpg","img/neutralC/CFD-IM-638-250-1-N.jpg","1","1","1","0","1","1","0.323974699989776","0.333359899988864","0.414497999998275","1","1","1","1","1","1","1","1","1"
"250051","img/neutralC/CFD-IM-638-250-1-N.jpg","img/neutralC/CFD-IM-657-308-N.jpg","img/neutralC/CFD-LF-247-051-N.jpg","1","1","1","1","0","1","0.414497999998275","0.323974699989776","0.362100999991526","1","1","1","1","1","1","1","1","1"
"250051","img/neutralC/CFD-LF-247-051-N.jpg","img/neutralC/CFD-IM-638-250-1-N.jpg","img/neutralC/CFD-WM-017-002-N.jpg","1","1","1","1","1","0","0.362100999991526","0.414497999998275","0.48346629999287","1","1","1","1","1","1","1","1","1"
"250051","img/neutralC/CFD-WM-017-002-N.jpg","img/neutralC/CFD-LF-247-051-N.jpg","img/neutralC/CFD-BM-005-003-N.jpg","1","1","1","0","1","1","0.48346629999287","0.362100999991526","0.319958799984306","1","1","1","1","1","1","1","1","1"
"250051","img/neutralC/CFD-BM-005-003-N.jpg","img/neutralC/CFD-WM-017-002-N.jpg","img/neutralC/CFD-IM-617-174-N.jpg","1","1","1","1","0","0","0.319958799984306","0.48346629999287","0.480425499990815","1","1","1","1","1","1","1","1","1"
"250051","img/neutralC/CFD-IM-617-174-N.jpg","img/neutralC/CFD-BM-005-003-N.jpg","img/neutralC/CFD-AF-202-122-N.jpg","1","1","1","0","1","1","0.480425499990815","0.319958799984306","0.491560299997218","1","1","1","1","1","1","1","1","1"
"250051","img/neutralC/CFD-AF-202-122-N.jpg","img/neutralC/CFD-IM-617-174-N.jpg","img/neutralC/CFD-LM-219-295-N.jpg","1","1","1","1","0","1","0.491560299997218","0.480425499990815","0.305818999986514","1","1","1","1","1","1","1","1","1"
"250051","img/neutralC/CFD-LM-219-295-N.jpg","img/neutralC/CFD-AF-202-122-N.jpg","img/neutralC/CFD-BM-026-002-N.jpg","1","1","1","1","1","0","0.305818999986514","0.491560299997218","0.287575300011667","1","1","1","1","1","1","1","1","1"
"250051","img/neutralC/CFD-BM-026-002-N.jpg","img/neutralC/CFD-LM-219-295-N.jpg","img/neutralC/CFD-WM-242-011-N.jpg","1","1","0","0","1","0","0.287575300011667","0.305818999986514","0.341929200003506","1","1","1","1","1","1","1","1","1"
"250051","img/neutralC/CFD-WM-242-011-N.jpg","img/neutralC/CFD-BM-026-002-N.jpg","img/neutralC/CFD-BM-231-155-N.jpg","0","1","1","0","0","1","0.341929200003506","0.287575300011667","0.346617600007448","1","1","1","1","1","1","1","1","1"
"250051","img/neutralC/CFD-BM-231-155-N.jpg","img/neutralC/CFD-WM-242-011-N.jpg","img/neutralC/CFD-LF-250-169-N.jpg","1","0","1","1","0","1","0.346617600007448","0.341929200003506","0.400582999995095","1","1","1","1","1","1","1","1","1"
"250051","img/neutralC/CFD-LF-250-169-N.jpg","img/neutralC/CFD-BM-231-155-N.jpg","img/neutralC/CFD-IM-686-097-N.jpg","1","1","0","1","1","0","0.400582999995095","0.346617600007448","0.37815469999623","1","1","1","1","1","1","1","1","1"
"250051","img/neutralC/CFD-IM-686-097-N.jpg","img/neutralC/CFD-LF-250-169-N.jpg","img/neutralC/CFD-MF-313-002-N.jpg","0","1","1","0","1","0","0.37815469999623","0.400582999995095","0.420372000007774","1","1","1","1","1","1","1","1","1"
"250051","img/neutralC/CFD-MF-313-002-N.jpg","img/neutralC/CFD-IM-686-097-N.jpg","img/neutralC/CFD-WM-227-099-N.jpg","1","0","1","0","0","1","0.420372000007774","0.37815469999623","0.58568039999227","1","1","1","1","1","1","1","1","1"
"250051","img/neutralC/CFD-WM-227-099-N.jpg","img/neutralC/CFD-MF-313-002-N.jpg","img/neutralC/CFD-LM-226-175-N.jpg","1","1","1","1","0","0","0.58568039999227","0.420372000007774","0.415374999996857","1","1","1","1","1","1","1","1","1"
"250051","img/neutralC/CFD-LM-226-175-N.jpg","img/neutralC/CFD-WM-227-099-N.jpg","img/neutralC/CFD-BF-033-028-N.jpg","1","1","1","0","1","0","0.415374999996857","0.58568039999227","0.442982099993969","1","1","1","1","1","1","1","1","1"
"250051","img/neutralC/CFD-BF-033-028-N.jpg","img/neutralC/CFD-LM-226-175-N.jpg","img/neutralC/CFD-IF-620-218-N.jpg","1","1","1","0","0","0","0.442982099993969","0.415374999996857","0.672140299997409","1","1","1","1","1","1","1","1","1"
"250051","img/neutralC/CFD-IF-620-218-N.jpg","img/neutralC/CFD-BF-033-028-N.jpg","img/neutralC/CFD-AF-206-079-N.jpg","1","1","1","0","0","1","0.672140299997409","0.442982099993969","0.608893800002988","1","1","1","1","1","1","1","1","1"
"250051","img/neutralC/CFD-AF-206-079-N.jpg","img/neutralC/CFD-IF-620-218-N.jpg","img/neutralC/CFD-IF-665-015-N.jpg","1","1","1","1","0","0","0.608893800002988","0.672140299997409","0.392799599998398","1","1","1","1","1","1","1","1","1"
"250051","img/neutralC/CFD-IF-665-015-N.jpg","img/neutralC/CFD-AF-206-079-N.jpg","img/neutralC/CFD-AF-241-141-N.jpg","1","1","1","0","1","1","0.392799599998398","0.608893800002988","0.369877200006158","1","1","1","1","1","1","1","1","1"
"250051","img/neutralC/CFD-AF-241-141-N.jpg","img/neutralC/CFD-IF-665-015-N.jpg","img/neutralC/CFD-LF-242-121-N.jpg","1","1","1","1","0","0","0.369877200006158","0.392799599998398","0.395909099999699","1","1","1","1","1","1","1","1","1"
"250051","img/neutralC/CFD-LF-242-121-N.jpg","img/neutralC/CFD-AF-241-141-N.jpg","img/neutralC/CFD-WM-258-125-N.jpg","1","1","1","0","1","0","0.395909099999699","0.369877200006158","0.483119600001373","1","1","1","1","1","1","1","1","1"
"250051","img/neutralC/CFD-WM-258-125-N.jpg","img/neutralC/CFD-LF-242-121-N.jpg","img/neutralC/CFD-LF-245-166-N.jpg","1","1","1","0","0","1","0.483119600001373","0.395909099999699","0.347770599997602","1","1","1","1","1","1","1","1","1"
"250051","img/neutralC/CFD-LF-245-166-N.jpg","img/neutralC/CFD-WM-258-125-N.jpg","img/neutralC/CFD-BF-010-001-N.jpg","1","1","1","1","0","1","0.347770599997602","0.483119600001373","0.29355360000045","1","1","1","1","1","1","1","1","1"
"250051","img/neutralC/CFD-BF-010-001-N.jpg","img/neutralC/CFD-LF-245-166-N.jpg","img/neutralC/CFD-WF-209-052-N.jpg","1","1","1","1","1","1","0.29355360000045","0.347770599997602","0.349840699986089","1","1","1","1","1","1","1","1","1"
"250051","img/neutralC/CFD-WF-209-052-N.jpg","img/neutralC/CFD-BF-010-001-N.jpg","img/neutralC/CFD-IM-653-008-N.jpg","1","1","0","1","1","0","0.349840699986089","0.29355360000045","0.308443899994018","1","1","1","1","1","1","1","1","1"
"250051","img/neutralC/CFD-IM-653-008-N.jpg","img/neutralC/CFD-WF-209-052-N.jpg",NA,"0","1",NA,"0","1",NA,"0.308443899994018","0.349840699986089",NA,"1","1",NA,"1","1",NA,"1","1",NA
"250051","img/neutralC/CFD-MF-305-014-N.jpg",NA,"img/neutralC/CFD-IM-667-369-N.jpg","1",NA,"1","1",NA,"0","0.51072259999637",NA,"0.430180199997267","1",NA,"1","1",NA,"1","1",NA,"1"
"250051","img/neutralC/CFD-IM-667-369-N.jpg","img/neutralC/CFD-MF-305-014-N.jpg","img/neutralC/CFD-LF-206-078-N.jpg","1","1","1","0","1","1","0.430180199997267","0.51072259999637","0.486402899987297","1","1","1","1","1","1","1","1","1"
"250051","img/neutralC/CFD-LF-206-078-N.jpg","img/neutralC/CFD-IM-667-369-N.jpg","img/neutralC/CFD-WF-244-163-N.jpg","1","1","1","1","0","1","0.486402899987297","0.430180199997267","0.347380199993495","1","1","1","1","1","1","1","1","1"
"250051","img/neutralC/CFD-WF-244-163-N.jpg","img/neutralC/CFD-LF-206-078-N.jpg","img/neutralC/CFD-LF-255-088-N.jpg","1","1","1","1","1","0","0.347380199993495","0.486402899987297","0.385024899995187","1","1","1","1","1","1","1","1","1"
"250051","img/neutralC/CFD-LF-255-088-N.jpg","img/neutralC/CFD-WF-244-163-N.jpg","img/neutralC/CFD-WM-015-002-N.jpg","1","1","1","0","1","0","0.385024899995187","0.347380199993495","0.513552000003983","1","1","1","1","1","1","1","1","1"
"250051","img/neutralC/CFD-WM-015-002-N.jpg","img/neutralC/CFD-LF-255-088-N.jpg","img/neutralC/CFD-BM-250-170-N.jpg","1","1","1","0","0","1","0.513552000003983","0.385024899995187","0.401878599994234","1","1","1","1","1","1","1","1","1"
"250051","img/neutralC/CFD-BM-250-170-N.jpg","img/neutralC/CFD-WM-015-002-N.jpg","img/neutralC/CFD-IM-664-651-N.jpg","1","1","1","1","0","1","0.401878599994234","0.513552000003983","0.415844700008165","1","1","1","1","1","1","1","1","1"
"250051","img/neutralC/CFD-IM-664-651-N.jpg","img/neutralC/CFD-BM-250-170-N.jpg","img/neutralC/CFD-WF-222-092-N.jpg","1","1","1","1","1","1","0.415844700008165","0.401878599994234","0.395712399986223","1","1","1","1","1","1","1","1","1"
"250051","img/neutralC/CFD-WF-222-092-N.jpg","img/neutralC/CFD-IM-664-651-N.jpg","img/neutralC/CFD-IM-706-002-N.jpg","1","1","1","1","1","0","0.395712399986223","0.415844700008165","0.442392299999483","1","1","1","1","1","1","1","1","1"
"250051","img/neutralC/CFD-IM-706-002-N.jpg","img/neutralC/CFD-WF-222-092-N.jpg","img/neutralC/CFD-MF-316-001-N.jpg","1","1","1","0","1","0","0.442392299999483","0.395712399986223","0.39261070000066","1","1","1","1","1","1","1","1","1"
"250051","img/neutralC/CFD-MF-316-001-N.jpg","img/neutralC/CFD-IM-706-002-N.jpg","img/neutralC/CFD-WF-030-002-N.jpg","1","1","1","0","0","0","0.39261070000066","0.442392299999483","0.398925599991344","1","1","1","1","1","1","1","1","1"
"250051","img/neutralC/CFD-WF-030-002-N.jpg","img/neutralC/CFD-MF-316-001-N.jpg","img/neutralC/CFD-AM-220-134-N.jpg","1","1","1","0","0","0","0.398925599991344","0.39261070000066","0.424780800007284","1","1","1","1","1","1","1","1","1"
"250051","img/neutralC/CFD-AM-220-134-N.jpg","img/neutralC/CFD-WF-030-002-N.jpg","img/neutralC/CFD-MF-303-013-N.jpg","1","1","1","0","0","0","0.424780800007284","0.398925599991344","0.406617599990568","1","1","1","1","1","1","1","1","1"
"250051","img/neutralC/CFD-MF-303-013-N.jpg","img/neutralC/CFD-AM-220-134-N.jpg","img/neutralC/CFD-IF-626-375-N.jpg","1","1","1","0","0","0","0.406617599990568","0.424780800007284","0.520347900004708","1","1","1","1","1","1","1","1","1"
"250051","img/neutralC/CFD-IF-626-375-N.jpg","img/neutralC/CFD-MF-303-013-N.jpg","img/neutralC/CFD-MF-343-001-N.jpg","1","1","1","0","0","1","0.520347900004708","0.406617599990568","0.394644400003017","1","1","1","1","1","1","1","1","1"
"250051","img/neutralC/CFD-MF-343-001-N.jpg","img/neutralC/CFD-IF-626-375-N.jpg","img/neutralC/CFD-LM-200-045-N.jpg","1","1","1","1","0","1","0.394644400003017","0.520347900004708","0.403907200001413","1","1","1","1","1","1","1","1","1"
"250051","img/neutralC/CFD-LM-200-045-N.jpg","img/neutralC/CFD-MF-343-001-N.jpg","img/neutralC/CFD-WF-007-001-N.jpg","1","1","1","1","1","1","0.403907200001413","0.394644400003017","0.364239300004556","1","1","1","1","1","1","1","1","1"
"250051","img/neutralC/CFD-WF-007-001-N.jpg","img/neutralC/CFD-LM-200-045-N.jpg","img/neutralC/CFD-IM-702-101-N.jpg","1","1","1","1","1","1","0.364239300004556","0.403907200001413","0.430077399985748","1","1","1","1","1","1","1","1","1"
"250051","img/neutralC/CFD-IM-702-101-N.jpg","img/neutralC/CFD-WF-007-001-N.jpg","img/neutralC/CFD-WM-218-074-N.jpg","1","1","1","1","1","1","0.430077399985748","0.364239300004556","0.298424299995531","1","1","1","1","1","1","1","1","1"
"250051","img/neutralC/CFD-WM-218-074-N.jpg","img/neutralC/CFD-IM-702-101-N.jpg","img/neutralC/CFD-IM-680-369-N.jpg","1","1","1","1","1","1","0.298424299995531","0.430077399985748","0.34152269999322","1","1","1","1","1","1","1","1","1"
"250051","img/neutralC/CFD-IM-680-369-N.jpg","img/neutralC/CFD-WM-218-074-N.jpg","img/neutralC/CFD-LM-225-130-N.jpg","1","1","1","1","1","0","0.34152269999322","0.298424299995531","0.451652000003378","1","1","1","1","1","1","1","1","1"
"250051","img/neutralC/CFD-LM-225-130-N.jpg","img/neutralC/CFD-IM-680-369-N.jpg","img/neutralC/CFD-IF-660-464-N.jpg","1","1","0","0","1","0","0.451652000003378","0.34152269999322","0.420578599994769","1","1","1","1","1","1","1","1","1"
"250051","img/neutralC/CFD-IF-660-464-N.jpg","img/neutralC/CFD-LM-225-130-N.jpg","img/neutralC/CFD-BM-001-014-N.jpg","0","1","1","0","0","0","0.420578599994769","0.451652000003378","0.539578700001584","1","1","1","1","1","1","1","1","1"
"250051","img/neutralC/CFD-BM-001-014-N.jpg","img/neutralC/CFD-IF-660-464-N.jpg","img/neutralC/CFD-AF-253-130-N.jpg","1","0","1","0","0","1","0.539578700001584","0.420578599994769","0.36406020000868","1","1","1","1","1","1","1","1","1"
"250051","img/neutralC/CFD-AF-253-130-N.jpg","img/neutralC/CFD-BM-001-014-N.jpg","img/neutralC/CFD-BF-237-172-N.jpg","1","1","1","1","0","1","0.36406020000868","0.539578700001584","0.359989699994912","1","1","1","1","1","1","1","1","1"
"250051","img/neutralC/CFD-BF-237-172-N.jpg","img/neutralC/CFD-AF-253-130-N.jpg","img/neutralC/CFD-AF-233-190-N.jpg","1","1","0","1","1","0","0.359989699994912","0.36406020000868","0.425308599995333","1","1","1","1","1","1","1","1","1"
"250051","img/neutralC/CFD-AF-233-190-N.jpg","img/neutralC/CFD-BF-237-172-N.jpg","img/neutralC/CFD-WM-209-038-N.jpg","0","1","1","0","1","0","0.425308599995333","0.359989699994912","0.362419600001886","1","1","1","1","1","1","1","1","1"
"250051","img/neutralC/CFD-WM-209-038-N.jpg","img/neutralC/CFD-AF-233-190-N.jpg","img/neutralC/CFD-MM-324-069-N.jpg","1","0","1","0","0","1","0.362419600001886","0.425308599995333","0.385053399993922","1","1","1","1","1","1","1","1","1"
"250051","img/neutralC/CFD-MM-324-069-N.jpg","img/neutralC/CFD-WM-209-038-N.jpg","img/neutralC/CFD-MF-357-002-N.jpg","1","1","1","1","0","0","0.385053399993922","0.362419600001886","0.592304399993736","1","1","1","1","1","1","1","1","1"
"250051","img/neutralC/CFD-MF-357-002-N.jpg","img/neutralC/CFD-MM-324-069-N.jpg","img/neutralC/CFD-BF-014-002-N.jpg","1","1","1","0","1","1","0.592304399993736","0.385053399993922","0.378552800000762","1","1","1","1","1","1","1","1","1"
"250051","img/neutralC/CFD-BF-014-002-N.jpg","img/neutralC/CFD-MF-357-002-N.jpg","img/neutralC/CFD-BM-217-082-N.jpg","1","1","0","1","0","0","0.378552800000762","0.592304399993736","0.436024799986626","1","1","1","1","1","1","1","1","1"
"250051","img/neutralC/CFD-BM-217-082-N.jpg","img/neutralC/CFD-BF-014-002-N.jpg",NA,"0","1",NA,"0","1",NA,"0.436024799986626","0.378552800000762",NA,"1","1",NA,"1","1",NA,"1","1",NA
"250051","img/neutralC/CFD-LM-214-165-N.jpg",NA,"img/neutralC/CFD-MM-317-061-N.jpg","1",NA,"1","1",NA,"1","0.570968900006847",NA,"0.422659400006523","1",NA,"1","1",NA,"1","1",NA,"1"
"250051","img/neutralC/CFD-MM-317-061-N.jpg","img/neutralC/CFD-LM-214-165-N.jpg","img/neutralC/CFD-WF-240-083-N.jpg","1","1","0","1","1","0","0.422659400006523","0.570968900006847","0.411246900010156","1","1","1","1","1","1","1","1","1"
"250051","img/neutralC/CFD-WF-240-083-N.jpg","img/neutralC/CFD-MM-317-061-N.jpg","img/neutralC/CFD-WF-005-010-N.jpg","0","1","1","0","1","0","0.411246900010156","0.422659400006523","0.437003700004425","1","1","1","1","1","1","1","1","1"
"250051","img/neutralC/CFD-WF-005-010-N.jpg","img/neutralC/CFD-WF-240-083-N.jpg","img/neutralC/CFD-WF-017-003-N.jpg","1","0","1","0","0","1","0.437003700004425","0.411246900010156","0.366006799988099","1","1","1","1","1","1","1","1","1"
"250051","img/neutralC/CFD-WF-017-003-N.jpg","img/neutralC/CFD-WF-005-010-N.jpg","img/neutralC/CFD-IM-648-337-N.jpg","1","1","1","1","0","0","0.366006799988099","0.437003700004425","0.489494599998579","1","1","1","1","1","1","1","1","1"
"250051","img/neutralC/CFD-IM-648-337-N.jpg","img/neutralC/CFD-WF-017-003-N.jpg","img/neutralC/CFD-WM-026-001-N.jpg","1","1","1","0","1","1","0.489494599998579","0.366006799988099","0.45290709999972","1","1","1","1","1","1","1","1","1"
"250051","img/neutralC/CFD-WM-026-001-N.jpg","img/neutralC/CFD-IM-648-337-N.jpg","img/neutralC/CFD-AM-247-165-N.jpg","1","1","1","1","0","1","0.45290709999972","0.489494599998579","0.331204100002651","1","1","1","1","1","1","1","1","1"
"250051","img/neutralC/CFD-AM-247-165-N.jpg","img/neutralC/CFD-WM-026-001-N.jpg","img/neutralC/CFD-WM-249-239-N.jpg","1","1","1","1","1","1","0.331204100002651","0.45290709999972","0.336756100005004","1","1","1","1","1","1","1","1","1"
"250051","img/neutralC/CFD-WM-249-239-N.jpg","img/neutralC/CFD-AM-247-165-N.jpg","img/neutralC/CFD-LM-216-082-N.jpg","1","1","1","1","1","0","0.336756100005004","0.331204100002651","0.251320299998042","1","1","1","1","1","1","1","1","1"
"250051","img/neutralC/CFD-LM-216-082-N.jpg","img/neutralC/CFD-WM-249-239-N.jpg","img/neutralC/CFD-LM-243-075-N.jpg","1","1","0","0","1","0","0.251320299998042","0.336756100005004","0.245621099995333","1","1","1","1","1","1","1","1","1"
"250051","img/neutralC/CFD-LM-243-075-N.jpg","img/neutralC/CFD-LM-216-082-N.jpg","img/neutralC/CFD-LM-244-068-N.jpg","0","1","1","0","0","1","0.245621099995333","0.251320299998042","0.271712100002333","1","1","1","1","1","1","1","1","1"
"250051","img/neutralC/CFD-LM-244-068-N.jpg","img/neutralC/CFD-LM-243-075-N.jpg","img/neutralC/CFD-BF-025-002-N.jpg","1","0","1","1","0","0","0.271712100002333","0.245621099995333","0.25358389999019","1","1","1","1","1","1","1","1","1"
"250051","img/neutralC/CFD-BF-025-002-N.jpg","img/neutralC/CFD-LM-244-068-N.jpg","img/neutralC/CFD-MF-335-002-N.jpg","1","1","1","0","1","0","0.25358389999019","0.271712100002333","0.272580299992114","1","1","1","1","1","1","1","1","1"
"250051","img/neutralC/CFD-MF-335-002-N.jpg","img/neutralC/CFD-BF-025-002-N.jpg","img/neutralC/CFD-BF-228-212-N.jpg","1","1","0","0","0","0","0.272580299992114","0.25358389999019","0.40874279999116","1","1","1","1","1","1","1","1","1"
"250051","img/neutralC/CFD-BF-228-212-N.jpg","img/neutralC/CFD-MF-335-002-N.jpg","img/neutralC/CFD-WM-012-001-N.jpg","0","1","1","0","0","1","0.40874279999116","0.272580299992114","0.406186399995931","1","1","1","1","1","1","1","1","1"
"250051","img/neutralC/CFD-WM-012-001-N.jpg","img/neutralC/CFD-BF-228-212-N.jpg","img/neutralC/CFD-AF-240-206-N.jpg","1","0","1","1","0","0","0.406186399995931","0.40874279999116","0.37195800000336","1","1","1","1","1","1","1","1","1"
"250051","img/neutralC/CFD-AF-240-206-N.jpg","img/neutralC/CFD-WM-012-001-N.jpg","img/neutralC/CFD-WM-215-041-N.jpg","1","1","1","0","1","0","0.37195800000336","0.406186399995931","0.324044299995876","1","1","1","1","1","1","1","1","1"
"250051","img/neutralC/CFD-WM-215-041-N.jpg","img/neutralC/CFD-AF-240-206-N.jpg","img/neutralC/CFD-BM-248-128-N.jpg","1","1","1","0","0","0","0.324044299995876","0.37195800000336","0.322007900002063","1","1","1","1","1","1","1","1","1"
"250051","img/neutralC/CFD-BM-248-128-N.jpg","img/neutralC/CFD-WM-215-041-N.jpg","img/neutralC/CFD-BM-251-013-N.jpg","1","1","0","0","0","1","0.322007900002063","0.324044299995876","0.26890710000589","1","1","1","1","1","1","1","1","1"
"250051","img/neutralC/CFD-BM-251-013-N.jpg","img/neutralC/CFD-BM-248-128-N.jpg","img/neutralC/CFD-WF-228-196-N.jpg","0","1","1","1","0","0","0.26890710000589","0.322007900002063","0.446136200000183","1","1","1","1","1","1","1","1","1"
"250051","img/neutralC/CFD-WF-228-196-N.jpg","img/neutralC/CFD-BM-251-013-N.jpg","img/neutralC/CFD-BF-212-315-N.jpg","1","0","1","0","1","1","0.446136200000183","0.26890710000589","0.484541599988006","1","1","1","1","1","1","1","1","1"
"250051","img/neutralC/CFD-BF-212-315-N.jpg","img/neutralC/CFD-WF-228-196-N.jpg","img/neutralC/CFD-BF-202-109-N.jpg","1","1","1","1","0","1","0.484541599988006","0.446136200000183","0.317227599996841","1","1","1","1","1","1","1","1","1"
"250051","img/neutralC/CFD-BF-202-109-N.jpg","img/neutralC/CFD-BF-212-315-N.jpg","img/neutralC/CFD-LM-201-057-N.jpg","1","1","0","1","1","1","0.317227599996841","0.484541599988006","0.362277899985202","1","1","1","1","1","1","1","1","1"
"250051","img/neutralC/CFD-LM-201-057-N.jpg","img/neutralC/CFD-BF-202-109-N.jpg","img/neutralC/CFD-IF-642-295-N.jpg","0","1","1","1","1","1","0.362277899985202","0.317227599996841","0.394806099997368","1","1","1","1","1","1","1","1","1"
"250051","img/neutralC/CFD-IF-642-295-N.jpg","img/neutralC/CFD-LM-201-057-N.jpg","img/neutralC/CFD-WM-212-097-N.jpg","1","0","1","1","1","0","0.394806099997368","0.362277899985202","0.38837169999897","1","1","1","1","1","1","1","1","1"
"250051","img/neutralC/CFD-WM-212-097-N.jpg","img/neutralC/CFD-IF-642-295-N.jpg","img/neutralC/CFD-BM-205-001-N.jpg","1","1","1","0","1","0","0.38837169999897","0.394806099997368","0.299016499993741","1","1","1","1","1","1","1","1","1"
"250051","img/neutralC/CFD-BM-205-001-N.jpg","img/neutralC/CFD-WM-212-097-N.jpg","img/neutralC/CFD-WM-019-003-N.jpg","1","1","0","0","0","1","0.299016499993741","0.38837169999897","0.307079599995632","1","1","1","1","1","1","1","1","1"
"250051","img/neutralC/CFD-WM-019-003-N.jpg","img/neutralC/CFD-BM-205-001-N.jpg","img/neutralC/CFD-MF-309-002-N.jpg","0","1","1","1","0","0","0.307079599995632","0.299016499993741","0.306814399984432","1","1","1","1","1","1","1","1","1"
"250051","img/neutralC/CFD-MF-309-002-N.jpg","img/neutralC/CFD-WM-019-003-N.jpg","img/neutralC/CFD-BF-041-001-N.jpg","1","0","1","0","1","1","0.306814399984432","0.307079599995632","0.35371799999848","1","1","1","1","1","1","1","1","1"
"250051","img/neutralC/CFD-BF-041-001-N.jpg","img/neutralC/CFD-MF-309-002-N.jpg","img/neutralC/CFD-IM-646-023-N.jpg","1","1","1","1","0","1","0.35371799999848","0.306814399984432","0.517066000000341","1","1","1","1","1","1","1","1","1"
"250051","img/neutralC/CFD-IM-646-023-N.jpg","img/neutralC/CFD-BF-041-001-N.jpg","img/neutralC/CFD-WM-006-002-N.jpg","1","1","1","1","1","0","0.517066000000341","0.35371799999848","0.451932700001635","1","1","1","1","1","1","1","1","1"
"250051","img/neutralC/CFD-WM-006-002-N.jpg","img/neutralC/CFD-IM-646-023-N.jpg",NA,"1","1",NA,"0","1",NA,"0.451932700001635","0.517066000000341",NA,"1","1",NA,"1","1",NA,"1","1",NA
"250051","img/neutralC/CFD-LF-230-203-N.jpg",NA,"img/neutralC/CFD-LF-203-066-N.jpg","1",NA,"1","0",NA,"0","0.581374999994296",NA,"0.38569439999992","1",NA,"1","1",NA,"1","1",NA,"1"
"250051","img/neutralC/CFD-LF-203-066-N.jpg","img/neutralC/CFD-LF-230-203-N.jpg","img/neutralC/CFD-BM-041-035-N.jpg","1","1","1","0","0","0","0.38569439999992","0.581374999994296","0.387799999996787","1","1","1","1","1","1","1","1","1"
"250051","img/neutralC/CFD-BM-041-035-N.jpg","img/neutralC/CFD-LF-203-066-N.jpg","img/neutralC/CFD-IM-651-308-N.jpg","1","1","1","0","0","0","0.387799999996787","0.38569439999992","0.380462700006319","1","1","1","1","1","1","1","1","1"
"250051","img/neutralC/CFD-IM-651-308-N.jpg","img/neutralC/CFD-BM-041-035-N.jpg","img/neutralC/CFD-BF-205-141-N.jpg","1","1","1","0","0","0","0.380462700006319","0.387799999996787","0.289861199998995","1","1","1","1","1","1","1","1","1"
"250051","img/neutralC/CFD-BF-205-141-N.jpg","img/neutralC/CFD-IM-651-308-N.jpg","img/neutralC/CFD-MM-316-156-N.jpg","1","1","1","0","0","1","0.289861199998995","0.380462700006319","0.335026200002176","1","1","1","1","1","1","1","1","1"
"250051","img/neutralC/CFD-MM-316-156-N.jpg","img/neutralC/CFD-BF-205-141-N.jpg","img/neutralC/CFD-BM-019-002-N.jpg","1","1","0","1","0","0","0.335026200002176","0.289861199998995","0.325096000000485","1","1","1","1","1","1","1","1","1"
"250051","img/neutralC/CFD-BM-019-002-N.jpg","img/neutralC/CFD-MM-316-156-N.jpg","img/neutralC/CFD-LF-224-176-N.jpg","0","1","0","0","1","0","0.325096000000485","0.335026200002176","0.421604599992861","1","1","1","1","1","1","1","1","2"
"250051","img/neutralC/CFD-LF-224-176-N.jpg","img/neutralC/CFD-BM-019-002-N.jpg","img/neutralC/CFD-WF-213-031-N.jpg","0","0","1","0","0","1","0.421604599992861","0.325096000000485","0.449655099990196","1","1","1","1","1","1","2","1","1"
"250051","img/neutralC/CFD-WF-213-031-N.jpg","img/neutralC/CFD-LF-224-176-N.jpg","img/neutralC/CFD-BF-213-188-N.jpg","1","0","1","1","0","1","0.449655099990196","0.421604599992861","0.538824799994472","1","1","1","1","1","1","1","2","1"
"250051","img/neutralC/CFD-BF-213-188-N.jpg","img/neutralC/CFD-WF-213-031-N.jpg","img/neutralC/CFD-BM-033-003-N.jpg","1","1","1","1","1","0","0.538824799994472","0.449655099990196","0.449843399997917","1","1","1","1","1","1","1","1","1"
"250051","img/neutralC/CFD-BM-033-003-N.jpg","img/neutralC/CFD-BF-213-188-N.jpg","img/neutralC/CFD-BF-029-031-N.jpg","1","1","1","0","1","1","0.449843399997917","0.538824799994472","0.395742499997141","1","1","1","1","1","1","1","1","1"
"250051","img/neutralC/CFD-BF-029-031-N.jpg","img/neutralC/CFD-BM-033-003-N.jpg","img/neutralC/CFD-LF-214-090-N.jpg","1","1","1","1","0","0","0.395742499997141","0.449843399997917","0.470626399997855","1","1","1","1","1","1","1","1","1"
"250051","img/neutralC/CFD-LF-214-090-N.jpg","img/neutralC/CFD-BF-029-031-N.jpg","img/neutralC/CFD-AM-212-050-N.jpg","1","1","0","0","1","1","0.470626399997855","0.395742499997141","0.296325999996043","1","1","1","1","1","1","1","1","1"
"250051","img/neutralC/CFD-AM-212-050-N.jpg","img/neutralC/CFD-LF-214-090-N.jpg","img/neutralC/CFD-WM-041-021-N.jpg","0","1","0","1","0","0","0.296325999996043","0.470626399997855","0.342049300001236","1","1","1","1","1","1","1","1","1"
"250051","img/neutralC/CFD-WM-041-021-N.jpg","img/neutralC/CFD-AM-212-050-N.jpg","img/neutralC/CFD-AF-231-357-N.jpg","0","0","1","0","1","1","0.342049300001236","0.296325999996043","0.342421300010756","1","1","1","1","1","1","1","1","1"
"250051","img/neutralC/CFD-AF-231-357-N.jpg","img/neutralC/CFD-WM-041-021-N.jpg","img/neutralC/CFD-WM-021-001-N.jpg","1","0","1","1","0","1","0.342421300010756","0.342049300001236","0.412288499996066","1","1","1","1","1","1","1","1","1"
"250051","img/neutralC/CFD-WM-021-001-N.jpg","img/neutralC/CFD-AF-231-357-N.jpg","img/neutralC/CFD-LM-215-247-N.jpg","1","1","1","1","1","0","0.412288499996066","0.342421300010756","0.422241399995983","1","1","1","1","1","1","1","1","1"
"250051","img/neutralC/CFD-LM-215-247-N.jpg","img/neutralC/CFD-WM-021-001-N.jpg","img/neutralC/CFD-LM-218-183-N.jpg","1","1","1","0","1","1","0.422241399995983","0.412288499996066","0.336362599991844","1","1","1","1","1","1","1","1","1"
"250051","img/neutralC/CFD-LM-218-183-N.jpg","img/neutralC/CFD-LM-215-247-N.jpg","img/neutralC/CFD-BF-253-202-N.jpg","1","1","1","1","0","0","0.336362599991844","0.422241399995983","0.402245599994785","1","1","1","1","1","1","1","1","1"
"250051","img/neutralC/CFD-BF-253-202-N.jpg","img/neutralC/CFD-LM-218-183-N.jpg","img/neutralC/CFD-IF-634-382-N.jpg","1","1","1","0","1","1","0.402245599994785","0.336362599991844","0.272363399999449","1","1","1","1","1","1","1","1","1"
"250051","img/neutralC/CFD-IF-634-382-N.jpg","img/neutralC/CFD-BF-253-202-N.jpg","img/neutralC/CFD-WM-011-002-N.jpg","1","1","1","1","0","0","0.272363399999449","0.402245599994785","0.339509700002964","1","1","1","1","1","1","1","1","1"
"250051","img/neutralC/CFD-WM-011-002-N.jpg","img/neutralC/CFD-IF-634-382-N.jpg","img/neutralC/CFD-AM-201-076-N.jpg","1","1","1","0","1","1","0.339509700002964","0.272363399999449","0.315665400004946","1","1","1","1","1","1","1","1","1"
"250051","img/neutralC/CFD-AM-201-076-N.jpg","img/neutralC/CFD-WM-011-002-N.jpg","img/neutralC/CFD-LF-205-100-N.jpg","1","1","1","1","0","1","0.315665400004946","0.339509700002964","0.390822499990463","1","1","1","1","1","1","1","1","1"
"250051","img/neutralC/CFD-LF-205-100-N.jpg","img/neutralC/CFD-AM-201-076-N.jpg","img/neutralC/CFD-BF-039-031-N.jpg","1","1","1","1","1","1","0.390822499990463","0.315665400004946","0.464622700004838","1","1","1","1","1","1","1","1","1"
"250051","img/neutralC/CFD-BF-039-031-N.jpg","img/neutralC/CFD-LF-205-100-N.jpg","img/neutralC/CFD-BM-239-136-N.jpg","1","1","1","1","1","1","0.464622700004838","0.390822499990463","0.342433500001789","1","1","1","1","1","1","1","1","1"
"250051","img/neutralC/CFD-BM-239-136-N.jpg","img/neutralC/CFD-BF-039-031-N.jpg","img/neutralC/CFD-WF-224-099-N.jpg","1","1","1","1","1","0","0.342433500001789","0.464622700004838","0.373726700010593","1","1","1","1","1","1","1","1","1"
"250051","img/neutralC/CFD-WF-224-099-N.jpg","img/neutralC/CFD-BM-239-136-N.jpg","img/neutralC/CFD-IF-693-172-N.jpg","1","1","1","0","1","0","0.373726700010593","0.342433500001789","0.285860999996657","1","1","1","1","1","1","1","1","1"
"250051","img/neutralC/CFD-IF-693-172-N.jpg","img/neutralC/CFD-WF-224-099-N.jpg","img/neutralC/CFD-IM-684-008-N.jpg","1","1","1","0","0","1","0.285860999996657","0.373726700010593","0.375173799999175","1","1","1","1","1","1","1","1","1"
"250051","img/neutralC/CFD-IM-684-008-N.jpg","img/neutralC/CFD-IF-693-172-N.jpg","img/neutralC/CFD-WF-250-167-N.jpg","1","1","1","1","0","1","0.375173799999175","0.285860999996657","0.470822200004477","1","1","1","1","1","1","1","1","1"
"250051","img/neutralC/CFD-WF-250-167-N.jpg","img/neutralC/CFD-IM-684-008-N.jpg","img/neutralC/CFD-MF-337-026-N.jpg","1","1","1","1","1","1","0.470822200004477","0.375173799999175","0.331795799997053","1","1","1","1","1","1","1","1","1"
"250051","img/neutralC/CFD-MF-337-026-N.jpg","img/neutralC/CFD-WF-250-167-N.jpg","img/neutralC/CFD-IF-710-016-N.jpg","1","1","1","1","1","0","0.331795799997053","0.470822200004477","0.42206250000163","1","1","1","1","1","1","1","1","1"
"250051","img/neutralC/CFD-IF-710-016-N.jpg","img/neutralC/CFD-MF-337-026-N.jpg",NA,"1","1",NA,"0","1",NA,"0.42206250000163","0.331795799997053",NA,"1","1",NA,"1","1",NA,"1","1",NA
