"participant_id","current_trial_face","pre_trial_face","post_trial_face","current_trial_accuracy","pre_trial_accuracy","post_trial_accuracy","current_trial_congruency","pre_trial_congruency","post_trial_congruency","current_trial_rt","pre_trial_rt","post_trial_rt","current_trial_responded","pre_trial_responded","post_trial_responded","current_trial_legitResponse","pre_trial_legitResponse","post_trial_legitResponse","current_trial_resp_nums","pre_trial_resp_nums","post_trial_resp_nums"
"250056","img/neutralC/CFD-AM-247-165-N.jpg",NA,"img/neutralC/CFD-WF-005-010-N.jpg","1",NA,"1","1",NA,"0","0.564480900007766",NA,"0.562925099977292","1",NA,"1","1",NA,"1","1",NA,"1"
"250056","img/neutralC/CFD-WF-005-010-N.jpg","img/neutralC/CFD-AM-247-165-N.jpg","img/neutralC/CFD-AF-240-206-N.jpg","1","1","1","0","1","0","0.562925099977292","0.564480900007766","0.614895800012164","1","1","1","1","1","1","1","1","1"
"250056","img/neutralC/CFD-AF-240-206-N.jpg","img/neutralC/CFD-WF-005-010-N.jpg","img/neutralC/CFD-WM-006-002-N.jpg","1","1","1","0","0","0","0.614895800012164","0.562925099977292","0.60121719999006","1","1","1","1","1","1","1","1","1"
"250056","img/neutralC/CFD-WM-006-002-N.jpg","img/neutralC/CFD-AF-240-206-N.jpg","img/neutralC/CFD-WF-240-083-N.jpg","1","1","1","0","0","0","0.60121719999006","0.614895800012164","0.562685100012459","1","1","1","1","1","1","1","1","1"
"250056","img/neutralC/CFD-WF-240-083-N.jpg","img/neutralC/CFD-WM-006-002-N.jpg","img/neutralC/CFD-IM-646-023-N.jpg","1","1","1","0","0","1","0.562685100012459","0.60121719999006","0.454527800029609","1","1","1","1","1","1","1","1","1"
"250056","img/neutralC/CFD-IM-646-023-N.jpg","img/neutralC/CFD-WF-240-083-N.jpg","img/neutralC/CFD-IM-648-337-N.jpg","1","1","1","1","0","0","0.454527800029609","0.562685100012459","0.554026999976486","1","1","1","1","1","1","1","1","1"
"250056","img/neutralC/CFD-IM-648-337-N.jpg","img/neutralC/CFD-IM-646-023-N.jpg","img/neutralC/CFD-WM-012-001-N.jpg","1","1","1","0","1","1","0.554026999976486","0.454527800029609","0.579798999999184","1","1","1","1","1","1","1","1","1"
"250056","img/neutralC/CFD-WM-012-001-N.jpg","img/neutralC/CFD-IM-648-337-N.jpg","img/neutralC/CFD-WM-019-003-N.jpg","1","1","1","1","0","1","0.579798999999184","0.554026999976486","0.52520450000884","1","1","1","1","1","1","1","1","1"
"250056","img/neutralC/CFD-WM-019-003-N.jpg","img/neutralC/CFD-WM-012-001-N.jpg","img/neutralC/CFD-MF-335-002-N.jpg","1","1","1","1","1","0","0.52520450000884","0.579798999999184","0.584196100011468","1","1","1","1","1","1","1","1","1"
"250056","img/neutralC/CFD-MF-335-002-N.jpg","img/neutralC/CFD-WM-019-003-N.jpg","img/neutralC/CFD-IF-642-295-N.jpg","1","1","1","0","1","1","0.584196100011468","0.52520450000884","0.573446499998681","1","1","1","1","1","1","1","1","1"
"250056","img/neutralC/CFD-IF-642-295-N.jpg","img/neutralC/CFD-MF-335-002-N.jpg","img/neutralC/CFD-LM-201-057-N.jpg","1","1","1","1","0","1","0.573446499998681","0.584196100011468","0.447150099964347","1","1","1","1","1","1","1","1","1"
"250056","img/neutralC/CFD-LM-201-057-N.jpg","img/neutralC/CFD-IF-642-295-N.jpg","img/neutralC/CFD-WM-215-041-N.jpg","1","1","1","1","1","0","0.447150099964347","0.573446499998681","0.645771800016519","1","1","1","1","1","1","1","1","1"
"250056","img/neutralC/CFD-WM-215-041-N.jpg","img/neutralC/CFD-LM-201-057-N.jpg","img/neutralC/CFD-LM-244-068-N.jpg","1","1","1","0","1","1","0.645771800016519","0.447150099964347","0.549691300024278","1","1","1","1","1","1","1","1","1"
"250056","img/neutralC/CFD-LM-244-068-N.jpg","img/neutralC/CFD-WM-215-041-N.jpg","img/neutralC/CFD-WM-212-097-N.jpg","1","1","1","1","0","0","0.549691300024278","0.645771800016519","0.711015699955169","1","1","1","1","1","1","1","1","1"
"250056","img/neutralC/CFD-WM-212-097-N.jpg","img/neutralC/CFD-LM-244-068-N.jpg","img/neutralC/CFD-BF-041-001-N.jpg","1","1","1","0","1","1","0.711015699955169","0.549691300024278","0.564826599962544","1","1","1","1","1","1","1","1","1"
"250056","img/neutralC/CFD-BF-041-001-N.jpg","img/neutralC/CFD-WM-212-097-N.jpg","img/neutralC/CFD-MM-317-061-N.jpg","1","1","1","1","0","1","0.564826599962544","0.711015699955169","0.529591700003948","1","1","1","1","1","1","1","1","1"
"250056","img/neutralC/CFD-MM-317-061-N.jpg","img/neutralC/CFD-BF-041-001-N.jpg","img/neutralC/CFD-LM-214-165-N.jpg","1","1","1","1","1","1","0.529591700003948","0.564826599962544","0.544193100009579","1","1","1","1","1","1","1","1","1"
"250056","img/neutralC/CFD-LM-214-165-N.jpg","img/neutralC/CFD-MM-317-061-N.jpg","img/neutralC/CFD-LM-243-075-N.jpg","1","1","1","1","1","0","0.544193100009579","0.529591700003948","0.652671300049406","1","1","1","1","1","1","1","1","1"
"250056","img/neutralC/CFD-LM-243-075-N.jpg","img/neutralC/CFD-LM-214-165-N.jpg","img/neutralC/CFD-WF-228-196-N.jpg","1","1","1","0","1","0","0.652671300049406","0.544193100009579","0.67319870000938","1","1","1","1","1","1","1","1","1"
"250056","img/neutralC/CFD-WF-228-196-N.jpg","img/neutralC/CFD-LM-243-075-N.jpg","img/neutralC/CFD-WM-249-239-N.jpg","1","1","1","0","0","1","0.67319870000938","0.652671300049406","0.556559999997262","1","1","1","1","1","1","1","1","1"
"250056","img/neutralC/CFD-WM-249-239-N.jpg","img/neutralC/CFD-WF-228-196-N.jpg","img/neutralC/CFD-BF-228-212-N.jpg","1","1","1","1","0","0","0.556559999997262","0.67319870000938","0.666696400032379","1","1","1","1","1","1","1","1","1"
"250056","img/neutralC/CFD-BF-228-212-N.jpg","img/neutralC/CFD-WM-249-239-N.jpg","img/neutralC/CFD-BM-251-013-N.jpg","1","1","1","0","1","1","0.666696400032379","0.556559999997262","0.479618000041228","1","1","1","1","1","1","1","1","1"
"250056","img/neutralC/CFD-BM-251-013-N.jpg","img/neutralC/CFD-BF-228-212-N.jpg","img/neutralC/CFD-WM-026-001-N.jpg","1","1","1","1","0","1","0.479618000041228","0.666696400032379","0.600142800016329","1","1","1","1","1","1","1","1","1"
"250056","img/neutralC/CFD-WM-026-001-N.jpg","img/neutralC/CFD-BM-251-013-N.jpg","img/neutralC/CFD-BM-205-001-N.jpg","1","1","1","1","1","0","0.600142800016329","0.479618000041228","0.838774900010321","1","1","1","1","1","1","1","1","1"
"250056","img/neutralC/CFD-BM-205-001-N.jpg","img/neutralC/CFD-WM-026-001-N.jpg","img/neutralC/CFD-LM-216-082-N.jpg","1","1","1","0","1","0","0.838774900010321","0.600142800016329","0.616962199972477","1","1","1","1","1","1","1","1","1"
"250056","img/neutralC/CFD-LM-216-082-N.jpg","img/neutralC/CFD-BM-205-001-N.jpg","img/neutralC/CFD-BF-212-315-N.jpg","1","1","1","0","0","1","0.616962199972477","0.838774900010321","0.621796699997503","1","1","1","1","1","1","1","1","1"
"250056","img/neutralC/CFD-BF-212-315-N.jpg","img/neutralC/CFD-LM-216-082-N.jpg","img/neutralC/CFD-MF-309-002-N.jpg","1","1","1","1","0","0","0.621796699997503","0.616962199972477","0.632374299981166","1","1","1","1","1","1","1","1","1"
"250056","img/neutralC/CFD-MF-309-002-N.jpg","img/neutralC/CFD-BF-212-315-N.jpg","img/neutralC/CFD-WF-017-003-N.jpg","1","1","1","0","1","1","0.632374299981166","0.621796699997503","0.629241599992383","1","1","1","1","1","1","1","1","1"
"250056","img/neutralC/CFD-WF-017-003-N.jpg","img/neutralC/CFD-MF-309-002-N.jpg","img/neutralC/CFD-BF-202-109-N.jpg","1","1","1","1","0","1","0.629241599992383","0.632374299981166","0.508257400011644","1","1","1","1","1","1","1","1","1"
"250056","img/neutralC/CFD-BF-202-109-N.jpg","img/neutralC/CFD-WF-017-003-N.jpg","img/neutralC/CFD-BF-025-002-N.jpg","1","1","1","1","1","0","0.508257400011644","0.629241599992383","0.795658599992748","1","1","1","1","1","1","1","1","1"
"250056","img/neutralC/CFD-BF-025-002-N.jpg","img/neutralC/CFD-BF-202-109-N.jpg","img/neutralC/CFD-BM-248-128-N.jpg","1","1","1","0","1","0","0.795658599992748","0.508257400011644","0.799676900031045","1","1","1","1","1","1","1","1","1"
"250056","img/neutralC/CFD-BM-248-128-N.jpg","img/neutralC/CFD-BF-025-002-N.jpg",NA,"1","1",NA,"0","0",NA,"0.799676900031045","0.795658599992748",NA,"1","1",NA,"1","1",NA,"1","1",NA
"250056","img/neutralC/CFD-AF-253-130-N.jpg",NA,"img/neutralC/CFD-IF-626-375-N.jpg","1",NA,"1","1",NA,"0","0.652950800023973",NA,"0.581073799985461","1",NA,"1","1",NA,"1","1",NA,"1"
"250056","img/neutralC/CFD-IF-626-375-N.jpg","img/neutralC/CFD-AF-253-130-N.jpg","img/neutralC/CFD-LM-225-130-N.jpg","1","1","1","0","1","0","0.581073799985461","0.652950800023973","0.557376299984753","1","1","1","1","1","1","1","1","1"
"250056","img/neutralC/CFD-LM-225-130-N.jpg","img/neutralC/CFD-IF-626-375-N.jpg","img/neutralC/CFD-BM-001-014-N.jpg","1","1","1","0","0","0","0.557376299984753","0.581073799985461","0.606122599972878","1","1","1","1","1","1","1","1","1"
"250056","img/neutralC/CFD-BM-001-014-N.jpg","img/neutralC/CFD-LM-225-130-N.jpg","img/neutralC/CFD-AF-233-190-N.jpg","1","1","1","0","0","0","0.606122599972878","0.557376299984753","0.480509100016207","1","1","1","1","1","1","1","1","1"
"250056","img/neutralC/CFD-AF-233-190-N.jpg","img/neutralC/CFD-BM-001-014-N.jpg","img/neutralC/CFD-IM-667-369-N.jpg","1","1","1","0","0","0","0.480509100016207","0.606122599972878","0.561063000001013","1","1","1","1","1","1","1","1","1"
"250056","img/neutralC/CFD-IM-667-369-N.jpg","img/neutralC/CFD-AF-233-190-N.jpg","img/neutralC/CFD-MF-357-002-N.jpg","1","1","1","0","0","0","0.561063000001013","0.480509100016207","0.558992000005674","1","1","1","1","1","1","1","1","1"
"250056","img/neutralC/CFD-MF-357-002-N.jpg","img/neutralC/CFD-IM-667-369-N.jpg","img/neutralC/CFD-LF-255-088-N.jpg","1","1","1","0","0","0","0.558992000005674","0.561063000001013","0.552981199987698","1","1","1","1","1","1","1","1","1"
"250056","img/neutralC/CFD-LF-255-088-N.jpg","img/neutralC/CFD-MF-357-002-N.jpg","img/neutralC/CFD-BM-250-170-N.jpg","1","1","1","0","0","1","0.552981199987698","0.558992000005674","0.396602499997243","1","1","1","1","1","1","1","1","1"
"250056","img/neutralC/CFD-BM-250-170-N.jpg","img/neutralC/CFD-LF-255-088-N.jpg","img/neutralC/CFD-WF-007-001-N.jpg","1","1","1","1","0","1","0.396602499997243","0.552981199987698","0.593518500041682","1","1","1","1","1","1","1","1","1"
"250056","img/neutralC/CFD-WF-007-001-N.jpg","img/neutralC/CFD-BM-250-170-N.jpg","img/neutralC/CFD-IF-660-464-N.jpg","1","1","1","1","1","0","0.593518500041682","0.396602499997243","0.504280900000595","1","1","1","1","1","1","1","1","1"
"250056","img/neutralC/CFD-IF-660-464-N.jpg","img/neutralC/CFD-WF-007-001-N.jpg","img/neutralC/CFD-LF-206-078-N.jpg","1","1","1","0","1","1","0.504280900000595","0.593518500041682","0.394087799999397","1","1","1","1","1","1","1","1","1"
"250056","img/neutralC/CFD-LF-206-078-N.jpg","img/neutralC/CFD-IF-660-464-N.jpg","img/neutralC/CFD-IM-702-101-N.jpg","1","1","1","1","0","1","0.394087799999397","0.504280900000595","0.443895199976396","1","1","1","1","1","1","1","1","1"
"250056","img/neutralC/CFD-IM-702-101-N.jpg","img/neutralC/CFD-LF-206-078-N.jpg","img/neutralC/CFD-BM-217-082-N.jpg","1","1","1","1","1","0","0.443895199976396","0.394087799999397","0.622171700000763","1","1","1","1","1","1","1","1","1"
"250056","img/neutralC/CFD-BM-217-082-N.jpg","img/neutralC/CFD-IM-702-101-N.jpg","img/neutralC/CFD-WF-030-002-N.jpg","1","1","0","0","1","0","0.622171700000763","0.443895199976396","0.536869400006253","1","1","1","1","1","1","1","1","1"
"250056","img/neutralC/CFD-WF-030-002-N.jpg","img/neutralC/CFD-BM-217-082-N.jpg","img/neutralC/CFD-BF-237-172-N.jpg","0","1","1","0","0","1","0.536869400006253","0.622171700000763","0.596820699982345","1","1","1","1","1","1","1","1","1"
"250056","img/neutralC/CFD-BF-237-172-N.jpg","img/neutralC/CFD-WF-030-002-N.jpg","img/neutralC/CFD-WF-222-092-N.jpg","1","0","1","1","0","1","0.596820699982345","0.536869400006253","0.470167100022081","1","1","1","1","1","1","1","1","1"
"250056","img/neutralC/CFD-WF-222-092-N.jpg","img/neutralC/CFD-BF-237-172-N.jpg","img/neutralC/CFD-IM-664-651-N.jpg","1","1","1","1","1","1","0.470167100022081","0.596820699982345","0.496051899972372","1","1","1","1","1","1","1","1","1"
"250056","img/neutralC/CFD-IM-664-651-N.jpg","img/neutralC/CFD-WF-222-092-N.jpg","img/neutralC/CFD-MF-305-014-N.jpg","1","1","1","1","1","1","0.496051899972372","0.470167100022081","0.455486399994697","1","1","1","1","1","1","1","1","1"
"250056","img/neutralC/CFD-MF-305-014-N.jpg","img/neutralC/CFD-IM-664-651-N.jpg","img/neutralC/CFD-LM-200-045-N.jpg","1","1","1","1","1","1","0.455486399994697","0.496051899972372","0.498017099977005","1","1","1","1","1","1","1","1","1"
"250056","img/neutralC/CFD-LM-200-045-N.jpg","img/neutralC/CFD-MF-305-014-N.jpg","img/neutralC/CFD-MF-343-001-N.jpg","1","1","1","1","1","1","0.498017099977005","0.455486399994697","0.495044200040866","1","1","1","1","1","1","1","1","1"
"250056","img/neutralC/CFD-MF-343-001-N.jpg","img/neutralC/CFD-LM-200-045-N.jpg","img/neutralC/CFD-BF-014-002-N.jpg","1","1","1","1","1","1","0.495044200040866","0.498017099977005","0.401944300043397","1","1","1","1","1","1","1","1","1"
"250056","img/neutralC/CFD-BF-014-002-N.jpg","img/neutralC/CFD-MF-343-001-N.jpg","img/neutralC/CFD-WF-244-163-N.jpg","1","1","1","1","1","1","0.401944300043397","0.495044200040866","0.566980000003241","1","1","1","1","1","1","1","1","1"
"250056","img/neutralC/CFD-WF-244-163-N.jpg","img/neutralC/CFD-BF-014-002-N.jpg","img/neutralC/CFD-MM-324-069-N.jpg","1","1","1","1","1","1","0.566980000003241","0.401944300043397","0.505799299979117","1","1","1","1","1","1","1","1","1"
"250056","img/neutralC/CFD-MM-324-069-N.jpg","img/neutralC/CFD-WF-244-163-N.jpg","img/neutralC/CFD-WM-218-074-N.jpg","1","1","1","1","1","1","0.505799299979117","0.566980000003241","0.500222500006203","1","1","1","1","1","1","1","1","1"
"250056","img/neutralC/CFD-WM-218-074-N.jpg","img/neutralC/CFD-MM-324-069-N.jpg","img/neutralC/CFD-MF-316-001-N.jpg","1","1","1","1","1","0","0.500222500006203","0.505799299979117","0.725694600027055","1","1","1","1","1","1","1","1","1"
"250056","img/neutralC/CFD-MF-316-001-N.jpg","img/neutralC/CFD-WM-218-074-N.jpg","img/neutralC/CFD-AM-220-134-N.jpg","1","1","1","0","1","0","0.725694600027055","0.500222500006203","0.573331299994607","1","1","1","1","1","1","1","1","1"
"250056","img/neutralC/CFD-AM-220-134-N.jpg","img/neutralC/CFD-MF-316-001-N.jpg","img/neutralC/CFD-WM-015-002-N.jpg","1","1","1","0","0","0","0.573331299994607","0.725694600027055","0.62806499999715","1","1","1","1","1","1","1","1","1"
"250056","img/neutralC/CFD-WM-015-002-N.jpg","img/neutralC/CFD-AM-220-134-N.jpg","img/neutralC/CFD-IM-680-369-N.jpg","1","1","1","0","0","1","0.62806499999715","0.573331299994607","0.506228999991436","1","1","1","1","1","1","1","1","1"
"250056","img/neutralC/CFD-IM-680-369-N.jpg","img/neutralC/CFD-WM-015-002-N.jpg","img/neutralC/CFD-MF-303-013-N.jpg","1","1","0","1","0","0","0.506228999991436","0.62806499999715","0.426115499984007","1","1","1","1","1","1","1","1","1"
"250056","img/neutralC/CFD-MF-303-013-N.jpg","img/neutralC/CFD-IM-680-369-N.jpg","img/neutralC/CFD-IM-706-002-N.jpg","0","1","1","0","1","0","0.426115499984007","0.506228999991436","0.535642899980303","1","1","1","1","1","1","1","1","1"
"250056","img/neutralC/CFD-IM-706-002-N.jpg","img/neutralC/CFD-MF-303-013-N.jpg","img/neutralC/CFD-WM-209-038-N.jpg","1","0","1","0","0","0","0.535642899980303","0.426115499984007","0.55184480000753","1","1","1","1","1","1","1","1","1"
"250056","img/neutralC/CFD-WM-209-038-N.jpg","img/neutralC/CFD-IM-706-002-N.jpg",NA,"1","1",NA,"0","0",NA,"0.55184480000753","0.535642899980303",NA,"1","1",NA,"1","1",NA,"1","1",NA
"250056","img/neutralC/CFD-IM-632-097-N.jpg",NA,"img/neutralC/CFD-BF-020-002-N.jpg","1",NA,"1","0",NA,"1","0.705732100002933",NA,"0.497899699956179","1",NA,"1","1",NA,"1","1",NA,"1"
"250056","img/neutralC/CFD-BF-020-002-N.jpg","img/neutralC/CFD-IM-632-097-N.jpg","img/neutralC/CFD-LF-239-148-N.jpg","1","1","1","1","0","0","0.497899699956179","0.705732100002933","0.537667399970815","1","1","1","1","1","1","1","1","1"
"250056","img/neutralC/CFD-LF-239-148-N.jpg","img/neutralC/CFD-BF-020-002-N.jpg","img/neutralC/CFD-LM-241-125-N.jpg","1","1","1","0","1","1","0.537667399970815","0.497899699956179","0.512394600023981","1","1","1","1","1","1","1","1","1"
"250056","img/neutralC/CFD-LM-241-125-N.jpg","img/neutralC/CFD-LF-239-148-N.jpg","img/neutralC/CFD-AF-244-168-N.jpg","1","1","1","1","0","0","0.512394600023981","0.537667399970815","0.58149399998365","1","1","1","1","1","1","1","1","1"
"250056","img/neutralC/CFD-AF-244-168-N.jpg","img/neutralC/CFD-LM-241-125-N.jpg","img/neutralC/CFD-AF-234-208-N.jpg","1","1","1","0","1","1","0.58149399998365","0.512394600023981","0.397801499988418","1","1","1","1","1","1","1","1","1"
"250056","img/neutralC/CFD-AF-234-208-N.jpg","img/neutralC/CFD-AF-244-168-N.jpg","img/neutralC/CFD-BF-206-143-N.jpg","1","1","1","1","0","1","0.397801499988418","0.58149399998365","0.53621380002005","1","1","1","1","1","1","1","1","1"
"250056","img/neutralC/CFD-BF-206-143-N.jpg","img/neutralC/CFD-AF-234-208-N.jpg","img/neutralC/CFD-AF-213-126-N.jpg","1","1","1","1","1","1","0.53621380002005","0.397801499988418","0.499206400010735","1","1","1","1","1","1","1","1","1"
"250056","img/neutralC/CFD-AF-213-126-N.jpg","img/neutralC/CFD-BF-206-143-N.jpg","img/neutralC/CFD-WF-235-121-N.jpg","1","1","1","1","1","0","0.499206400010735","0.53621380002005","0.644837900006678","1","1","1","1","1","1","1","1","1"
"250056","img/neutralC/CFD-WF-235-121-N.jpg","img/neutralC/CFD-AF-213-126-N.jpg","img/neutralC/CFD-BF-235-168-N.jpg","1","1","1","0","1","1","0.644837900006678","0.499206400010735","0.439618100004736","1","1","1","1","1","1","1","1","1"
"250056","img/neutralC/CFD-BF-235-168-N.jpg","img/neutralC/CFD-WF-235-121-N.jpg","img/neutralC/CFD-IF-732-260-N.jpg","1","1","0","1","0","0","0.439618100004736","0.644837900006678","0.486139699991327","1","1","1","1","1","1","1","1","1"
"250056","img/neutralC/CFD-IF-732-260-N.jpg","img/neutralC/CFD-BF-235-168-N.jpg","img/neutralC/CFD-WM-018-002-N.jpg","0","1","1","0","1","0","0.486139699991327","0.439618100004736","0.73456279997481","1","1","1","1","1","1","1","1","1"
"250056","img/neutralC/CFD-WM-018-002-N.jpg","img/neutralC/CFD-IF-732-260-N.jpg","img/neutralC/CFD-WM-253-119-N.jpg","1","0","1","0","0","1","0.73456279997481","0.486139699991327","0.509883599996101","1","1","1","1","1","1","1","1","1"
"250056","img/neutralC/CFD-WM-253-119-N.jpg","img/neutralC/CFD-WM-018-002-N.jpg","img/neutralC/CFD-IM-678-482-N.jpg","1","1","1","1","0","0","0.509883599996101","0.73456279997481","0.689794999954756","1","1","1","1","1","1","1","1","1"
"250056","img/neutralC/CFD-IM-678-482-N.jpg","img/neutralC/CFD-WM-253-119-N.jpg","img/neutralC/CFD-MF-302-027-N.jpg","1","1","1","0","1","0","0.689794999954756","0.509883599996101","0.637796199996956","1","1","1","1","1","1","1","1","1"
"250056","img/neutralC/CFD-MF-302-027-N.jpg","img/neutralC/CFD-IM-678-482-N.jpg","img/neutralC/CFD-BM-004-002-N.jpg","1","1","1","0","0","0","0.637796199996956","0.689794999954756","0.609208499954548","1","1","1","1","1","1","1","1","1"
"250056","img/neutralC/CFD-BM-004-002-N.jpg","img/neutralC/CFD-MF-302-027-N.jpg","img/neutralC/CFD-IM-669-111-N.jpg","1","1","1","0","0","1","0.609208499954548","0.637796199996956","0.513103900011629","1","1","1","1","1","1","1","1","1"
"250056","img/neutralC/CFD-IM-669-111-N.jpg","img/neutralC/CFD-BM-004-002-N.jpg","img/neutralC/CFD-AM-225-102-N.jpg","1","1","0","1","0","0","0.513103900011629","0.609208499954548","0.710400899988599","1","1","1","1","1","1","1","1","1"
"250056","img/neutralC/CFD-AM-225-102-N.jpg","img/neutralC/CFD-IM-669-111-N.jpg","img/neutralC/CFD-AM-233-236-N.jpg","0","1","1","0","1","1","0.710400899988599","0.513103900011629","0.790895200043451","1","1","1","1","1","1","1","1","1"
"250056","img/neutralC/CFD-AM-233-236-N.jpg","img/neutralC/CFD-AM-225-102-N.jpg","img/neutralC/CFD-BF-040-003-N.jpg","1","0","1","1","0","1","0.790895200043451","0.710400899988599","0.548833000008017","1","1","1","1","1","1","1","1","1"
"250056","img/neutralC/CFD-BF-040-003-N.jpg","img/neutralC/CFD-AM-233-236-N.jpg","img/neutralC/CFD-AF-205-155-N.jpg","1","1","1","1","1","0","0.548833000008017","0.790895200043451","0.919241100025829","1","1","1","1","1","1","1","1","1"
"250056","img/neutralC/CFD-AF-205-155-N.jpg","img/neutralC/CFD-BF-040-003-N.jpg","img/neutralC/CFD-AF-246-242-N.jpg","1","1","1","0","1","0","0.919241100025829","0.548833000008017","0.636554100026842","1","1","1","1","1","1","1","1","1"
"250056","img/neutralC/CFD-AF-246-242-N.jpg","img/neutralC/CFD-AF-205-155-N.jpg","img/neutralC/CFD-MF-307-002-N.jpg","1","1","1","0","0","1","0.636554100026842","0.919241100025829","0.487742699973751","1","1","1","1","1","1","1","1","1"
"250056","img/neutralC/CFD-MF-307-002-N.jpg","img/neutralC/CFD-AF-246-242-N.jpg","img/neutralC/CFD-IM-635-010-N.jpg","1","1","1","1","0","1","0.487742699973751","0.636554100026842","0.544723799976055","1","1","1","1","1","1","1","1","1"
"250056","img/neutralC/CFD-IM-635-010-N.jpg","img/neutralC/CFD-MF-307-002-N.jpg","img/neutralC/CFD-BM-215-155-N.jpg","1","1","1","1","1","0","0.544723799976055","0.487742699973751","0.63216109998757","1","1","1","1","1","1","1","1","1"
"250056","img/neutralC/CFD-BM-215-155-N.jpg","img/neutralC/CFD-IM-635-010-N.jpg","img/neutralC/CFD-AM-245-111-N.jpg","1","1","1","0","1","1","0.63216109998757","0.544723799976055","0.606984499958344","1","1","1","1","1","1","1","1","1"
"250056","img/neutralC/CFD-AM-245-111-N.jpg","img/neutralC/CFD-BM-215-155-N.jpg","img/neutralC/CFD-IF-636-011-N.jpg","1","1","1","1","0","1","0.606984499958344","0.63216109998757","0.615910599997733","1","1","1","1","1","1","1","1","1"
"250056","img/neutralC/CFD-IF-636-011-N.jpg","img/neutralC/CFD-AM-245-111-N.jpg","img/neutralC/CFD-BF-042-026-N.jpg","1","1","1","1","1","1","0.615910599997733","0.606984499958344","0.52660460001789","1","1","1","1","1","1","1","1","1"
"250056","img/neutralC/CFD-BF-042-026-N.jpg","img/neutralC/CFD-IF-636-011-N.jpg","img/neutralC/CFD-AF-250-200-N.jpg","1","1","1","1","1","1","0.52660460001789","0.615910599997733","0.490315000002738","1","1","1","1","1","1","1","1","1"
"250056","img/neutralC/CFD-AF-250-200-N.jpg","img/neutralC/CFD-BF-042-026-N.jpg","img/neutralC/CFD-BF-217-189-N.jpg","1","1","1","1","1","0","0.490315000002738","0.52660460001789","0.603235399990808","1","1","1","1","1","1","1","1","1"
"250056","img/neutralC/CFD-BF-217-189-N.jpg","img/neutralC/CFD-AF-250-200-N.jpg","img/neutralC/CFD-WF-210-086-N.jpg","1","1","1","0","1","0","0.603235399990808","0.490315000002738","0.544353100005537","1","1","1","1","1","1","1","1","1"
"250056","img/neutralC/CFD-WF-210-086-N.jpg","img/neutralC/CFD-BF-217-189-N.jpg","img/neutralC/CFD-LM-204-001-N.jpg","1","1","1","0","0","0","0.544353100005537","0.603235399990808","0.489393699972425","1","1","1","1","1","1","1","1","1"
"250056","img/neutralC/CFD-LM-204-001-N.jpg","img/neutralC/CFD-WF-210-086-N.jpg",NA,"1","1",NA,"0","0",NA,"0.489393699972425","0.544353100005537",NA,"1","1",NA,"1","1",NA,"1","1",NA
"250056","img/neutralC/CFD-WM-232-070-N.jpg",NA,"img/neutralC/CFD-BF-224-002-N.jpg","1",NA,"1","0",NA,"1","0.768547200015746",NA,"0.509464300004765","1",NA,"1","1",NA,"1","1",NA,"1"
"250056","img/neutralC/CFD-BF-224-002-N.jpg","img/neutralC/CFD-WM-232-070-N.jpg","img/neutralC/CFD-AF-215-70-N.jpg","1","1","1","1","0","0","0.509464300004765","0.768547200015746","0.448871100030374","1","1","1","1","1","1","1","1","1"
"250056","img/neutralC/CFD-AF-215-70-N.jpg","img/neutralC/CFD-BF-224-002-N.jpg","img/neutralC/CFD-LM-217-162-N.jpg","1","1","0","0","1","0","0.448871100030374","0.509464300004765","0.471664000011515","1","1","1","1","1","1","1","1","1"
"250056","img/neutralC/CFD-LM-217-162-N.jpg","img/neutralC/CFD-AF-215-70-N.jpg","img/neutralC/CFD-LF-201-035-N.jpg","0","1","1","0","0","1","0.471664000011515","0.448871100030374","0.478798699972685","1","1","1","1","1","1","1","1","1"
"250056","img/neutralC/CFD-LF-201-035-N.jpg","img/neutralC/CFD-LM-217-162-N.jpg","img/neutralC/CFD-AF-254-167-N.jpg","1","0","1","1","0","1","0.478798699972685","0.471664000011515","0.539381499984302","1","1","1","1","1","1","1","1","1"
"250056","img/neutralC/CFD-AF-254-167-N.jpg","img/neutralC/CFD-LF-201-035-N.jpg","img/neutralC/CFD-LF-226-174-N.jpg","1","1","1","1","1","0","0.539381499984302","0.478798699972685","0.595060200022999","1","1","1","1","1","1","1","1","1"
"250056","img/neutralC/CFD-LF-226-174-N.jpg","img/neutralC/CFD-AF-254-167-N.jpg","img/neutralC/CFD-WF-008-002-N.jpg","1","1","1","0","1","1","0.595060200022999","0.539381499984302","0.504768699989654","1","1","1","1","1","1","1","1","1"
"250056","img/neutralC/CFD-WF-008-002-N.jpg","img/neutralC/CFD-LF-226-174-N.jpg","img/neutralC/CFD-IM-604-014-N.jpg","1","1","1","1","0","0","0.504768699989654","0.595060200022999","0.473039699951187","1","1","1","1","1","1","1","1","1"
"250056","img/neutralC/CFD-IM-604-014-N.jpg","img/neutralC/CFD-WF-008-002-N.jpg","img/neutralC/CFD-IM-675-015-N.jpg","1","1","1","0","1","1","0.473039699951187","0.504768699989654","0.603605500014964","1","1","1","1","1","1","1","1","1"
"250056","img/neutralC/CFD-IM-675-015-N.jpg","img/neutralC/CFD-IM-604-014-N.jpg","img/neutralC/CFD-BM-039-029-N.jpg","1","1","1","1","0","1","0.603605500014964","0.473039699951187","0.513342199963517","1","1","1","1","1","1","1","1","1"
"250056","img/neutralC/CFD-BM-039-029-N.jpg","img/neutralC/CFD-IM-675-015-N.jpg","img/neutralC/CFD-IM-685-004-N.jpg","1","1","1","1","1","1","0.513342199963517","0.603605500014964","0.532480199995916","1","1","1","1","1","1","1","1","1"
"250056","img/neutralC/CFD-IM-685-004-N.jpg","img/neutralC/CFD-BM-039-029-N.jpg","img/neutralC/CFD-IF-619-197-N.jpg","1","1","1","1","1","0","0.532480199995916","0.513342199963517","0.63060689996928","1","1","1","1","1","1","1","1","1"
"250056","img/neutralC/CFD-IF-619-197-N.jpg","img/neutralC/CFD-IM-685-004-N.jpg","img/neutralC/CFD-BF-043-003-N.jpg","1","1","1","0","1","0","0.63060689996928","0.532480199995916","0.694333299994469","1","1","1","1","1","1","1","1","1"
"250056","img/neutralC/CFD-BF-043-003-N.jpg","img/neutralC/CFD-IF-619-197-N.jpg","img/neutralC/CFD-AF-229-160-N.jpg","1","1","0","0","0","0","0.694333299994469","0.63060689996928","0.638366799976211","1","1","1","1","1","1","1","1","1"
"250056","img/neutralC/CFD-AF-229-160-N.jpg","img/neutralC/CFD-BF-043-003-N.jpg","img/neutralC/CFD-MF-327-002-N.jpg","0","1","1","0","0","0","0.638366799976211","0.694333299994469","0.68815539998468","1","1","1","1","1","1","1","1","1"
"250056","img/neutralC/CFD-MF-327-002-N.jpg","img/neutralC/CFD-AF-229-160-N.jpg","img/neutralC/CFD-AM-236-090-N.jpg","1","0","1","0","0","1","0.68815539998468","0.638366799976211","0.464985300030094","1","1","1","1","1","1","1","1","1"
"250056","img/neutralC/CFD-AM-236-090-N.jpg","img/neutralC/CFD-MF-327-002-N.jpg","img/neutralC/CFD-MM-304-002-N.jpg","1","1","1","1","0","1","0.464985300030094","0.68815539998468","0.454644899989944","1","1","1","1","1","1","1","1","1"
"250056","img/neutralC/CFD-MM-304-002-N.jpg","img/neutralC/CFD-AM-236-090-N.jpg","img/neutralC/CFD-WM-024-015-N.jpg","1","1","1","1","1","1","0.454644899989944","0.464985300030094","0.479374999995343","1","1","1","1","1","1","1","1","1"
"250056","img/neutralC/CFD-WM-024-015-N.jpg","img/neutralC/CFD-MM-304-002-N.jpg","img/neutralC/CFD-IM-637-007-N.jpg","1","1","1","1","1","0","0.479374999995343","0.454644899989944","0.611934099986684","1","1","1","1","1","1","1","1","1"
"250056","img/neutralC/CFD-IM-637-007-N.jpg","img/neutralC/CFD-WM-024-015-N.jpg","img/neutralC/CFD-WF-217-085-N.jpg","1","1","1","0","1","1","0.611934099986684","0.479374999995343","0.530811500037089","1","1","1","1","1","1","1","1","1"
"250056","img/neutralC/CFD-WF-217-085-N.jpg","img/neutralC/CFD-IM-637-007-N.jpg","img/neutralC/CFD-MF-300-002-N.jpg","1","1","1","1","0","0","0.530811500037089","0.611934099986684","0.733590999967419","1","1","1","1","1","1","1","1","1"
"250056","img/neutralC/CFD-MF-300-002-N.jpg","img/neutralC/CFD-WF-217-085-N.jpg","img/neutralC/CFD-IM-709-103-N.jpg","1","1","1","0","1","0","0.733590999967419","0.530811500037089","0.666208099981304","1","1","1","1","1","1","1","1","1"
"250056","img/neutralC/CFD-IM-709-103-N.jpg","img/neutralC/CFD-MF-300-002-N.jpg","img/neutralC/CFD-WM-213-076-N.jpg","1","1","1","0","0","1","0.666208099981304","0.733590999967419","0.449586400005501","1","1","1","1","1","1","1","1","1"
"250056","img/neutralC/CFD-WM-213-076-N.jpg","img/neutralC/CFD-IM-709-103-N.jpg","img/neutralC/CFD-MF-329-001-N.jpg","1","1","1","1","0","0","0.449586400005501","0.666208099981304","0.715148599992972","1","1","1","1","1","1","1","1","1"
"250056","img/neutralC/CFD-MF-329-001-N.jpg","img/neutralC/CFD-WM-213-076-N.jpg","img/neutralC/CFD-WF-248-129-N.jpg","1","1","1","0","1","0","0.715148599992972","0.449586400005501","0.607160000014119","1","1","1","1","1","1","1","1","1"
"250056","img/neutralC/CFD-WF-248-129-N.jpg","img/neutralC/CFD-MF-329-001-N.jpg","img/neutralC/CFD-MF-340-026-N.jpg","1","1","1","0","0","1","0.607160000014119","0.715148599992972","0.793193500023335","1","1","1","1","1","1","1","1","1"
"250056","img/neutralC/CFD-MF-340-026-N.jpg","img/neutralC/CFD-WF-248-129-N.jpg","img/neutralC/CFD-IF-608-390-N.jpg","1","1","1","1","0","1","0.793193500023335","0.607160000014119","0.572690600005444","1","1","1","1","1","1","1","1","1"
"250056","img/neutralC/CFD-IF-608-390-N.jpg","img/neutralC/CFD-MF-340-026-N.jpg","img/neutralC/CFD-BF-051-035-N.jpg","1","1","1","1","1","0","0.572690600005444","0.793193500023335","1.44480270001804","1","1","1","1","1","1","1","1","1"
"250056","img/neutralC/CFD-BF-051-035-N.jpg","img/neutralC/CFD-IF-608-390-N.jpg","img/neutralC/CFD-WF-212-050-N.jpg","1","1","1","0","1","0","1.44480270001804","0.572690600005444","0.518981500004884","1","1","1","1","1","1","1","1","1"
"250056","img/neutralC/CFD-WF-212-050-N.jpg","img/neutralC/CFD-BF-051-035-N.jpg","img/neutralC/CFD-BM-243-218-N.jpg","1","1","1","0","0","1","0.518981500004884","1.44480270001804","0.49805130000459","1","1","1","1","1","1","1","1","1"
"250056","img/neutralC/CFD-BM-243-218-N.jpg","img/neutralC/CFD-WF-212-050-N.jpg","img/neutralC/CFD-WF-012-002-N.jpg","1","1","1","1","0","1","0.49805130000459","0.518981500004884","0.613305900013074","1","1","1","1","1","1","1","1","1"
"250056","img/neutralC/CFD-WF-012-002-N.jpg","img/neutralC/CFD-BM-243-218-N.jpg",NA,"1","1",NA,"1","1",NA,"0.613305900013074","0.49805130000459",NA,"1","1",NA,"1","1",NA,"1","1",NA
"250056","img/neutralC/CFD-WM-021-001-N.jpg",NA,"img/neutralC/CFD-LF-205-100-N.jpg","1",NA,"1","1",NA,"1","0.551034900010563",NA,"0.415624600020237","1",NA,"1","1",NA,"1","1",NA,"1"
"250056","img/neutralC/CFD-LF-205-100-N.jpg","img/neutralC/CFD-WM-021-001-N.jpg","img/neutralC/CFD-LF-214-090-N.jpg","1","1","0","1","1","0","0.415624600020237","0.551034900010563","0.392931699985638","1","1","1","1","1","1","1","1","1"
"250056","img/neutralC/CFD-LF-214-090-N.jpg","img/neutralC/CFD-LF-205-100-N.jpg","img/neutralC/CFD-BM-033-003-N.jpg","0","1","1","0","1","0","0.392931699985638","0.415624600020237","0.644538399996236","1","1","1","1","1","1","1","1","1"
"250056","img/neutralC/CFD-BM-033-003-N.jpg","img/neutralC/CFD-LF-214-090-N.jpg","img/neutralC/CFD-BM-041-035-N.jpg","1","0","1","0","0","0","0.644538399996236","0.392931699985638","0.512391600001138","1","1","1","1","1","1","1","1","1"
"250056","img/neutralC/CFD-BM-041-035-N.jpg","img/neutralC/CFD-BM-033-003-N.jpg","img/neutralC/CFD-IM-684-008-N.jpg","1","1","1","0","0","1","0.512391600001138","0.644538399996236","0.434178099967539","1","1","1","1","1","1","1","1","1"
"250056","img/neutralC/CFD-IM-684-008-N.jpg","img/neutralC/CFD-BM-041-035-N.jpg","img/neutralC/CFD-WF-213-031-N.jpg","1","1","1","1","0","1","0.434178099967539","0.512391600001138","0.464175200031605","1","1","1","1","1","1","1","1","1"
"250056","img/neutralC/CFD-WF-213-031-N.jpg","img/neutralC/CFD-IM-684-008-N.jpg","img/neutralC/CFD-AF-231-357-N.jpg","1","1","1","1","1","1","0.464175200031605","0.434178099967539","0.479969499981962","1","1","1","1","1","1","1","1","1"
"250056","img/neutralC/CFD-AF-231-357-N.jpg","img/neutralC/CFD-WF-213-031-N.jpg","img/neutralC/CFD-LF-203-066-N.jpg","1","1","1","1","1","0","0.479969499981962","0.464175200031605","0.594075700035319","1","1","1","1","1","1","1","1","1"
"250056","img/neutralC/CFD-LF-203-066-N.jpg","img/neutralC/CFD-AF-231-357-N.jpg","img/neutralC/CFD-IF-710-016-N.jpg","1","1","1","0","1","0","0.594075700035319","0.479969499981962","0.609653899969999","1","1","1","1","1","1","1","1","1"
"250056","img/neutralC/CFD-IF-710-016-N.jpg","img/neutralC/CFD-LF-203-066-N.jpg","img/neutralC/CFD-LF-230-203-N.jpg","1","1","1","0","0","0","0.609653899969999","0.594075700035319","0.586364899994805","1","1","1","1","1","1","1","1","1"
"250056","img/neutralC/CFD-LF-230-203-N.jpg","img/neutralC/CFD-IF-710-016-N.jpg","img/neutralC/CFD-IF-634-382-N.jpg","1","1","1","0","0","1","0.586364899994805","0.609653899969999","0.507920400006697","1","1","1","1","1","1","1","1","1"
"250056","img/neutralC/CFD-IF-634-382-N.jpg","img/neutralC/CFD-LF-230-203-N.jpg","img/neutralC/CFD-BF-205-141-N.jpg","1","1","0","1","0","0","0.507920400006697","0.586364899994805","0.774583400052506","1","1","1","1","1","1","1","1","1"
"250056","img/neutralC/CFD-BF-205-141-N.jpg","img/neutralC/CFD-IF-634-382-N.jpg","img/neutralC/CFD-WF-224-099-N.jpg","0","1","1","0","1","0","0.774583400052506","0.507920400006697","0.704040299984626","1","1","1","1","1","1","1","1","1"
"250056","img/neutralC/CFD-WF-224-099-N.jpg","img/neutralC/CFD-BF-205-141-N.jpg","img/neutralC/CFD-BM-019-002-N.jpg","1","0","1","0","0","0","0.704040299984626","0.774583400052506","0.827860100020189","1","1","1","1","1","1","1","1","1"
"250056","img/neutralC/CFD-BM-019-002-N.jpg","img/neutralC/CFD-WF-224-099-N.jpg","img/neutralC/CFD-WF-250-167-N.jpg","1","1","1","0","0","1","0.827860100020189","0.704040299984626","0.524050200008787","1","1","1","1","1","1","1","1","1"
"250056","img/neutralC/CFD-WF-250-167-N.jpg","img/neutralC/CFD-BM-019-002-N.jpg","img/neutralC/CFD-BF-039-031-N.jpg","1","1","1","1","0","1","0.524050200008787","0.827860100020189","0.621246700000484","1","1","1","1","1","1","1","1","1"
"250056","img/neutralC/CFD-BF-039-031-N.jpg","img/neutralC/CFD-WF-250-167-N.jpg","img/neutralC/CFD-BF-213-188-N.jpg","1","1","1","1","1","1","0.621246700000484","0.524050200008787","0.572350199974608","1","1","1","1","1","1","1","1","1"
"250056","img/neutralC/CFD-BF-213-188-N.jpg","img/neutralC/CFD-BF-039-031-N.jpg","img/neutralC/CFD-IM-651-308-N.jpg","1","1","1","1","1","0","0.572350199974608","0.621246700000484","0.778277400007937","1","1","1","1","1","1","1","1","1"
"250056","img/neutralC/CFD-IM-651-308-N.jpg","img/neutralC/CFD-BF-213-188-N.jpg","img/neutralC/CFD-LM-218-183-N.jpg","1","1","1","0","1","1","0.778277400007937","0.572350199974608","0.672863000014331","1","1","1","1","1","1","1","1","1"
"250056","img/neutralC/CFD-LM-218-183-N.jpg","img/neutralC/CFD-IM-651-308-N.jpg","img/neutralC/CFD-WM-011-002-N.jpg","1","1","1","1","0","0","0.672863000014331","0.778277400007937","0.595168499974534","1","1","1","1","1","1","1","1","1"
"250056","img/neutralC/CFD-WM-011-002-N.jpg","img/neutralC/CFD-LM-218-183-N.jpg","img/neutralC/CFD-LF-224-176-N.jpg","1","1","1","0","1","0","0.595168499974534","0.672863000014331","0.592608799983282","1","1","1","1","1","1","1","1","1"
"250056","img/neutralC/CFD-LF-224-176-N.jpg","img/neutralC/CFD-WM-011-002-N.jpg","img/neutralC/CFD-WM-041-021-N.jpg","1","1","1","0","0","0","0.592608799983282","0.595168499974534","0.556699700013269","1","1","1","1","1","1","1","1","1"
"250056","img/neutralC/CFD-WM-041-021-N.jpg","img/neutralC/CFD-LF-224-176-N.jpg","img/neutralC/CFD-AM-212-050-N.jpg","1","1","1","0","0","1","0.556699700013269","0.592608799983282","0.572182000032626","1","1","1","1","1","1","1","1","1"
"250056","img/neutralC/CFD-AM-212-050-N.jpg","img/neutralC/CFD-WM-041-021-N.jpg","img/neutralC/CFD-MM-316-156-N.jpg","1","1","1","1","0","1","0.572182000032626","0.556699700013269","0.54261999996379","1","1","1","1","1","1","1","1","1"
"250056","img/neutralC/CFD-MM-316-156-N.jpg","img/neutralC/CFD-AM-212-050-N.jpg","img/neutralC/CFD-IF-693-172-N.jpg","1","1","1","1","1","0","0.54261999996379","0.572182000032626","0.625985099992249","1","1","1","1","1","1","1","1","1"
"250056","img/neutralC/CFD-IF-693-172-N.jpg","img/neutralC/CFD-MM-316-156-N.jpg","img/neutralC/CFD-BM-239-136-N.jpg","1","1","1","0","1","1","0.625985099992249","0.54261999996379","0.488366600009613","1","1","1","1","1","1","1","1","1"
"250056","img/neutralC/CFD-BM-239-136-N.jpg","img/neutralC/CFD-IF-693-172-N.jpg","img/neutralC/CFD-AM-201-076-N.jpg","1","1","1","1","0","1","0.488366600009613","0.625985099992249","0.560416700027417","1","1","1","1","1","1","1","1","1"
"250056","img/neutralC/CFD-AM-201-076-N.jpg","img/neutralC/CFD-BM-239-136-N.jpg","img/neutralC/CFD-BF-253-202-N.jpg","1","1","1","1","1","0","0.560416700027417","0.488366600009613","0.481555500009563","1","1","1","1","1","1","1","1","1"
"250056","img/neutralC/CFD-BF-253-202-N.jpg","img/neutralC/CFD-AM-201-076-N.jpg","img/neutralC/CFD-MF-337-026-N.jpg","1","1","1","0","1","1","0.481555500009563","0.560416700027417","0.397432000027038","1","1","1","1","1","1","1","1","1"
"250056","img/neutralC/CFD-MF-337-026-N.jpg","img/neutralC/CFD-BF-253-202-N.jpg","img/neutralC/CFD-LM-215-247-N.jpg","1","1","1","1","0","0","0.397432000027038","0.481555500009563","0.607467400026508","1","1","1","1","1","1","1","1","1"
"250056","img/neutralC/CFD-LM-215-247-N.jpg","img/neutralC/CFD-MF-337-026-N.jpg","img/neutralC/CFD-BF-029-031-N.jpg","1","1","1","0","1","1","0.607467400026508","0.397432000027038","0.48933810001472","1","1","1","1","1","1","1","1","1"
"250056","img/neutralC/CFD-BF-029-031-N.jpg","img/neutralC/CFD-LM-215-247-N.jpg",NA,"1","1",NA,"1","0",NA,"0.48933810001472","0.607467400026508",NA,"1","1",NA,"1","1",NA,"1","1",NA
"250056","img/neutralC/CFD-WM-017-002-N.jpg",NA,"img/neutralC/CFD-BF-010-001-N.jpg","1",NA,"1","0",NA,"1","0.516627000004519",NA,"0.654933299985714","1",NA,"1","1",NA,"1","1",NA,"1"
"250056","img/neutralC/CFD-BF-010-001-N.jpg","img/neutralC/CFD-WM-017-002-N.jpg","img/neutralC/CFD-LM-219-295-N.jpg","1","1","1","1","0","1","0.654933299985714","0.516627000004519","0.729437800007872","1","1","1","1","1","1","1","1","1"
"250056","img/neutralC/CFD-LM-219-295-N.jpg","img/neutralC/CFD-BF-010-001-N.jpg","img/neutralC/CFD-WF-209-052-N.jpg","1","1","1","1","1","1","0.729437800007872","0.654933299985714","0.433715200051665","1","1","1","1","1","1","1","1","1"
"250056","img/neutralC/CFD-WF-209-052-N.jpg","img/neutralC/CFD-LM-219-295-N.jpg","img/neutralC/CFD-BM-026-002-N.jpg","1","1","1","1","1","0","0.433715200051665","0.729437800007872","0.554066299984697","1","1","1","1","1","1","1","1","1"
"250056","img/neutralC/CFD-BM-026-002-N.jpg","img/neutralC/CFD-WF-209-052-N.jpg","img/neutralC/CFD-BM-018-001-N.jpg","1","1","1","0","1","1","0.554066299984697","0.433715200051665","0.505108900018968","1","1","1","1","1","1","1","1","1"
"250056","img/neutralC/CFD-BM-018-001-N.jpg","img/neutralC/CFD-BM-026-002-N.jpg","img/neutralC/CFD-WM-242-011-N.jpg","1","1","1","1","0","0","0.505108900018968","0.554066299984697","0.63730330002727","1","1","1","1","1","1","1","1","1"
"250056","img/neutralC/CFD-WM-242-011-N.jpg","img/neutralC/CFD-BM-018-001-N.jpg","img/neutralC/CFD-WM-227-099-N.jpg","1","1","1","0","1","1","0.63730330002727","0.505108900018968","0.52939800004242","1","1","1","1","1","1","1","1","1"
"250056","img/neutralC/CFD-WM-227-099-N.jpg","img/neutralC/CFD-WM-242-011-N.jpg","img/neutralC/CFD-LF-242-121-N.jpg","1","1","1","1","0","0","0.52939800004242","0.63730330002727","0.672926699975505","1","1","1","1","1","1","1","1","1"
"250056","img/neutralC/CFD-LF-242-121-N.jpg","img/neutralC/CFD-WM-227-099-N.jpg","img/neutralC/CFD-IM-638-250-1-N.jpg","1","1","1","0","1","1","0.672926699975505","0.52939800004242","0.51988400000846","1","1","1","1","1","1","1","1","1"
"250056","img/neutralC/CFD-IM-638-250-1-N.jpg","img/neutralC/CFD-LF-242-121-N.jpg","img/neutralC/CFD-IF-665-015-N.jpg","1","1","1","1","0","0","0.51988400000846","0.672926699975505","0.616077399987262","1","1","1","1","1","1","1","1","1"
"250056","img/neutralC/CFD-IF-665-015-N.jpg","img/neutralC/CFD-IM-638-250-1-N.jpg","img/neutralC/CFD-IM-686-097-N.jpg","1","1","1","0","1","0","0.616077399987262","0.51988400000846","0.781427100009751","1","1","1","1","1","1","1","1","1"
"250056","img/neutralC/CFD-IM-686-097-N.jpg","img/neutralC/CFD-IF-665-015-N.jpg","img/neutralC/CFD-AF-206-079-N.jpg","1","1","1","0","0","1","0.781427100009751","0.616077399987262","0.770940300018992","1","1","1","1","1","1","1","1","1"
"250056","img/neutralC/CFD-AF-206-079-N.jpg","img/neutralC/CFD-IM-686-097-N.jpg","img/neutralC/CFD-LF-247-051-N.jpg","1","1","1","1","0","1","0.770940300018992","0.781427100009751","0.5651015000185","1","1","1","1","1","1","1","1","1"
"250056","img/neutralC/CFD-LF-247-051-N.jpg","img/neutralC/CFD-AF-206-079-N.jpg","img/neutralC/CFD-IM-727-195-N.jpg","1","1","1","1","1","1","0.5651015000185","0.770940300018992","0.638576099998318","1","1","1","1","1","1","1","1","1"
"250056","img/neutralC/CFD-IM-727-195-N.jpg","img/neutralC/CFD-LF-247-051-N.jpg","img/neutralC/CFD-IM-617-174-N.jpg","1","1","1","1","1","0","0.638576099998318","0.5651015000185","1.01983539998764","1","1","1","1","1","1","1","1","1"
"250056","img/neutralC/CFD-IM-617-174-N.jpg","img/neutralC/CFD-IM-727-195-N.jpg","img/neutralC/CFD-AF-202-122-N.jpg","1","1","1","0","1","1","1.01983539998764","0.638576099998318","0.530652499990538","1","1","1","1","1","1","1","1","1"
"250056","img/neutralC/CFD-AF-202-122-N.jpg","img/neutralC/CFD-IM-617-174-N.jpg","img/neutralC/CFD-IF-620-218-N.jpg","1","1","1","1","0","0","0.530652499990538","1.01983539998764","0.707724700041581","1","1","1","1","1","1","1","1","1"
"250056","img/neutralC/CFD-IF-620-218-N.jpg","img/neutralC/CFD-AF-202-122-N.jpg","img/neutralC/CFD-BM-005-003-N.jpg","1","1","1","0","1","1","0.707724700041581","0.530652499990538","0.5464331000112","1","1","1","1","1","1","1","1","1"
"250056","img/neutralC/CFD-BM-005-003-N.jpg","img/neutralC/CFD-IF-620-218-N.jpg","img/neutralC/CFD-LF-250-169-N.jpg","1","1","1","1","0","1","0.5464331000112","0.707724700041581","0.460957099974621","1","1","1","1","1","1","1","1","1"
"250056","img/neutralC/CFD-LF-250-169-N.jpg","img/neutralC/CFD-BM-005-003-N.jpg","img/neutralC/CFD-WM-258-125-N.jpg","1","1","1","1","1","0","0.460957099974621","0.5464331000112","0.638952200009953","1","1","1","1","1","1","1","1","1"
"250056","img/neutralC/CFD-WM-258-125-N.jpg","img/neutralC/CFD-LF-250-169-N.jpg","img/neutralC/CFD-IM-653-008-N.jpg","1","1","1","0","1","0","0.638952200009953","0.460957099974621","0.655320599966217","1","1","1","1","1","1","1","1","1"
"250056","img/neutralC/CFD-IM-653-008-N.jpg","img/neutralC/CFD-WM-258-125-N.jpg","img/neutralC/CFD-BF-033-028-N.jpg","1","1","1","0","0","0","0.655320599966217","0.638952200009953","1.19103159999941","1","1","1","1","1","1","1","1","1"
"250056","img/neutralC/CFD-BF-033-028-N.jpg","img/neutralC/CFD-IM-653-008-N.jpg","img/neutralC/CFD-LM-226-175-N.jpg","1","1","1","0","0","0","1.19103159999941","0.655320599966217","0.698128500021994","1","1","1","1","1","1","1","1","1"
"250056","img/neutralC/CFD-LM-226-175-N.jpg","img/neutralC/CFD-BF-033-028-N.jpg","img/neutralC/CFD-AF-241-141-N.jpg","1","1","1","0","0","1","0.698128500021994","1.19103159999941","0.726852400053758","1","1","1","1","1","1","1","1","1"
"250056","img/neutralC/CFD-AF-241-141-N.jpg","img/neutralC/CFD-LM-226-175-N.jpg","img/neutralC/CFD-LM-233-171-N.jpg","1","1","1","1","0","0","0.726852400053758","0.698128500021994","0.670900599972811","1","1","1","1","1","1","1","1","1"
"250056","img/neutralC/CFD-LM-233-171-N.jpg","img/neutralC/CFD-AF-241-141-N.jpg","img/neutralC/CFD-IM-657-308-N.jpg","1","1","1","0","1","0","0.670900599972811","0.726852400053758","0.96979610004928","1","1","1","1","1","1","1","1","1"
"250056","img/neutralC/CFD-IM-657-308-N.jpg","img/neutralC/CFD-LM-233-171-N.jpg","img/neutralC/CFD-LF-245-166-N.jpg","1","1","1","0","0","1","0.96979610004928","0.670900599972811","0.543602799996734","1","1","1","1","1","1","1","1","1"
"250056","img/neutralC/CFD-LF-245-166-N.jpg","img/neutralC/CFD-IM-657-308-N.jpg","img/neutralC/CFD-BF-238-190-N.jpg","1","1","1","1","0","1","0.543602799996734","0.96979610004928","0.522688400000334","1","1","1","1","1","1","1","1","1"
"250056","img/neutralC/CFD-BF-238-190-N.jpg","img/neutralC/CFD-LF-245-166-N.jpg","img/neutralC/CFD-MF-313-002-N.jpg","1","1","1","1","1","0","0.522688400000334","0.543602799996734","0.728233300033025","1","1","1","1","1","1","1","1","1"
"250056","img/neutralC/CFD-MF-313-002-N.jpg","img/neutralC/CFD-BF-238-190-N.jpg","img/neutralC/CFD-BM-212-117-N.jpg","1","1","0","0","1","0","0.728233300033025","0.522688400000334","0.809725500002969","1","1","1","1","1","1","1","1","1"
"250056","img/neutralC/CFD-BM-212-117-N.jpg","img/neutralC/CFD-MF-313-002-N.jpg","img/neutralC/CFD-BM-231-155-N.jpg","0","1","1","0","0","1","0.809725500002969","0.728233300033025","0.66577540000435","1","1","1","1","1","1","1","1","1"
"250056","img/neutralC/CFD-BM-231-155-N.jpg","img/neutralC/CFD-BM-212-117-N.jpg",NA,"1","0",NA,"1","0",NA,"0.66577540000435","0.809725500002969",NA,"1","1",NA,"1","1",NA,"1","1",NA
"250056","img/neutralC/CFD-IM-689-263-N.jpg",NA,"img/neutralC/CFD-WF-207-014-N.jpg","1",NA,"1","1",NA,"1","0.518740300030913",NA,"0.462660300021525","1",NA,"1","1",NA,"1","1",NA,"1"
"250056","img/neutralC/CFD-WF-207-014-N.jpg","img/neutralC/CFD-IM-689-263-N.jpg","img/neutralC/CFD-LF-222-147-N.jpg","1","1","1","1","1","0","0.462660300021525","0.518740300030913","0.530971799977124","1","1","1","1","1","1","1","1","1"
"250056","img/neutralC/CFD-LF-222-147-N.jpg","img/neutralC/CFD-WF-207-014-N.jpg","img/neutralC/CFD-WF-241-210-N.jpg","1","1","1","0","1","0","0.530971799977124","0.462660300021525","0.603703400003724","1","1","1","1","1","1","1","1","1"
"250056","img/neutralC/CFD-WF-241-210-N.jpg","img/neutralC/CFD-LF-222-147-N.jpg","img/neutralC/CFD-IM-697-015-N.jpg","1","1","1","0","0","1","0.603703400003724","0.530971799977124","0.547547599999234","1","1","1","1","1","1","1","1","1"
"250056","img/neutralC/CFD-IM-697-015-N.jpg","img/neutralC/CFD-WF-241-210-N.jpg","img/neutralC/CFD-BF-012-001-N.jpg","1","1","1","1","0","0","0.547547599999234","0.603703400003724","0.578292499994859","1","1","1","1","1","1","1","1","1"
"250056","img/neutralC/CFD-BF-012-001-N.jpg","img/neutralC/CFD-IM-697-015-N.jpg","img/neutralC/CFD-IF-676-017-N.jpg","1","1","1","0","1","1","0.578292499994859","0.547547599999234","0.454615499998908","1","1","1","1","1","1","1","1","1"
"250056","img/neutralC/CFD-IF-676-017-N.jpg","img/neutralC/CFD-BF-012-001-N.jpg","img/neutralC/CFD-WF-243-148-N.jpg","1","1","1","1","0","0","0.454615499998908","0.578292499994859","0.6697594000143","1","1","1","1","1","1","1","1","1"
"250056","img/neutralC/CFD-WF-243-148-N.jpg","img/neutralC/CFD-IF-676-017-N.jpg","img/neutralC/CFD-AF-237-223-N.jpg","1","1","1","0","1","0","0.6697594000143","0.454615499998908","0.53301370004192","1","1","1","1","1","1","1","1","1"
"250056","img/neutralC/CFD-AF-237-223-N.jpg","img/neutralC/CFD-WF-243-148-N.jpg","img/neutralC/CFD-MF-328-020-N.jpg","1","1","1","0","0","0","0.53301370004192","0.6697594000143","0.584306400036439","1","1","1","1","1","1","1","1","1"
"250056","img/neutralC/CFD-MF-328-020-N.jpg","img/neutralC/CFD-AF-237-223-N.jpg","img/neutralC/CFD-AM-205-153-N.jpg","1","1","1","0","0","1","0.584306400036439","0.53301370004192","0.550951100012753","1","1","1","1","1","1","1","1","1"
"250056","img/neutralC/CFD-AM-205-153-N.jpg","img/neutralC/CFD-MF-328-020-N.jpg","img/neutralC/CFD-WF-221-005-N.jpg","1","1","1","1","0","0","0.550951100012753","0.584306400036439","0.609838800039142","1","1","1","1","1","1","1","1","1"
"250056","img/neutralC/CFD-WF-221-005-N.jpg","img/neutralC/CFD-AM-205-153-N.jpg","img/neutralC/CFD-MM-306-010-N.jpg","1","1","1","0","1","0","0.609838800039142","0.550951100012753","0.693594500015024","1","1","1","1","1","1","1","1","1"
"250056","img/neutralC/CFD-MM-306-010-N.jpg","img/neutralC/CFD-WF-221-005-N.jpg","img/neutralC/CFD-IM-606-008-N.jpg","1","1","1","0","0","0","0.693594500015024","0.609838800039142","0.600291999988258","1","1","1","1","1","1","1","1","1"
"250056","img/neutralC/CFD-IM-606-008-N.jpg","img/neutralC/CFD-MM-306-010-N.jpg","img/neutralC/CFD-BM-009-002-N.jpg","1","1","1","0","0","1","0.600291999988258","0.693594500015024","0.466553499980364","1","1","1","1","1","1","1","1","1"
"250056","img/neutralC/CFD-BM-009-002-N.jpg","img/neutralC/CFD-IM-606-008-N.jpg","img/neutralC/CFD-LF-238-154-N.jpg","1","1","1","1","0","1","0.466553499980364","0.600291999988258","0.412903099961113","1","1","1","1","1","1","1","1","1"
"250056","img/neutralC/CFD-LF-238-154-N.jpg","img/neutralC/CFD-BM-009-002-N.jpg","img/neutralC/CFD-WM-028-003-N.jpg","1","1","1","1","1","1","0.412903099961113","0.466553499980364","0.449026699992828","1","1","1","1","1","1","1","1","1"
"250056","img/neutralC/CFD-WM-028-003-N.jpg","img/neutralC/CFD-LF-238-154-N.jpg","img/neutralC/CFD-BM-043-071-N.jpg","1","1","1","1","1","0","0.449026699992828","0.412903099961113","0.926969800028019","1","1","1","1","1","1","1","1","1"
"250056","img/neutralC/CFD-BM-043-071-N.jpg","img/neutralC/CFD-WM-028-003-N.jpg","img/neutralC/CFD-WF-009-001-N.jpg","1","1","1","0","1","1","0.926969800028019","0.449026699992828","0.556389199977275","1","1","1","1","1","1","1","1","1"
"250056","img/neutralC/CFD-WF-009-001-N.jpg","img/neutralC/CFD-BM-043-071-N.jpg","img/neutralC/CFD-BM-227-191-N.jpg","1","1","0","1","0","1","0.556389199977275","0.926969800028019","1.56324350001523","1","1","1","1","1","1","1","1","1"
"250056","img/neutralC/CFD-BM-227-191-N.jpg","img/neutralC/CFD-WF-009-001-N.jpg","img/neutralC/CFD-WM-025-002-N.jpg","0","1","0","1","1","0","1.56324350001523","0.556389199977275","0.609919400012586","1","1","1","1","1","1","1","1","1"
"250056","img/neutralC/CFD-WM-025-002-N.jpg","img/neutralC/CFD-BM-227-191-N.jpg","img/neutralC/CFD-BF-244-231-N.jpg","0","0","1","0","1","1","0.609919400012586","1.56324350001523","0.471765700029209","1","1","1","1","1","1","1","1","1"
"250056","img/neutralC/CFD-BF-244-231-N.jpg","img/neutralC/CFD-WM-025-002-N.jpg","img/neutralC/CFD-BM-030-003-N.jpg","1","0","1","1","0","0","0.471765700029209","0.609919400012586","0.790877300023567","1","1","1","1","1","1","1","1","1"
"250056","img/neutralC/CFD-BM-030-003-N.jpg","img/neutralC/CFD-BF-244-231-N.jpg","img/neutralC/CFD-IM-615-167-N.jpg","1","1","1","0","1","0","0.790877300023567","0.471765700029209","0.612963300023694","1","1","1","1","1","1","1","1","1"
"250056","img/neutralC/CFD-IM-615-167-N.jpg","img/neutralC/CFD-BM-030-003-N.jpg","img/neutralC/CFD-BM-021-021-N.jpg","1","1","1","0","0","1","0.612963300023694","0.790877300023567","0.606163599994034","1","1","1","1","1","1","1","1","1"
"250056","img/neutralC/CFD-BM-021-021-N.jpg","img/neutralC/CFD-IM-615-167-N.jpg","img/neutralC/CFD-AM-219-101-N.jpg","1","1","1","1","0","0","0.606163599994034","0.612963300023694","0.749012999993283","1","1","1","1","1","1","1","1","1"
"250056","img/neutralC/CFD-AM-219-101-N.jpg","img/neutralC/CFD-BM-021-021-N.jpg","img/neutralC/CFD-AM-249-163-N.jpg","1","1","0","0","1","1","0.749012999993283","0.606163599994034","1.26966990000801","1","1","1","1","1","1","1","1","1"
"250056","img/neutralC/CFD-AM-249-163-N.jpg","img/neutralC/CFD-AM-219-101-N.jpg","img/neutralC/CFD-AM-243-212-N.jpg","0","1","1","1","0","1","1.26966990000801","0.749012999993283","0.625574600009713","1","1","1","1","1","1","1","1","1"
"250056","img/neutralC/CFD-AM-243-212-N.jpg","img/neutralC/CFD-AM-249-163-N.jpg","img/neutralC/CFD-LM-240-013-N.jpg","1","0","1","1","1","1","0.625574600009713","1.26966990000801","0.496866200002842","1","1","1","1","1","1","1","1","1"
"250056","img/neutralC/CFD-LM-240-013-N.jpg","img/neutralC/CFD-AM-243-212-N.jpg","img/neutralC/CFD-LF-212-066-N.jpg","1","1","1","1","1","1","0.496866200002842","0.625574600009713","0.463349700032268","1","1","1","1","1","1","1","1","1"
"250056","img/neutralC/CFD-LF-212-066-N.jpg","img/neutralC/CFD-LM-240-013-N.jpg","img/neutralC/CFD-WM-023-001-N.jpg","1","1","0","1","1","0","0.463349700032268","0.496866200002842","0.749105900002178","1","1","1","1","1","1","1","1","1"
"250056","img/neutralC/CFD-WM-023-001-N.jpg","img/neutralC/CFD-LF-212-066-N.jpg","img/neutralC/CFD-BM-020-001-N.jpg","0","1","1","0","1","0","0.749105900002178","0.463349700032268","0.609939600049984","1","1","1","1","1","1","1","1","1"
"250056","img/neutralC/CFD-BM-020-001-N.jpg","img/neutralC/CFD-WM-023-001-N.jpg",NA,"1","0",NA,"0","0",NA,"0.609939600049984","0.749105900002178",NA,"1","1",NA,"1","1",NA,"1","1",NA
"250056","img/neutralC/CFD-LF-204-133-N.jpg",NA,"img/neutralC/CFD-IM-707-105-N.jpg","1",NA,"1","1",NA,"1","0.629315199970733",NA,"0.425886399985757","1",NA,"1","1",NA,"1","1",NA,"1"
"250056","img/neutralC/CFD-IM-707-105-N.jpg","img/neutralC/CFD-LF-204-133-N.jpg","img/neutralC/CFD-BF-214-308-N.jpg","1","1","1","1","1","1","0.425886399985757","0.629315199970733","0.542693900002632","1","1","1","1","1","1","1","1","1"
"250056","img/neutralC/CFD-BF-214-308-N.jpg","img/neutralC/CFD-IM-707-105-N.jpg","img/neutralC/CFD-MF-301-024-N.jpg","1","1","1","1","1","0","0.542693900002632","0.425886399985757","0.680342699983157","1","1","1","1","1","1","1","1","1"
"250056","img/neutralC/CFD-MF-301-024-N.jpg","img/neutralC/CFD-BF-214-308-N.jpg","img/neutralC/CFD-BM-207-024-N.jpg","1","1","1","0","1","1","0.680342699983157","0.542693900002632","0.417096999997739","1","1","1","1","1","1","1","1","1"
"250056","img/neutralC/CFD-BM-207-024-N.jpg","img/neutralC/CFD-MF-301-024-N.jpg","img/neutralC/CFD-WF-234-086-N.jpg","1","1","1","1","0","1","0.417096999997739","0.680342699983157","0.446259499993175","1","1","1","1","1","1","1","1","1"
"250056","img/neutralC/CFD-WF-234-086-N.jpg","img/neutralC/CFD-BM-207-024-N.jpg","img/neutralC/CFD-IM-696-001-N.jpg","1","1","1","1","1","0","0.446259499993175","0.417096999997739","0.475131400045939","1","1","1","1","1","1","1","1","1"
"250056","img/neutralC/CFD-IM-696-001-N.jpg","img/neutralC/CFD-WF-234-086-N.jpg","img/neutralC/CFD-IF-729-393-N.jpg","1","1","1","0","1","0","0.475131400045939","0.446259499993175","0.584982700005639","1","1","1","1","1","1","1","1","1"
"250056","img/neutralC/CFD-IF-729-393-N.jpg","img/neutralC/CFD-IM-696-001-N.jpg","img/neutralC/CFD-WM-034-030-N.jpg","1","1","1","0","0","1","0.584982700005639","0.475131400045939","0.550908599980175","1","1","1","1","1","1","1","1","1"
"250056","img/neutralC/CFD-WM-034-030-N.jpg","img/neutralC/CFD-IF-729-393-N.jpg","img/neutralC/CFD-BF-006-017-N.jpg","1","1","1","1","0","0","0.550908599980175","0.584982700005639","0.560670699982438","1","1","1","1","1","1","1","1","1"
"250056","img/neutralC/CFD-BF-006-017-N.jpg","img/neutralC/CFD-WM-034-030-N.jpg","img/neutralC/CFD-WF-233-112-N.jpg","1","1","1","0","1","1","0.560670699982438","0.550908599980175","0.625100100005511","1","1","1","1","1","1","1","1","1"
"250056","img/neutralC/CFD-WF-233-112-N.jpg","img/neutralC/CFD-BF-006-017-N.jpg","img/neutralC/CFD-BM-036-003-N.jpg","1","1","1","1","0","1","0.625100100005511","0.560670699982438","0.549342799989972","1","1","1","1","1","1","1","1","1"
"250056","img/neutralC/CFD-BM-036-003-N.jpg","img/neutralC/CFD-WF-233-112-N.jpg","img/neutralC/CFD-LM-213-061-N.jpg","1","1","0","1","1","0","0.549342799989972","0.625100100005511","0.514345599978697","1","1","1","1","1","1","1","1","1"
"250056","img/neutralC/CFD-LM-213-061-N.jpg","img/neutralC/CFD-BM-036-003-N.jpg","img/neutralC/CFD-BF-236-177-N.jpg","0","1","1","0","1","0","0.514345599978697","0.549342799989972","0.605009799997788","1","1","1","1","1","1","1","1","1"
"250056","img/neutralC/CFD-BF-236-177-N.jpg","img/neutralC/CFD-LM-213-061-N.jpg","img/neutralC/CFD-BF-036-027-N.jpg","1","0","1","0","0","0","0.605009799997788","0.514345599978697","0.679542099998798","1","1","1","1","1","1","1","1","1"
"250056","img/neutralC/CFD-BF-036-027-N.jpg","img/neutralC/CFD-BF-236-177-N.jpg","img/neutralC/CFD-IF-742-103-N.jpg","1","1","1","0","0","1","0.679542099998798","0.605009799997788","0.619805400026962","1","1","1","1","1","1","1","1","1"
"250056","img/neutralC/CFD-IF-742-103-N.jpg","img/neutralC/CFD-BF-036-027-N.jpg","img/neutralC/CFD-BF-207-004-N.jpg","1","1","1","1","0","1","0.619805400026962","0.679542099998798","0.628210099996068","1","1","1","1","1","1","1","1","1"
"250056","img/neutralC/CFD-BF-207-004-N.jpg","img/neutralC/CFD-IF-742-103-N.jpg","img/neutralC/CFD-BM-238-242-N.jpg","1","1","0","1","1","0","0.628210099996068","0.619805400026962","0.796637299994472","1","1","1","1","1","1","1","1","1"
"250056","img/neutralC/CFD-BM-238-242-N.jpg","img/neutralC/CFD-BF-207-004-N.jpg","img/neutralC/CFD-IM-726-248-N.jpg","0","1","1","0","1","0","0.796637299994472","0.628210099996068","0.744596999953501","1","1","1","1","1","1","1","1","1"
"250056","img/neutralC/CFD-IM-726-248-N.jpg","img/neutralC/CFD-BM-238-242-N.jpg","img/neutralC/CFD-WM-014-002-N.jpg","1","0","0","0","0","0","0.744596999953501","0.796637299994472","0.626389499986544","1","1","1","1","1","1","1","1","1"
"250056","img/neutralC/CFD-WM-014-002-N.jpg","img/neutralC/CFD-IM-726-248-N.jpg","img/neutralC/CFD-BF-044-034-N.jpg","0","1","1","0","0","0","0.626389499986544","0.744596999953501","0.66145840001991","1","1","1","1","1","1","1","1","1"
"250056","img/neutralC/CFD-BF-044-034-N.jpg","img/neutralC/CFD-WM-014-002-N.jpg","img/neutralC/CFD-BM-241-235-N.jpg","1","0","0","0","0","0","0.66145840001991","0.626389499986544","0.552713199984282","1","1","1","1","1","1","1","1","1"
"250056","img/neutralC/CFD-BM-241-235-N.jpg","img/neutralC/CFD-BF-044-034-N.jpg","img/neutralC/CFD-BF-011-002-N.jpg","0","1","1","0","0","1","0.552713199984282","0.66145840001991","0.68819940002868","1","1","1","1","1","1","1","1","1"
"250056","img/neutralC/CFD-BF-011-002-N.jpg","img/neutralC/CFD-BM-241-235-N.jpg","img/neutralC/CFD-BF-002-001-N.jpg","1","0","1","1","0","0","0.68819940002868","0.552713199984282","0.706245500012301","1","1","1","1","1","1","1","1","1"
"250056","img/neutralC/CFD-BF-002-001-N.jpg","img/neutralC/CFD-BF-011-002-N.jpg","img/neutralC/CFD-WM-248-036-N.jpg","1","1","1","0","1","1","0.706245500012301","0.68819940002868","0.557958300050814","1","1","1","1","1","1","1","1","1"
"250056","img/neutralC/CFD-WM-248-036-N.jpg","img/neutralC/CFD-BF-002-001-N.jpg","img/neutralC/CFD-WF-208-068-N.jpg","1","1","1","1","0","1","0.557958300050814","0.706245500012301","0.526873100025114","1","1","1","1","1","1","1","1","1"
"250056","img/neutralC/CFD-WF-208-068-N.jpg","img/neutralC/CFD-WM-248-036-N.jpg","img/neutralC/CFD-AM-230-150-N.jpg","1","1","1","1","1","0","0.526873100025114","0.557958300050814","0.651484999980312","1","1","1","1","1","1","1","1","1"
"250056","img/neutralC/CFD-AM-230-150-N.jpg","img/neutralC/CFD-WF-208-068-N.jpg","img/neutralC/CFD-IF-677-452-1-N.jpg","1","1","1","0","1","1","0.651484999980312","0.526873100025114","0.595192300039344","1","1","1","1","1","1","1","1","1"
"250056","img/neutralC/CFD-IF-677-452-1-N.jpg","img/neutralC/CFD-AM-230-150-N.jpg","img/neutralC/CFD-BF-247-179-N.jpg","1","1","1","1","0","0","0.595192300039344","0.651484999980312","0.665932700037956","1","1","1","1","1","1","1","1","1"
"250056","img/neutralC/CFD-BF-247-179-N.jpg","img/neutralC/CFD-IF-677-452-1-N.jpg","img/neutralC/CFD-BF-027-002-N.jpg","1","1","1","0","1","1","0.665932700037956","0.595192300039344","0.52617620001547","1","1","1","1","1","1","1","1","1"
"250056","img/neutralC/CFD-BF-027-002-N.jpg","img/neutralC/CFD-BF-247-179-N.jpg","img/neutralC/CFD-IM-721-341-N.jpg","1","1","1","1","0","1","0.52617620001547","0.665932700037956","0.603179500030819","1","1","1","1","1","1","1","1","1"
"250056","img/neutralC/CFD-IM-721-341-N.jpg","img/neutralC/CFD-BF-027-002-N.jpg","img/neutralC/CFD-WF-029-002-N.jpg","1","1","1","1","1","0","0.603179500030819","0.52617620001547","0.698490599985234","1","1","1","1","1","1","1","1","1"
"250056","img/neutralC/CFD-WF-029-002-N.jpg","img/neutralC/CFD-IM-721-341-N.jpg",NA,"1","1",NA,"0","1",NA,"0.698490599985234","0.603179500030819",NA,"1","1",NA,"1","1",NA,"1","1",NA
"250056","img/neutralC/CFD-LF-211-003-N.jpg",NA,"img/neutralC/CFD-MF-318-022-N.jpg","1",NA,"1","0",NA,"1","0.680956600001082",NA,"0.51810749998549","1",NA,"1","1",NA,"1","1",NA,"1"
"250056","img/neutralC/CFD-MF-318-022-N.jpg","img/neutralC/CFD-LF-211-003-N.jpg","img/neutralC/CFD-WF-226-095-N.jpg","1","1","1","1","0","1","0.51810749998549","0.680956600001082","0.516365099989343","1","1","1","1","1","1","1","1","1"
"250056","img/neutralC/CFD-WF-226-095-N.jpg","img/neutralC/CFD-MF-318-022-N.jpg","img/neutralC/CFD-WM-255-219-N.jpg","1","1","1","1","1","0","0.516365099989343","0.51810749998549","0.514957799983677","1","1","1","1","1","1","1","1","1"
"250056","img/neutralC/CFD-WM-255-219-N.jpg","img/neutralC/CFD-WF-226-095-N.jpg","img/neutralC/CFD-BM-023-029-N.jpg","1","1","1","0","1","1","0.514957799983677","0.516365099989343","0.526223900029436","1","1","1","1","1","1","1","1","1"
"250056","img/neutralC/CFD-BM-023-029-N.jpg","img/neutralC/CFD-WM-255-219-N.jpg","img/neutralC/CFD-BF-254-201-N.jpg","1","1","1","1","0","0","0.526223900029436","0.514957799983677","0.57072999997763","1","1","1","1","1","1","1","1","1"
"250056","img/neutralC/CFD-BF-254-201-N.jpg","img/neutralC/CFD-BM-023-029-N.jpg","img/neutralC/CFD-WM-009-002-N.jpg","1","1","1","0","1","0","0.57072999997763","0.526223900029436","0.567232400004286","1","1","1","1","1","1","1","1","1"
"250056","img/neutralC/CFD-WM-009-002-N.jpg","img/neutralC/CFD-BF-254-201-N.jpg","img/neutralC/CFD-BM-204-003-N.jpg","1","1","1","0","0","0","0.567232400004286","0.57072999997763","0.497732799965888","1","1","1","1","1","1","1","1","1"
"250056","img/neutralC/CFD-BM-204-003-N.jpg","img/neutralC/CFD-WM-009-002-N.jpg","img/neutralC/CFD-BM-200-046-N.jpg","1","1","1","0","0","0","0.497732799965888","0.567232400004286","0.633545999997295","1","1","1","1","1","1","1","1","1"
"250056","img/neutralC/CFD-BM-200-046-N.jpg","img/neutralC/CFD-BM-204-003-N.jpg","img/neutralC/CFD-LF-215-157-N.jpg","1","1","1","0","0","0","0.633545999997295","0.497732799965888","0.68106460000854","1","1","1","1","1","1","1","1","1"
"250056","img/neutralC/CFD-LF-215-157-N.jpg","img/neutralC/CFD-BM-200-046-N.jpg","img/neutralC/CFD-WM-221-091-N.jpg","1","1","1","0","0","0","0.68106460000854","0.633545999997295","0.471205200010445","1","1","1","1","1","1","1","1","1"
"250056","img/neutralC/CFD-WM-221-091-N.jpg","img/neutralC/CFD-LF-215-157-N.jpg","img/neutralC/CFD-MM-321-021-N.jpg","1","1","1","0","0","0","0.471205200010445","0.68106460000854","0.763416600006167","1","1","1","1","1","1","1","1","1"
"250056","img/neutralC/CFD-MM-321-021-N.jpg","img/neutralC/CFD-WM-221-091-N.jpg","img/neutralC/CFD-IM-719-221-N.jpg","1","1","1","0","0","0","0.763416600006167","0.471205200010445","0.897196299978532","1","1","1","1","1","1","1","1","1"
"250056","img/neutralC/CFD-IM-719-221-N.jpg","img/neutralC/CFD-MM-321-021-N.jpg","img/neutralC/CFD-IM-627-178-N.jpg","1","1","1","0","0","1","0.897196299978532","0.763416600006167","0.53097359999083","1","1","1","1","1","1","1","1","1"
"250056","img/neutralC/CFD-IM-627-178-N.jpg","img/neutralC/CFD-IM-719-221-N.jpg","img/neutralC/CFD-MF-321-003-N.jpg","1","1","1","1","0","0","0.53097359999083","0.897196299978532","0.68459029996302","1","1","1","1","1","1","1","1","1"
"250056","img/neutralC/CFD-MF-321-003-N.jpg","img/neutralC/CFD-IM-627-178-N.jpg","img/neutralC/CFD-WM-237-052-N.jpg","1","1","1","0","1","1","0.68459029996302","0.53097359999083","0.628186099987943","1","1","1","1","1","1","1","1","1"
"250056","img/neutralC/CFD-WM-237-052-N.jpg","img/neutralC/CFD-MF-321-003-N.jpg","img/neutralC/CFD-WF-245-084-N.jpg","1","1","1","1","0","1","0.628186099987943","0.68459029996302","0.540871599980164","1","1","1","1","1","1","1","1","1"
"250056","img/neutralC/CFD-WF-245-084-N.jpg","img/neutralC/CFD-WM-237-052-N.jpg","img/neutralC/CFD-BF-018-039-N.jpg","1","1","1","1","1","1","0.540871599980164","0.628186099987943","0.617364699952304","1","1","1","1","1","1","1","1","1"
"250056","img/neutralC/CFD-BF-018-039-N.jpg","img/neutralC/CFD-WF-245-084-N.jpg","img/neutralC/CFD-WM-013-001-N.jpg","1","1","1","1","1","1","0.617364699952304","0.540871599980164","0.532311799994204","1","1","1","1","1","1","1","1","1"
"250056","img/neutralC/CFD-WM-013-001-N.jpg","img/neutralC/CFD-BF-018-039-N.jpg","img/neutralC/CFD-BF-218-207-N.jpg","1","1","1","1","1","1","0.532311799994204","0.617364699952304","0.663646600034554","1","1","1","1","1","1","1","1","1"
"250056","img/neutralC/CFD-BF-218-207-N.jpg","img/neutralC/CFD-WM-013-001-N.jpg","img/neutralC/CFD-LM-253-075-N.jpg","1","1","1","1","1","0","0.663646600034554","0.532311799994204","0.7628851000336","1","1","1","1","1","1","1","1","1"
"250056","img/neutralC/CFD-LM-253-075-N.jpg","img/neutralC/CFD-BF-218-207-N.jpg","img/neutralC/CFD-AF-232-078-N.jpg","1","1","1","0","1","1","0.7628851000336","0.663646600034554","0.539218800025992","1","1","1","1","1","1","1","1","1"
"250056","img/neutralC/CFD-AF-232-078-N.jpg","img/neutralC/CFD-LM-253-075-N.jpg","img/neutralC/CFD-IF-629-234-N.jpg","1","1","0","1","0","0","0.539218800025992","0.7628851000336",NA,"1","1","0","1","1","0","1","1","0"
"250056","img/neutralC/CFD-IF-629-234-N.jpg","img/neutralC/CFD-AF-232-078-N.jpg","img/neutralC/CFD-WF-018-017-N.jpg","0","1","1","0","1","1",NA,"0.539218800025992","0.524960700015072","0","1","1","0","1","1","0","1","1"
"250056","img/neutralC/CFD-WF-018-017-N.jpg","img/neutralC/CFD-IF-629-234-N.jpg","img/neutralC/CFD-AF-221-147-N.jpg","1","0","1","1","0","0","0.524960700015072",NA,"0.689214600017294","1","0","1","1","0","1","1","0","1"
"250056","img/neutralC/CFD-AF-221-147-N.jpg","img/neutralC/CFD-WF-018-017-N.jpg","img/neutralC/CFD-WF-238-023-N.jpg","1","1","1","0","1","0","0.689214600017294","0.524960700015072","0.614696100004949","1","1","1","1","1","1","1","1","1"
"250056","img/neutralC/CFD-WF-238-023-N.jpg","img/neutralC/CFD-AF-221-147-N.jpg","img/neutralC/CFD-WF-023-003-N.jpg","1","1","1","0","0","1","0.614696100004949","0.689214600017294","0.59152230003383","1","1","1","1","1","1","1","1","1"
"250056","img/neutralC/CFD-WF-023-003-N.jpg","img/neutralC/CFD-WF-238-023-N.jpg","img/neutralC/CFD-MF-342-022-N.jpg","1","1","1","1","0","1","0.59152230003383","0.614696100004949","0.597688200010452","1","1","1","1","1","1","1","1","1"
"250056","img/neutralC/CFD-MF-342-022-N.jpg","img/neutralC/CFD-WF-023-003-N.jpg","img/neutralC/CFD-WM-201-063-N.jpg","1","1","1","1","1","1","0.597688200010452","0.59152230003383","0.59575879998738","1","1","1","1","1","1","1","1","1"
"250056","img/neutralC/CFD-WM-201-063-N.jpg","img/neutralC/CFD-MF-342-022-N.jpg","img/neutralC/CFD-IM-700-009-N.jpg","1","1","1","1","1","1","0.59575879998738","0.597688200010452","0.600975399953313","1","1","1","1","1","1","1","1","1"
"250056","img/neutralC/CFD-IM-700-009-N.jpg","img/neutralC/CFD-WM-201-063-N.jpg","img/neutralC/CFD-WF-027-003-N.jpg","1","1","1","1","1","1","0.600975399953313","0.59575879998738","0.749903200019617","1","1","1","1","1","1","1","1","1"
"250056","img/neutralC/CFD-WF-027-003-N.jpg","img/neutralC/CFD-IM-700-009-N.jpg","img/neutralC/CFD-AM-244-222-N.jpg","1","1","1","1","1","0","0.749903200019617","0.600975399953313","0.64776590000838","1","1","1","1","1","1","1","1","1"
"250056","img/neutralC/CFD-AM-244-222-N.jpg","img/neutralC/CFD-WF-027-003-N.jpg",NA,"1","1",NA,"0","1",NA,"0.64776590000838","0.749903200019617",NA,"1","1",NA,"1","1",NA,"1","1",NA
"250056","img/neutralC/CFD-BM-247-240-N.jpg",NA,"img/neutralC/CFD-BF-204-189-N.jpg","1",NA,"1","0",NA,"1","0.59204379998846",NA,"0.437327400024515","1",NA,"1","1",NA,"1","1",NA,"1"
"250056","img/neutralC/CFD-BF-204-189-N.jpg","img/neutralC/CFD-BM-247-240-N.jpg","img/neutralC/CFD-LF-216-121-N.jpg","1","1","1","1","0","1","0.437327400024515","0.59204379998846","0.528943000012077","1","1","1","1","1","1","1","1","1"
"250056","img/neutralC/CFD-LF-216-121-N.jpg","img/neutralC/CFD-BF-204-189-N.jpg","img/neutralC/CFD-IM-674-281-N.jpg","1","1","1","1","1","1","0.528943000012077","0.437327400024515","0.503954399959184","1","1","1","1","1","1","1","1","1"
"250056","img/neutralC/CFD-IM-674-281-N.jpg","img/neutralC/CFD-LF-216-121-N.jpg","img/neutralC/CFD-BF-201-080-N.jpg","1","1","1","1","1","1","0.503954399959184","0.528943000012077","0.447774600004777","1","1","1","1","1","1","1","1","1"
"250056","img/neutralC/CFD-BF-201-080-N.jpg","img/neutralC/CFD-IM-674-281-N.jpg","img/neutralC/CFD-AM-217-085-N.jpg","1","1","1","1","1","0","0.447774600004777","0.503954399959184","0.605103800015058","1","1","1","1","1","1","1","1","1"
"250056","img/neutralC/CFD-AM-217-085-N.jpg","img/neutralC/CFD-BF-201-080-N.jpg","img/neutralC/CFD-IF-718-001-N.jpg","1","1","1","0","1","1","0.605103800015058","0.447774600004777","0.503139199980069","1","1","1","1","1","1","1","1","1"
"250056","img/neutralC/CFD-IF-718-001-N.jpg","img/neutralC/CFD-AM-217-085-N.jpg","img/neutralC/CFD-BF-003-003-N.jpg","1","1","1","1","0","0","0.503139199980069","0.605103800015058","0.459168900037184","1","1","1","1","1","1","1","1","1"
"250056","img/neutralC/CFD-BF-003-003-N.jpg","img/neutralC/CFD-IF-718-001-N.jpg","img/neutralC/CFD-AM-215-120-N.jpg","1","1","1","0","1","1","0.459168900037184","0.503139199980069","0.479690100008156","1","1","1","1","1","1","1","1","1"
"250056","img/neutralC/CFD-AM-215-120-N.jpg","img/neutralC/CFD-BF-003-003-N.jpg","img/neutralC/CFD-WM-040-022-N.jpg","1","1","1","1","0","0","0.479690100008156","0.459168900037184","0.591026499983855","1","1","1","1","1","1","1","1","1"
"250056","img/neutralC/CFD-WM-040-022-N.jpg","img/neutralC/CFD-AM-215-120-N.jpg","img/neutralC/CFD-WM-038-003-N.jpg","1","1","1","0","1","0","0.591026499983855","0.479690100008156","0.537140600034036","1","1","1","1","1","1","1","1","1"
"250056","img/neutralC/CFD-WM-038-003-N.jpg","img/neutralC/CFD-WM-040-022-N.jpg","img/neutralC/CFD-BF-028-001-N.jpg","1","1","1","0","0","1","0.537140600034036","0.591026499983855","0.720624700014014","1","1","1","1","1","1","1","1","1"
"250056","img/neutralC/CFD-BF-028-001-N.jpg","img/neutralC/CFD-WM-038-003-N.jpg","img/neutralC/CFD-WF-022-017-N.jpg","1","1","0","1","0","0","0.720624700014014","0.537140600034036","0.930859799962491","1","1","1","1","1","1","1","1","1"
"250056","img/neutralC/CFD-WF-022-017-N.jpg","img/neutralC/CFD-BF-028-001-N.jpg","img/neutralC/CFD-WM-225-127-N.jpg","0","1","1","0","1","0","0.930859799962491","0.720624700014014","0.690957799961325","1","1","1","1","1","1","1","1","1"
"250056","img/neutralC/CFD-WM-225-127-N.jpg","img/neutralC/CFD-WF-022-017-N.jpg","img/neutralC/CFD-AM-235-241-N.jpg","1","0","1","0","0","0","0.690957799961325","0.930859799962491","0.548241300042719","1","1","1","1","1","1","1","1","1"
"250056","img/neutralC/CFD-AM-235-241-N.jpg","img/neutralC/CFD-WM-225-127-N.jpg","img/neutralC/CFD-BF-208-266-N.jpg","1","1","1","0","0","0","0.548241300042719","0.690957799961325","0.691069799999241","1","1","1","1","1","1","1","1","1"
"250056","img/neutralC/CFD-BF-208-266-N.jpg","img/neutralC/CFD-AM-235-241-N.jpg","img/neutralC/CFD-BM-211-174-N.jpg","1","1","1","0","0","0","0.691069799999241","0.548241300042719","0.671015500032809","1","1","1","1","1","1","1","1","1"
"250056","img/neutralC/CFD-BM-211-174-N.jpg","img/neutralC/CFD-BF-208-266-N.jpg","img/neutralC/CFD-WF-002-004-N.jpg","1","1","1","0","0","0","0.671015500032809","0.691069799999241","0.654632500023581","1","1","1","1","1","1","1","1","1"
"250056","img/neutralC/CFD-WF-002-004-N.jpg","img/neutralC/CFD-BM-211-174-N.jpg","img/neutralC/CFD-IF-672-305-N.jpg","1","1","1","0","0","0","0.654632500023581","0.671015500032809","0.602518200001214","1","1","1","1","1","1","1","1","1"
"250056","img/neutralC/CFD-IF-672-305-N.jpg","img/neutralC/CFD-WF-002-004-N.jpg","img/neutralC/CFD-BF-255-140-N.jpg","1","1","1","0","0","1","0.602518200001214","0.654632500023581","1.10208909999346","1","1","1","1","1","1","1","1","1"
"250056","img/neutralC/CFD-BF-255-140-N.jpg","img/neutralC/CFD-IF-672-305-N.jpg","img/neutralC/CFD-BM-029-024-N.jpg","1","1","1","1","0","1","1.10208909999346","0.602518200001214","0.640267899958417","1","1","1","1","1","1","1","1","1"
"250056","img/neutralC/CFD-BM-029-024-N.jpg","img/neutralC/CFD-BF-255-140-N.jpg","img/neutralC/CFD-IM-639-263-N.jpg","1","1","1","1","1","1","0.640267899958417","1.10208909999346","0.554762899992056","1","1","1","1","1","1","1","1","1"
"250056","img/neutralC/CFD-IM-639-263-N.jpg","img/neutralC/CFD-BM-029-024-N.jpg","img/neutralC/CFD-LM-252-076-N.jpg","1","1","1","1","1","1","0.554762899992056","0.640267899958417","0.655413799977396","1","1","1","1","1","1","1","1","1"
"250056","img/neutralC/CFD-LM-252-076-N.jpg","img/neutralC/CFD-IM-639-263-N.jpg","img/neutralC/CFD-IM-728-041-N.jpg","1","1","0","1","1","0","0.655413799977396","0.554762899992056","0.847810100007337","1","1","1","1","1","1","1","1","1"
"250056","img/neutralC/CFD-IM-728-041-N.jpg","img/neutralC/CFD-LM-252-076-N.jpg","img/neutralC/CFD-WM-257-161-N.jpg","0","1","1","0","1","1","0.847810100007337","0.655413799977396","0.688372600008734","1","1","1","1","1","1","1","1","1"
"250056","img/neutralC/CFD-WM-257-161-N.jpg","img/neutralC/CFD-IM-728-041-N.jpg","img/neutralC/CFD-WF-026-002-N.jpg","1","0","1","1","0","1","0.688372600008734","0.847810100007337","0.846785100002307","1","1","1","1","1","1","1","1","1"
"250056","img/neutralC/CFD-WF-026-002-N.jpg","img/neutralC/CFD-WM-257-161-N.jpg","img/neutralC/CFD-BF-023-010-N.jpg","1","1","1","1","1","1","0.846785100002307","0.688372600008734","0.71737359999679","1","1","1","1","1","1","1","1","1"
"250056","img/neutralC/CFD-BF-023-010-N.jpg","img/neutralC/CFD-WF-026-002-N.jpg","img/neutralC/CFD-LF-236-221-N.jpg","1","1","1","1","1","1","0.71737359999679","0.846785100002307","0.539358800044283","1","1","1","1","1","1","1","1","1"
"250056","img/neutralC/CFD-LF-236-221-N.jpg","img/neutralC/CFD-BF-023-010-N.jpg","img/neutralC/CFD-WM-002-009-N.jpg","1","1","1","1","1","0","0.539358800044283","0.71737359999679","0.689979000017047","1","1","1","1","1","1","1","1","1"
"250056","img/neutralC/CFD-WM-002-009-N.jpg","img/neutralC/CFD-LF-236-221-N.jpg","img/neutralC/CFD-MM-319-052-N.jpg","1","1","1","0","1","1","0.689979000017047","0.539358800044283","0.84490269998787","1","1","1","1","1","1","1","1","1"
"250056","img/neutralC/CFD-MM-319-052-N.jpg","img/neutralC/CFD-WM-002-009-N.jpg","img/neutralC/CFD-BM-015-015-N.jpg","1","1","1","1","0","0","0.84490269998787","0.689979000017047","2.76467090001097","1","1","1","1","1","1","1","1","1"
"250056","img/neutralC/CFD-BM-015-015-N.jpg","img/neutralC/CFD-MM-319-052-N.jpg","img/neutralC/CFD-BM-027-001-N.jpg","1","1","1","0","1","0","2.76467090001097","0.84490269998787","0.676241900015157","1","1","1","1","1","1","1","1","1"
"250056","img/neutralC/CFD-BM-027-001-N.jpg","img/neutralC/CFD-BM-015-015-N.jpg",NA,"1","1",NA,"0","0",NA,"0.676241900015157","2.76467090001097",NA,"1","1",NA,"1","1",NA,"1","1",NA
"250056","img/neutralC/CFD-AF-210-050-N.jpg",NA,"img/neutralC/CFD-LF-210-220-N.jpg","1",NA,"1","1",NA,"1","0.556130400043912",NA,"0.530169399979059","1",NA,"1","1",NA,"1","1",NA,"1"
"250056","img/neutralC/CFD-LF-210-220-N.jpg","img/neutralC/CFD-AF-210-050-N.jpg","img/neutralC/CFD-LF-225-164-N.jpg","1","1","1","1","1","1","0.530169399979059","0.556130400043912","0.524713000049815","1","1","1","1","1","1","1","1","1"
"250056","img/neutralC/CFD-LF-225-164-N.jpg","img/neutralC/CFD-LF-210-220-N.jpg","img/neutralC/CFD-WF-033-002-N.jpg","1","1","1","1","1","1","0.524713000049815","0.530169399979059","0.513342100020964","1","1","1","1","1","1","1","1","1"
"250056","img/neutralC/CFD-WF-033-002-N.jpg","img/neutralC/CFD-LF-225-164-N.jpg","img/neutralC/CFD-BM-213-134-N.jpg","1","1","1","1","1","1","0.513342100020964","0.524713000049815","0.519051200011745","1","1","1","1","1","1","1","1","1"
"250056","img/neutralC/CFD-BM-213-134-N.jpg","img/neutralC/CFD-WF-033-002-N.jpg","img/neutralC/CFD-BM-010-003-N.jpg","1","1","0","1","1","0","0.519051200011745","0.513342100020964","0.531842199969105","1","1","1","1","1","1","1","1","1"
"250056","img/neutralC/CFD-BM-010-003-N.jpg","img/neutralC/CFD-BM-213-134-N.jpg","img/neutralC/CFD-BM-013-002-N.jpg","0","1","1","0","1","1","0.531842199969105","0.519051200011745","0.515891999995802","1","1","1","1","1","1","1","1","1"
"250056","img/neutralC/CFD-BM-013-002-N.jpg","img/neutralC/CFD-BM-010-003-N.jpg","img/neutralC/CFD-IF-673-389-N.jpg","1","0","1","1","0","0","0.515891999995802","0.531842199969105","0.644447600003332","1","1","1","1","1","1","1","1","1"
"250056","img/neutralC/CFD-IF-673-389-N.jpg","img/neutralC/CFD-BM-013-002-N.jpg","img/neutralC/CFD-WM-254-152-N.jpg","1","1","1","0","1","1","0.644447600003332","0.515891999995802","0.546196200011764","1","1","1","1","1","1","1","1","1"
"250056","img/neutralC/CFD-WM-254-152-N.jpg","img/neutralC/CFD-IF-673-389-N.jpg","img/neutralC/CFD-MF-336-016-N.jpg","1","1","1","1","0","1","0.546196200011764","0.644447600003332","0.479862999985926","1","1","1","1","1","1","1","1","1"
"250056","img/neutralC/CFD-MF-336-016-N.jpg","img/neutralC/CFD-WM-254-152-N.jpg","img/neutralC/CFD-BF-045-003-N.jpg","1","1","0","1","1","0","0.479862999985926","0.546196200011764","0.604814799968153","1","1","1","1","1","1","1","1","1"
"250056","img/neutralC/CFD-BF-045-003-N.jpg","img/neutralC/CFD-MF-336-016-N.jpg","img/neutralC/CFD-BF-222-240-N.jpg","0","1","1","0","1","0","0.604814799968153","0.479862999985926","0.891918800014537","1","1","1","1","1","1","1","1","1"
"250056","img/neutralC/CFD-BF-222-240-N.jpg","img/neutralC/CFD-BF-045-003-N.jpg","img/neutralC/CFD-BM-003-003-N.jpg","1","0","1","0","0","0","0.891918800014537","0.604814799968153","0.725640300021041","1","1","1","1","1","1","1","1","1"
"250056","img/neutralC/CFD-BM-003-003-N.jpg","img/neutralC/CFD-BF-222-240-N.jpg","img/neutralC/CFD-AF-227-207-N.jpg","1","1","1","0","0","1","0.725640300021041","0.891918800014537","0.646757200011052","1","1","1","1","1","1","1","1","1"
"250056","img/neutralC/CFD-AF-227-207-N.jpg","img/neutralC/CFD-BM-003-003-N.jpg","img/neutralC/CFD-MF-312-002-N.jpg","1","1","1","1","0","1","0.646757200011052","0.725640300021041","0.697991600027308","1","1","1","1","1","1","1","1","1"
"250056","img/neutralC/CFD-MF-312-002-N.jpg","img/neutralC/CFD-AF-227-207-N.jpg","img/neutralC/CFD-IF-625-225-N.jpg","1","1","0","1","1","0","0.697991600027308","0.646757200011052","0.878278199990746","1","1","1","1","1","1","1","1","1"
"250056","img/neutralC/CFD-IF-625-225-N.jpg","img/neutralC/CFD-MF-312-002-N.jpg","img/neutralC/CFD-IF-744-114-N.jpg","0","1","1","0","1","0","0.878278199990746","0.697991600027308","0.638611600035802","1","1","1","1","1","1","1","1","1"
"250056","img/neutralC/CFD-IF-744-114-N.jpg","img/neutralC/CFD-IF-625-225-N.jpg","img/neutralC/CFD-LM-238-129-N.jpg","1","0","1","0","0","1","0.638611600035802","0.878278199990746","1.11104129999876","1","1","1","1","1","1","1","1","1"
"250056","img/neutralC/CFD-LM-238-129-N.jpg","img/neutralC/CFD-IF-744-114-N.jpg","img/neutralC/CFD-IM-659-359-N.jpg","1","1","1","1","0","0","1.11104129999876","0.638611600035802","0.75789629999781","1","1","1","1","1","1","1","1","1"
"250056","img/neutralC/CFD-IM-659-359-N.jpg","img/neutralC/CFD-LM-238-129-N.jpg","img/neutralC/CFD-WM-202-107-N.jpg","1","1","1","0","1","1","0.75789629999781","1.11104129999876","0.64948879997246","1","1","1","1","1","1","1","1","1"
"250056","img/neutralC/CFD-WM-202-107-N.jpg","img/neutralC/CFD-IM-659-359-N.jpg","img/neutralC/CFD-WM-228-065-N.jpg","1","1","0","1","0","0","0.64948879997246","0.75789629999781","1.64942750002956","1","1","1","1","1","1","1","1","1"
"250056","img/neutralC/CFD-WM-228-065-N.jpg","img/neutralC/CFD-WM-202-107-N.jpg","img/neutralC/CFD-LF-208-127-N.jpg","0","1","0","0","1","0","1.64942750002956","0.64948879997246","0.526269499969203","1","1","1","1","1","1","1","1","1"
"250056","img/neutralC/CFD-LF-208-127-N.jpg","img/neutralC/CFD-WM-228-065-N.jpg","img/neutralC/CFD-WF-006-002-N.jpg","0","0","1","0","0","0","0.526269499969203","1.64942750002956","0.615957300004084","1","1","1","1","1","1","1","1","1"
"250056","img/neutralC/CFD-WF-006-002-N.jpg","img/neutralC/CFD-LF-208-127-N.jpg","img/neutralC/CFD-WF-223-133-N.jpg","1","0","1","0","0","0","0.615957300004084","0.526269499969203","0.684764700010419","1","1","1","1","1","1","1","1","1"
"250056","img/neutralC/CFD-WF-223-133-N.jpg","img/neutralC/CFD-WF-006-002-N.jpg","img/neutralC/CFD-BM-028-002-N.jpg","1","1","1","0","0","1","0.684764700010419","0.615957300004084","0.527729500026908","1","1","1","1","1","1","1","1","1"
"250056","img/neutralC/CFD-BM-028-002-N.jpg","img/neutralC/CFD-WF-223-133-N.jpg","img/neutralC/CFD-IM-701-312-N.jpg","1","1","1","1","0","0","0.527729500026908","0.684764700010419","0.575504800013732","1","1","1","1","1","1","1","1","1"
"250056","img/neutralC/CFD-IM-701-312-N.jpg","img/neutralC/CFD-BM-028-002-N.jpg","img/neutralC/CFD-IM-738-191-N.jpg","1","1","1","0","1","0","0.575504800013732","0.527729500026908","0.616470000008121","1","1","1","1","1","1","1","1","1"
"250056","img/neutralC/CFD-IM-738-191-N.jpg","img/neutralC/CFD-IM-701-312-N.jpg","img/neutralC/CFD-LM-247-095-N.jpg","1","1","1","0","0","0","0.616470000008121","0.575504800013732","0.640709900006186","1","1","1","1","1","1","1","1","1"
"250056","img/neutralC/CFD-LM-247-095-N.jpg","img/neutralC/CFD-IM-738-191-N.jpg","img/neutralC/CFD-AM-221-184-N.jpg","1","1","1","0","0","1","0.640709900006186","0.616470000008121","0.488302899990231","1","1","1","1","1","1","1","1","1"
"250056","img/neutralC/CFD-AM-221-184-N.jpg","img/neutralC/CFD-LM-247-095-N.jpg","img/neutralC/CFD-BF-004-014-N.jpg","1","1","1","1","0","1","0.488302899990231","0.640709900006186","0.562564100022428","1","1","1","1","1","1","1","1","1"
"250056","img/neutralC/CFD-BF-004-014-N.jpg","img/neutralC/CFD-AM-221-184-N.jpg","img/neutralC/CFD-AF-239-171-N.jpg","1","1","1","1","1","1","0.562564100022428","0.488302899990231","0.603993400000036","1","1","1","1","1","1","1","1","1"
"250056","img/neutralC/CFD-AF-239-171-N.jpg","img/neutralC/CFD-BF-004-014-N.jpg","img/neutralC/CFD-LF-241-188-N.jpg","1","1","0","1","1","0","0.603993400000036","0.562564100022428","0.703760799951851","1","1","1","1","1","1","1","1","1"
"250056","img/neutralC/CFD-LF-241-188-N.jpg","img/neutralC/CFD-AF-239-171-N.jpg",NA,"0","1",NA,"0","1",NA,"0.703760799951851","0.603993400000036",NA,"1","1",NA,"1","1",NA,"1","1",NA
"250056","img/neutralC/CFD-LM-237-264-N.jpg",NA,"img/neutralC/CFD-WM-004-010-N.jpg","1",NA,"1","0",NA,"0","0.796224799996708",NA,"0.548319499997888","1",NA,"1","1",NA,"1","1",NA,"1"
"250056","img/neutralC/CFD-WM-004-010-N.jpg","img/neutralC/CFD-LM-237-264-N.jpg","img/neutralC/CFD-BF-232-187-N.jpg","1","1","1","0","0","1","0.548319499997888","0.796224799996708","0.426705799996853","1","1","1","1","1","1","1","1","1"
"250056","img/neutralC/CFD-BF-232-187-N.jpg","img/neutralC/CFD-WM-004-010-N.jpg","img/neutralC/CFD-WM-219-008-N.jpg","1","1","1","1","0","0","0.426705799996853","0.548319499997888","0.649259300029371","1","1","1","1","1","1","1","1","1"
"250056","img/neutralC/CFD-WM-219-008-N.jpg","img/neutralC/CFD-BF-232-187-N.jpg","img/neutralC/CFD-BF-038-037-N.jpg","1","1","1","0","1","1","0.649259300029371","0.426705799996853","0.505062900017947","1","1","1","1","1","1","1","1","1"
"250056","img/neutralC/CFD-BF-038-037-N.jpg","img/neutralC/CFD-WM-219-008-N.jpg","img/neutralC/CFD-IM-703-182-N.jpg","1","1","1","1","0","1","0.505062900017947","0.649259300029371","0.524922100012191","1","1","1","1","1","1","1","1","1"
"250056","img/neutralC/CFD-IM-703-182-N.jpg","img/neutralC/CFD-BF-038-037-N.jpg","img/neutralC/CFD-AM-251-124-N.jpg","1","1","1","1","1","0","0.524922100012191","0.505062900017947","0.58199199999217","1","1","1","1","1","1","1","1","1"
"250056","img/neutralC/CFD-AM-251-124-N.jpg","img/neutralC/CFD-IM-703-182-N.jpg","img/neutralC/CFD-MF-359-019-N.jpg","1","1","1","0","1","0","0.58199199999217","0.524922100012191","0.517836200015154","1","1","1","1","1","1","1","1","1"
"250056","img/neutralC/CFD-MF-359-019-N.jpg","img/neutralC/CFD-AM-251-124-N.jpg","img/neutralC/CFD-WF-214-122-N.jpg","1","1","1","0","0","1","0.517836200015154","0.58199199999217","0.605172300012782","1","1","1","1","1","1","1","1","1"
"250056","img/neutralC/CFD-WF-214-122-N.jpg","img/neutralC/CFD-MF-359-019-N.jpg","img/neutralC/CFD-IM-671-601-N.jpg","1","1","1","1","0","0","0.605172300012782","0.517836200015154","0.753150800010189","1","1","1","1","1","1","1","1","1"
"250056","img/neutralC/CFD-IM-671-601-N.jpg","img/neutralC/CFD-WF-214-122-N.jpg","img/neutralC/CFD-WM-020-001-N.jpg","1","1","1","0","1","1","0.753150800010189","0.605172300012782","0.732573400018737","1","1","1","1","1","1","1","1","1"
"250056","img/neutralC/CFD-WM-020-001-N.jpg","img/neutralC/CFD-IM-671-601-N.jpg","img/neutralC/CFD-IM-743-006-N.jpg","1","1","1","1","0","1","0.732573400018737","0.753150800010189","0.483988000021782","1","1","1","1","1","1","1","1","1"
"250056","img/neutralC/CFD-IM-743-006-N.jpg","img/neutralC/CFD-WM-020-001-N.jpg","img/neutralC/CFD-IM-645-001-N.jpg","1","1","0","1","1","0","0.483988000021782","0.732573400018737","0.82280660001561","1","1","1","1","1","1","1","1","1"
"250056","img/neutralC/CFD-IM-645-001-N.jpg","img/neutralC/CFD-IM-743-006-N.jpg","img/neutralC/CFD-IF-623-129-N.jpg","0","1","1","0","1","1","0.82280660001561","0.483988000021782","0.57668170001125","1","1","1","1","1","1","1","1","1"
"250056","img/neutralC/CFD-IF-623-129-N.jpg","img/neutralC/CFD-IM-645-001-N.jpg","img/neutralC/CFD-MF-333-012-N.jpg","1","0","1","1","0","0","0.57668170001125","0.82280660001561","0.645214699965436","1","1","1","1","1","1","1","1","1"
"250056","img/neutralC/CFD-MF-333-012-N.jpg","img/neutralC/CFD-IF-623-129-N.jpg","img/neutralC/CFD-MF-352-054-N.jpg","1","1","0","0","1","0","0.645214699965436","0.57668170001125","0.652013300044928","1","1","1","1","1","1","1","1","1"
"250056","img/neutralC/CFD-MF-352-054-N.jpg","img/neutralC/CFD-MF-333-012-N.jpg","img/neutralC/CFD-BM-253-004-N.jpg","0","1","1","0","0","1","0.652013300044928","0.645214699965436","0.796289599966258","1","1","1","1","1","1","1","1","1"
"250056","img/neutralC/CFD-BM-253-004-N.jpg","img/neutralC/CFD-MF-352-054-N.jpg","img/neutralC/CFD-BM-225-154-N.jpg","1","0","1","1","0","1","0.796289599966258","0.652013300044928","0.610924900043756","1","1","1","1","1","1","1","1","1"
"250056","img/neutralC/CFD-BM-225-154-N.jpg","img/neutralC/CFD-BM-253-004-N.jpg","img/neutralC/CFD-WM-033-025-N.jpg","1","1","1","1","1","1","0.610924900043756","0.796289599966258","1.13930959999561","1","1","1","1","1","1","1","1","1"
"250056","img/neutralC/CFD-WM-033-025-N.jpg","img/neutralC/CFD-BM-225-154-N.jpg","img/neutralC/CFD-WF-036-023-N.jpg","1","1","0","1","1","0","1.13930959999561","0.610924900043756",NA,"1","1","0","1","1","0","1","1","0"
"250056","img/neutralC/CFD-WF-036-023-N.jpg","img/neutralC/CFD-WM-033-025-N.jpg","img/neutralC/CFD-IF-650-315-N.jpg","0","1","1","0","1","0",NA,"1.13930959999561","0.734842000005301","0","1","1","0","1","1","0","1","1"
"250056","img/neutralC/CFD-IF-650-315-N.jpg","img/neutralC/CFD-WF-036-023-N.jpg","img/neutralC/CFD-LF-218-072-N.jpg","1","0","1","0","0","0","0.734842000005301",NA,"0.706606500025373","1","0","1","1","0","1","1","0","1"
"250056","img/neutralC/CFD-LF-218-072-N.jpg","img/neutralC/CFD-IF-650-315-N.jpg","img/neutralC/CFD-LM-228-188-N.jpg","1","1","1","0","0","1","0.706606500025373","0.734842000005301","0.602895799966063","1","1","1","1","1","1","1","1","1"
"250056","img/neutralC/CFD-LM-228-188-N.jpg","img/neutralC/CFD-LF-218-072-N.jpg","img/neutralC/CFD-IM-616-214-N.jpg","1","1","1","1","0","0","0.602895799966063","0.706606500025373","0.72534970002016","1","1","1","1","1","1","1","1","1"
"250056","img/neutralC/CFD-IM-616-214-N.jpg","img/neutralC/CFD-LM-228-188-N.jpg","img/neutralC/CFD-WF-200-099-N.jpg","1","1","1","0","1","0","0.72534970002016","0.602895799966063","0.71026309998706","1","1","1","1","1","1","1","1","1"
"250056","img/neutralC/CFD-WF-200-099-N.jpg","img/neutralC/CFD-IM-616-214-N.jpg","img/neutralC/CFD-WF-001-003-N.jpg","1","1","1","0","0","1","0.71026309998706","0.72534970002016","0.692454899952281","1","1","1","1","1","1","1","1","1"
"250056","img/neutralC/CFD-WF-001-003-N.jpg","img/neutralC/CFD-WF-200-099-N.jpg","img/neutralC/CFD-AM-211-052-N.jpg","1","1","1","1","0","1","0.692454899952281","0.71026309998706","0.634553299983963","1","1","1","1","1","1","1","1","1"
"250056","img/neutralC/CFD-AM-211-052-N.jpg","img/neutralC/CFD-WF-001-003-N.jpg","img/neutralC/CFD-LF-220-120-N.jpg","1","1","1","1","1","1","0.634553299983963","0.692454899952281","0.698953000013717","1","1","1","1","1","1","1","1","1"
"250056","img/neutralC/CFD-LF-220-120-N.jpg","img/neutralC/CFD-AM-211-052-N.jpg","img/neutralC/CFD-BF-229-179-N.jpg","1","1","1","1","1","0","0.698953000013717","0.634553299983963","0.588447500020266","1","1","1","1","1","1","1","1","1"
"250056","img/neutralC/CFD-BF-229-179-N.jpg","img/neutralC/CFD-LF-220-120-N.jpg","img/neutralC/CFD-BF-226-119-N.jpg","1","1","1","0","1","1","0.588447500020266","0.698953000013717","0.599067800038029","1","1","1","1","1","1","1","1","1"
"250056","img/neutralC/CFD-BF-226-119-N.jpg","img/neutralC/CFD-BF-229-179-N.jpg","img/neutralC/CFD-WM-235-147-N.jpg","1","1","1","1","0","0","0.599067800038029","0.588447500020266","0.734243799990509","1","1","1","1","1","1","1","1","1"
"250056","img/neutralC/CFD-WM-235-147-N.jpg","img/neutralC/CFD-BF-226-119-N.jpg","img/neutralC/CFD-AM-242-176-N.jpg","1","1","1","0","1","1","0.734243799990509","0.599067800038029","0.608825200004503","1","1","1","1","1","1","1","1","1"
"250056","img/neutralC/CFD-AM-242-176-N.jpg","img/neutralC/CFD-WM-235-147-N.jpg",NA,"1","1",NA,"1","0",NA,"0.608825200004503","0.734243799990509",NA,"1","1",NA,"1","1",NA,"1","1",NA
