"participant_id","current_trial_face","pre_trial_face","post_trial_face","current_trial_accuracy","pre_trial_accuracy","post_trial_accuracy","current_trial_congruency","pre_trial_congruency","post_trial_congruency","current_trial_rt","pre_trial_rt","post_trial_rt","current_trial_responded","pre_trial_responded","post_trial_responded","current_trial_legitResponse","pre_trial_legitResponse","post_trial_legitResponse","current_trial_resp_nums","pre_trial_resp_nums","post_trial_resp_nums"
"250013","img/neutralC/CFD-BF-224-002-N.jpg",NA,"img/neutralC/CFD-LF-201-035-N.jpg","1",NA,"1","1",NA,"1","0.866261200004374",NA,"0.495281499999692","1",NA,"1","1",NA,"1","1",NA,"1"
"250013","img/neutralC/CFD-LF-201-035-N.jpg","img/neutralC/CFD-BF-224-002-N.jpg","img/neutralC/CFD-MM-304-002-N.jpg","1","1","1","1","1","1","0.495281499999692","0.866261200004374","0.630583000005572","1","1","1","1","1","1","1","1","1"
"250013","img/neutralC/CFD-MM-304-002-N.jpg","img/neutralC/CFD-LF-201-035-N.jpg","img/neutralC/CFD-IM-675-015-N.jpg","1","1","1","1","1","1","0.630583000005572","0.495281499999692","0.566150400001789","1","1","1","1","1","1","1","1","1"
"250013","img/neutralC/CFD-IM-675-015-N.jpg","img/neutralC/CFD-MM-304-002-N.jpg","img/neutralC/CFD-MF-329-001-N.jpg","1","1","1","1","1","0","0.566150400001789","0.630583000005572","0.534696400005487","1","1","1","1","1","1","1","1","1"
"250013","img/neutralC/CFD-MF-329-001-N.jpg","img/neutralC/CFD-IM-675-015-N.jpg","img/neutralC/CFD-IF-608-390-N.jpg","1","1","1","0","1","1","0.534696400005487","0.566150400001789","0.63887710000563","1","1","1","1","1","1","1","1","1"
"250013","img/neutralC/CFD-IF-608-390-N.jpg","img/neutralC/CFD-MF-329-001-N.jpg","img/neutralC/CFD-AF-254-167-N.jpg","1","1","1","1","0","1","0.63887710000563","0.534696400005487","0.566539899999043","1","1","1","1","1","1","1","1","1"
"250013","img/neutralC/CFD-AF-254-167-N.jpg","img/neutralC/CFD-IF-608-390-N.jpg","img/neutralC/CFD-LF-226-174-N.jpg","1","1","1","1","1","0","0.566539899999043","0.63887710000563","0.501766999994288","1","1","1","1","1","1","1","1","1"
"250013","img/neutralC/CFD-LF-226-174-N.jpg","img/neutralC/CFD-AF-254-167-N.jpg","img/neutralC/CFD-MF-300-002-N.jpg","1","1","1","0","1","0","0.501766999994288","0.566539899999043","0.497253399997135","1","1","1","1","1","1","1","1","1"
"250013","img/neutralC/CFD-MF-300-002-N.jpg","img/neutralC/CFD-LF-226-174-N.jpg","img/neutralC/CFD-WF-212-050-N.jpg","1","1","1","0","0","0","0.497253399997135","0.501766999994288","0.598387000005459","1","1","1","1","1","1","1","1","1"
"250013","img/neutralC/CFD-WF-212-050-N.jpg","img/neutralC/CFD-MF-300-002-N.jpg","img/neutralC/CFD-WF-217-085-N.jpg","1","1","1","0","0","1","0.598387000005459","0.497253399997135","0.645973000006052","1","1","1","1","1","1","1","1","1"
"250013","img/neutralC/CFD-WF-217-085-N.jpg","img/neutralC/CFD-WF-212-050-N.jpg","img/neutralC/CFD-MF-340-026-N.jpg","1","1","1","1","0","1","0.645973000006052","0.598387000005459","0.84698170000047","1","1","1","1","1","1","1","1","1"
"250013","img/neutralC/CFD-MF-340-026-N.jpg","img/neutralC/CFD-WF-217-085-N.jpg","img/neutralC/CFD-WF-012-002-N.jpg","1","1","1","1","1","1","0.84698170000047","0.645973000006052","0.600299700003234","1","1","1","1","1","1","1","1","1"
"250013","img/neutralC/CFD-WF-012-002-N.jpg","img/neutralC/CFD-MF-340-026-N.jpg","img/neutralC/CFD-WM-024-015-N.jpg","1","1","1","1","1","1","0.600299700003234","0.84698170000047","0.544181100005517","1","1","1","1","1","1","1","1","1"
"250013","img/neutralC/CFD-WM-024-015-N.jpg","img/neutralC/CFD-WF-012-002-N.jpg","img/neutralC/CFD-BF-043-003-N.jpg","1","1","1","1","1","0","0.544181100005517","0.600299700003234","0.63526670000283","1","1","1","1","1","1","1","1","1"
"250013","img/neutralC/CFD-BF-043-003-N.jpg","img/neutralC/CFD-WM-024-015-N.jpg","img/neutralC/CFD-AM-236-090-N.jpg","1","1","1","0","1","1","0.63526670000283","0.544181100005517","0.591816899992409","1","1","1","1","1","1","1","1","1"
"250013","img/neutralC/CFD-AM-236-090-N.jpg","img/neutralC/CFD-BF-043-003-N.jpg","img/neutralC/CFD-BF-051-035-N.jpg","1","1","1","1","0","0","0.591816899992409","0.63526670000283","0.549059600001783","1","1","1","1","1","1","1","1","1"
"250013","img/neutralC/CFD-BF-051-035-N.jpg","img/neutralC/CFD-AM-236-090-N.jpg","img/neutralC/CFD-WF-248-129-N.jpg","1","1","1","0","1","0","0.549059600001783","0.591816899992409","0.540820300011546","1","1","1","1","1","1","1","1","1"
"250013","img/neutralC/CFD-WF-248-129-N.jpg","img/neutralC/CFD-BF-051-035-N.jpg","img/neutralC/CFD-AF-229-160-N.jpg","1","1","1","0","0","0","0.540820300011546","0.549059600001783","0.603823000012198","1","1","1","1","1","1","1","1","1"
"250013","img/neutralC/CFD-AF-229-160-N.jpg","img/neutralC/CFD-WF-248-129-N.jpg","img/neutralC/CFD-IM-604-014-N.jpg","1","1","1","0","0","0","0.603823000012198","0.540820300011546","0.517647100001341","1","1","1","1","1","1","1","1","1"
"250013","img/neutralC/CFD-IM-604-014-N.jpg","img/neutralC/CFD-AF-229-160-N.jpg","img/neutralC/CFD-WM-232-070-N.jpg","1","1","1","0","0","0","0.517647100001341","0.603823000012198","0.503933100000722","1","1","1","1","1","1","1","1","1"
"250013","img/neutralC/CFD-WM-232-070-N.jpg","img/neutralC/CFD-IM-604-014-N.jpg","img/neutralC/CFD-AF-215-70-N.jpg","1","1","1","0","0","0","0.503933100000722","0.517647100001341","0.54041660000803","1","1","1","1","1","1","1","1","1"
"250013","img/neutralC/CFD-AF-215-70-N.jpg","img/neutralC/CFD-WM-232-070-N.jpg","img/neutralC/CFD-LM-217-162-N.jpg","1","1","1","0","0","0","0.54041660000803","0.503933100000722","0.504642600004445","1","1","1","1","1","1","1","1","1"
"250013","img/neutralC/CFD-LM-217-162-N.jpg","img/neutralC/CFD-AF-215-70-N.jpg","img/neutralC/CFD-IF-619-197-N.jpg","1","1","1","0","0","0","0.504642600004445","0.54041660000803","0.533460800012108","1","1","1","1","1","1","1","1","1"
"250013","img/neutralC/CFD-IF-619-197-N.jpg","img/neutralC/CFD-LM-217-162-N.jpg","img/neutralC/CFD-IM-685-004-N.jpg","1","1","1","0","0","1","0.533460800012108","0.504642600004445","0.503807499990216","1","1","1","1","1","1","1","1","1"
"250013","img/neutralC/CFD-IM-685-004-N.jpg","img/neutralC/CFD-IF-619-197-N.jpg","img/neutralC/CFD-IM-709-103-N.jpg","1","1","1","1","0","0","0.503807499990216","0.533460800012108","0.615004199993564","1","1","1","1","1","1","1","1","1"
"250013","img/neutralC/CFD-IM-709-103-N.jpg","img/neutralC/CFD-IM-685-004-N.jpg","img/neutralC/CFD-WF-008-002-N.jpg","1","1","1","0","1","1","0.615004199993564","0.503807499990216","0.560237700003199","1","1","1","1","1","1","1","1","1"
"250013","img/neutralC/CFD-WF-008-002-N.jpg","img/neutralC/CFD-IM-709-103-N.jpg","img/neutralC/CFD-IM-637-007-N.jpg","1","1","1","1","0","0","0.560237700003199","0.615004199993564","0.504077600009623","1","1","1","1","1","1","1","1","1"
"250013","img/neutralC/CFD-IM-637-007-N.jpg","img/neutralC/CFD-WF-008-002-N.jpg","img/neutralC/CFD-BM-243-218-N.jpg","1","1","1","0","1","1","0.504077600009623","0.560237700003199","0.454413100000238","1","1","1","1","1","1","1","1","1"
"250013","img/neutralC/CFD-BM-243-218-N.jpg","img/neutralC/CFD-IM-637-007-N.jpg","img/neutralC/CFD-WM-213-076-N.jpg","1","1","1","1","0","1","0.454413100000238","0.504077600009623","0.395697899992228","1","1","1","1","1","1","1","1","1"
"250013","img/neutralC/CFD-WM-213-076-N.jpg","img/neutralC/CFD-BM-243-218-N.jpg","img/neutralC/CFD-BM-039-029-N.jpg","1","1","1","1","1","1","0.395697899992228","0.454413100000238","0.436794799999916","1","1","1","1","1","1","1","1","1"
"250013","img/neutralC/CFD-BM-039-029-N.jpg","img/neutralC/CFD-WM-213-076-N.jpg","img/neutralC/CFD-MF-327-002-N.jpg","1","1","1","1","1","0","0.436794799999916","0.395697899992228","0.547249400013243","1","1","1","1","1","1","1","1","1"
"250013","img/neutralC/CFD-MF-327-002-N.jpg","img/neutralC/CFD-BM-039-029-N.jpg",NA,"1","1",NA,"0","1",NA,"0.547249400013243","0.436794799999916",NA,"1","1",NA,"1","1",NA,"1","1",NA
"250013","img/neutralC/CFD-BF-041-001-N.jpg",NA,"img/neutralC/CFD-BF-212-315-N.jpg","1",NA,"1","1",NA,"1","0.569130000003497",NA,"0.400926600006642","1",NA,"1","1",NA,"1","1",NA,"1"
"250013","img/neutralC/CFD-BF-212-315-N.jpg","img/neutralC/CFD-BF-041-001-N.jpg","img/neutralC/CFD-WM-215-041-N.jpg","1","1","1","1","1","0","0.400926600006642","0.569130000003497","0.452909200001159","1","1","1","1","1","1","1","1","1"
"250013","img/neutralC/CFD-WM-215-041-N.jpg","img/neutralC/CFD-BF-212-315-N.jpg","img/neutralC/CFD-WM-026-001-N.jpg","1","1","1","0","1","1","0.452909200001159","0.400926600006642","0.494596000004094","1","1","1","1","1","1","1","1","1"
"250013","img/neutralC/CFD-WM-026-001-N.jpg","img/neutralC/CFD-WM-215-041-N.jpg","img/neutralC/CFD-WF-005-010-N.jpg","1","1","1","1","0","0","0.494596000004094","0.452909200001159","0.391348400007701","1","1","1","1","1","1","1","1","1"
"250013","img/neutralC/CFD-WF-005-010-N.jpg","img/neutralC/CFD-WM-026-001-N.jpg","img/neutralC/CFD-BM-205-001-N.jpg","1","1","1","0","1","0","0.391348400007701","0.494596000004094","0.437438299995847","1","1","1","1","1","1","1","1","1"
"250013","img/neutralC/CFD-BM-205-001-N.jpg","img/neutralC/CFD-WF-005-010-N.jpg","img/neutralC/CFD-WM-012-001-N.jpg","1","1","1","0","0","1","0.437438299995847","0.391348400007701","0.354053999995813","1","1","1","1","1","1","1","1","1"
"250013","img/neutralC/CFD-WM-012-001-N.jpg","img/neutralC/CFD-BM-205-001-N.jpg","img/neutralC/CFD-MM-317-061-N.jpg","1","1","1","1","0","1","0.354053999995813","0.437438299995847","0.397543800005224","1","1","1","1","1","1","1","1","1"
"250013","img/neutralC/CFD-MM-317-061-N.jpg","img/neutralC/CFD-WM-012-001-N.jpg","img/neutralC/CFD-WF-240-083-N.jpg","1","1","1","1","1","0","0.397543800005224","0.354053999995813","0.372233800007962","1","1","1","1","1","1","1","1","1"
"250013","img/neutralC/CFD-WF-240-083-N.jpg","img/neutralC/CFD-MM-317-061-N.jpg","img/neutralC/CFD-WF-228-196-N.jpg","1","1","1","0","1","0","0.372233800007962","0.397543800005224","0.628946099997847","1","1","1","1","1","1","1","1","1"
"250013","img/neutralC/CFD-WF-228-196-N.jpg","img/neutralC/CFD-WF-240-083-N.jpg","img/neutralC/CFD-BF-228-212-N.jpg","1","1","1","0","0","0","0.628946099997847","0.372233800007962","0.556627800004208","1","1","1","1","1","1","1","1","1"
"250013","img/neutralC/CFD-BF-228-212-N.jpg","img/neutralC/CFD-WF-228-196-N.jpg","img/neutralC/CFD-WM-019-003-N.jpg","1","1","1","0","0","1","0.556627800004208","0.628946099997847","0.379209799997625","1","1","1","1","1","1","1","1","1"
"250013","img/neutralC/CFD-WM-019-003-N.jpg","img/neutralC/CFD-BF-228-212-N.jpg","img/neutralC/CFD-BM-251-013-N.jpg","1","1","1","1","0","1","0.379209799997625","0.556627800004208","0.47060820000479","1","1","1","1","1","1","1","1","1"
"250013","img/neutralC/CFD-BM-251-013-N.jpg","img/neutralC/CFD-WM-019-003-N.jpg","img/neutralC/CFD-LM-244-068-N.jpg","1","1","1","1","1","1","0.47060820000479","0.379209799997625","0.479227300005732","1","1","1","1","1","1","1","1","1"
"250013","img/neutralC/CFD-LM-244-068-N.jpg","img/neutralC/CFD-BM-251-013-N.jpg","img/neutralC/CFD-AF-240-206-N.jpg","1","1","1","1","1","0","0.479227300005732","0.47060820000479","0.462679199990816","1","1","1","1","1","1","1","1","1"
"250013","img/neutralC/CFD-AF-240-206-N.jpg","img/neutralC/CFD-LM-244-068-N.jpg","img/neutralC/CFD-LM-216-082-N.jpg","1","1","0","0","1","0","0.462679199990816","0.479227300005732","0.364200700001675","1","1","1","1","1","1","1","1","2"
"250013","img/neutralC/CFD-LM-216-082-N.jpg","img/neutralC/CFD-AF-240-206-N.jpg","img/neutralC/CFD-IM-648-337-N.jpg","0","1","1","0","0","0","0.364200700001675","0.462679199990816","0.541761700005736","1","1","1","1","1","1","2","1","1"
"250013","img/neutralC/CFD-IM-648-337-N.jpg","img/neutralC/CFD-LM-216-082-N.jpg","img/neutralC/CFD-BM-248-128-N.jpg","1","0","1","0","0","0","0.541761700005736","0.364200700001675","0.541500199993607","1","1","1","1","1","1","1","2","1"
"250013","img/neutralC/CFD-BM-248-128-N.jpg","img/neutralC/CFD-IM-648-337-N.jpg","img/neutralC/CFD-BF-202-109-N.jpg","1","1","1","0","0","1","0.541500199993607","0.541761700005736","0.536529200006044","1","1","1","1","1","1","1","1","1"
"250013","img/neutralC/CFD-BF-202-109-N.jpg","img/neutralC/CFD-BM-248-128-N.jpg","img/neutralC/CFD-AM-247-165-N.jpg","1","1","1","1","0","1","0.536529200006044","0.541500199993607","0.391592000014498","1","1","1","1","1","1","1","1","1"
"250013","img/neutralC/CFD-AM-247-165-N.jpg","img/neutralC/CFD-BF-202-109-N.jpg","img/neutralC/CFD-LM-214-165-N.jpg","1","1","1","1","1","1","0.391592000014498","0.536529200006044","0.457283600000665","1","1","1","1","1","1","1","1","1"
"250013","img/neutralC/CFD-LM-214-165-N.jpg","img/neutralC/CFD-AM-247-165-N.jpg","img/neutralC/CFD-WF-017-003-N.jpg","1","1","1","1","1","1","0.457283600000665","0.391592000014498","0.679089500001282","1","1","1","1","1","1","1","1","1"
"250013","img/neutralC/CFD-WF-017-003-N.jpg","img/neutralC/CFD-LM-214-165-N.jpg","img/neutralC/CFD-BF-025-002-N.jpg","1","1","1","1","1","0","0.679089500001282","0.457283600000665","0.565363100002287","1","1","1","1","1","1","1","1","1"
"250013","img/neutralC/CFD-BF-025-002-N.jpg","img/neutralC/CFD-WF-017-003-N.jpg","img/neutralC/CFD-WM-006-002-N.jpg","1","1","1","0","1","0","0.565363100002287","0.679089500001282","0.549913099996047","1","1","1","1","1","1","1","1","1"
"250013","img/neutralC/CFD-WM-006-002-N.jpg","img/neutralC/CFD-BF-025-002-N.jpg","img/neutralC/CFD-IF-642-295-N.jpg","1","1","1","0","0","1","0.549913099996047","0.565363100002287","0.746051900001476","1","1","1","1","1","1","1","1","1"
"250013","img/neutralC/CFD-IF-642-295-N.jpg","img/neutralC/CFD-WM-006-002-N.jpg","img/neutralC/CFD-LM-201-057-N.jpg","1","1","1","1","0","1","0.746051900001476","0.549913099996047","0.465885400000843","1","1","1","1","1","1","1","1","1"
"250013","img/neutralC/CFD-LM-201-057-N.jpg","img/neutralC/CFD-IF-642-295-N.jpg","img/neutralC/CFD-WM-249-239-N.jpg","1","1","1","1","1","1","0.465885400000843","0.746051900001476","0.537540100005572","1","1","1","1","1","1","1","1","1"
"250013","img/neutralC/CFD-WM-249-239-N.jpg","img/neutralC/CFD-LM-201-057-N.jpg","img/neutralC/CFD-LM-243-075-N.jpg","1","1","1","1","1","0","0.537540100005572","0.465885400000843","0.526774600002682","1","1","1","1","1","1","1","1","1"
"250013","img/neutralC/CFD-LM-243-075-N.jpg","img/neutralC/CFD-WM-249-239-N.jpg","img/neutralC/CFD-MF-309-002-N.jpg","1","1","1","0","1","0","0.526774600002682","0.537540100005572","0.774018399999477","1","1","1","1","1","1","1","1","1"
"250013","img/neutralC/CFD-MF-309-002-N.jpg","img/neutralC/CFD-LM-243-075-N.jpg","img/neutralC/CFD-MF-335-002-N.jpg","1","1","1","0","0","0","0.774018399999477","0.526774600002682","0.56315440000617","1","1","1","1","1","1","1","1","1"
"250013","img/neutralC/CFD-MF-335-002-N.jpg","img/neutralC/CFD-MF-309-002-N.jpg","img/neutralC/CFD-WM-212-097-N.jpg","1","1","1","0","0","0","0.56315440000617","0.774018399999477","0.532552800010308","1","1","1","1","1","1","1","1","1"
"250013","img/neutralC/CFD-WM-212-097-N.jpg","img/neutralC/CFD-MF-335-002-N.jpg","img/neutralC/CFD-IM-646-023-N.jpg","1","1","1","0","0","1","0.532552800010308","0.56315440000617","0.538344300002791","1","1","1","1","1","1","1","1","1"
"250013","img/neutralC/CFD-IM-646-023-N.jpg","img/neutralC/CFD-WM-212-097-N.jpg",NA,"1","1",NA,"1","0",NA,"0.538344300002791","0.532552800010308",NA,"1","1",NA,"1","1",NA,"1","1",NA
"250013","img/neutralC/CFD-BF-038-037-N.jpg",NA,"img/neutralC/CFD-BF-226-119-N.jpg","1",NA,"1","1",NA,"1","0.86800659999426",NA,"0.46592669999518","1",NA,"1","1",NA,"1","1",NA,"1"
"250013","img/neutralC/CFD-BF-226-119-N.jpg","img/neutralC/CFD-BF-038-037-N.jpg","img/neutralC/CFD-IM-645-001-N.jpg","1","1","1","1","1","0","0.46592669999518","0.86800659999426","0.538359900005162","1","1","1","1","1","1","1","1","1"
"250013","img/neutralC/CFD-IM-645-001-N.jpg","img/neutralC/CFD-BF-226-119-N.jpg","img/neutralC/CFD-AM-251-124-N.jpg","1","1","1","0","1","0","0.538359900005162","0.46592669999518","0.499550900000031","1","1","1","1","1","1","1","1","2"
"250013","img/neutralC/CFD-AM-251-124-N.jpg","img/neutralC/CFD-IM-645-001-N.jpg","img/neutralC/CFD-IM-703-182-N.jpg","1","1","1","0","0","1","0.499550900000031","0.538359900005162","0.488993100007065","1","1","1","1","1","1","2","1","1"
"250013","img/neutralC/CFD-IM-703-182-N.jpg","img/neutralC/CFD-AM-251-124-N.jpg","img/neutralC/CFD-BM-253-004-N.jpg","1","1","1","1","0","1","0.488993100007065","0.499550900000031","0.61050169999362","1","1","1","1","1","1","1","2","1"
"250013","img/neutralC/CFD-BM-253-004-N.jpg","img/neutralC/CFD-IM-703-182-N.jpg","img/neutralC/CFD-WM-004-010-N.jpg","1","1","1","1","1","0","0.61050169999362","0.488993100007065","0.395715100006783","1","1","1","1","1","1","1","1","1"
"250013","img/neutralC/CFD-WM-004-010-N.jpg","img/neutralC/CFD-BM-253-004-N.jpg","img/neutralC/CFD-AM-242-176-N.jpg","1","1","1","0","1","1","0.395715100006783","0.61050169999362","0.511224900008528","1","1","1","1","1","1","1","1","1"
"250013","img/neutralC/CFD-AM-242-176-N.jpg","img/neutralC/CFD-WM-004-010-N.jpg","img/neutralC/CFD-MF-352-054-N.jpg","1","1","1","1","0","0","0.511224900008528","0.395715100006783","0.388583100007963","1","1","1","1","1","1","1","1","1"
"250013","img/neutralC/CFD-MF-352-054-N.jpg","img/neutralC/CFD-AM-242-176-N.jpg","img/neutralC/CFD-MF-359-019-N.jpg","1","1","1","0","1","0","0.388583100007963","0.511224900008528","0.437283000006573","1","1","1","1","1","1","1","1","1"
"250013","img/neutralC/CFD-MF-359-019-N.jpg","img/neutralC/CFD-MF-352-054-N.jpg","img/neutralC/CFD-LM-237-264-N.jpg","1","1","1","0","0","0","0.437283000006573","0.388583100007963","0.470087699999567","1","1","1","1","1","1","1","1","1"
"250013","img/neutralC/CFD-LM-237-264-N.jpg","img/neutralC/CFD-MF-359-019-N.jpg","img/neutralC/CFD-WM-033-025-N.jpg","1","1","1","0","0","1","0.470087699999567","0.437283000006573","0.449105600011535","1","1","1","1","1","1","1","1","1"
"250013","img/neutralC/CFD-WM-033-025-N.jpg","img/neutralC/CFD-LM-237-264-N.jpg","img/neutralC/CFD-MF-333-012-N.jpg","1","1","1","1","0","0","0.449105600011535","0.470087699999567","0.60989829999744","1","1","1","1","1","1","1","1","1"
"250013","img/neutralC/CFD-MF-333-012-N.jpg","img/neutralC/CFD-WM-033-025-N.jpg","img/neutralC/CFD-AM-211-052-N.jpg","1","1","1","0","1","1","0.60989829999744","0.449105600011535","0.454010300003574","1","1","1","1","1","1","1","1","1"
"250013","img/neutralC/CFD-AM-211-052-N.jpg","img/neutralC/CFD-MF-333-012-N.jpg","img/neutralC/CFD-WM-219-008-N.jpg","1","1","1","1","0","0","0.454010300003574","0.60989829999744","0.479122999997344","1","1","1","1","1","1","1","1","1"
"250013","img/neutralC/CFD-WM-219-008-N.jpg","img/neutralC/CFD-AM-211-052-N.jpg","img/neutralC/CFD-WF-001-003-N.jpg","1","1","1","0","1","1","0.479122999997344","0.454010300003574","0.441797800012864","1","1","1","1","1","1","1","1","1"
"250013","img/neutralC/CFD-WF-001-003-N.jpg","img/neutralC/CFD-WM-219-008-N.jpg","img/neutralC/CFD-LM-228-188-N.jpg","1","1","1","1","0","1","0.441797800012864","0.479122999997344","0.424995699999272","1","1","1","1","1","1","1","1","1"
"250013","img/neutralC/CFD-LM-228-188-N.jpg","img/neutralC/CFD-WF-001-003-N.jpg","img/neutralC/CFD-LF-220-120-N.jpg","1","1","0","1","1","1","0.424995699999272","0.441797800012864","0.265658599993913","1","1","1","1","1","1","1","1","1"
"250013","img/neutralC/CFD-LF-220-120-N.jpg","img/neutralC/CFD-LM-228-188-N.jpg","img/neutralC/CFD-IM-616-214-N.jpg","0","1","1","1","1","0","0.265658599993913","0.424995699999272","0.637496099996497","1","1","1","1","1","1","1","1","1"
"250013","img/neutralC/CFD-IM-616-214-N.jpg","img/neutralC/CFD-LF-220-120-N.jpg","img/neutralC/CFD-WF-036-023-N.jpg","1","0","1","0","1","0","0.637496099996497","0.265658599993913","0.503378100009286","1","1","1","1","1","1","1","1","1"
"250013","img/neutralC/CFD-WF-036-023-N.jpg","img/neutralC/CFD-IM-616-214-N.jpg","img/neutralC/CFD-WF-200-099-N.jpg","1","1","1","0","0","0","0.503378100009286","0.637496099996497","0.499758699996164","1","1","1","1","1","1","1","1","1"
"250013","img/neutralC/CFD-WF-200-099-N.jpg","img/neutralC/CFD-WF-036-023-N.jpg","img/neutralC/CFD-WF-214-122-N.jpg","1","1","1","0","0","1","0.499758699996164","0.503378100009286","0.508247300007497","1","1","1","1","1","1","1","1","1"
"250013","img/neutralC/CFD-WF-214-122-N.jpg","img/neutralC/CFD-WF-200-099-N.jpg","img/neutralC/CFD-IM-743-006-N.jpg","1","1","1","1","0","1","0.508247300007497","0.499758699996164","0.613802400010172","1","1","1","1","1","1","1","1","1"
"250013","img/neutralC/CFD-IM-743-006-N.jpg","img/neutralC/CFD-WF-214-122-N.jpg","img/neutralC/CFD-BF-229-179-N.jpg","1","1","1","1","1","0","0.613802400010172","0.508247300007497","0.481798600012553","1","1","1","1","1","1","1","1","1"
"250013","img/neutralC/CFD-BF-229-179-N.jpg","img/neutralC/CFD-IM-743-006-N.jpg","img/neutralC/CFD-IF-650-315-N.jpg","1","1","1","0","1","0","0.481798600012553","0.613802400010172","0.447335600008955","1","1","1","1","1","1","1","1","1"
"250013","img/neutralC/CFD-IF-650-315-N.jpg","img/neutralC/CFD-BF-229-179-N.jpg","img/neutralC/CFD-IM-671-601-N.jpg","1","1","1","0","0","0","0.447335600008955","0.481798600012553","0.541465300004347","1","1","1","1","1","1","1","1","1"
"250013","img/neutralC/CFD-IM-671-601-N.jpg","img/neutralC/CFD-IF-650-315-N.jpg","img/neutralC/CFD-IF-623-129-N.jpg","1","1","1","0","0","1","0.541465300004347","0.447335600008955","0.478869800004759","1","1","1","1","1","1","1","1","1"
"250013","img/neutralC/CFD-IF-623-129-N.jpg","img/neutralC/CFD-IM-671-601-N.jpg","img/neutralC/CFD-BM-225-154-N.jpg","1","1","1","1","0","1","0.478869800004759","0.541465300004347","0.466730100000859","1","1","1","1","1","1","1","1","1"
"250013","img/neutralC/CFD-BM-225-154-N.jpg","img/neutralC/CFD-IF-623-129-N.jpg","img/neutralC/CFD-WM-020-001-N.jpg","1","1","1","1","1","1","0.466730100000859","0.478869800004759","0.54243950000091","1","1","1","1","1","1","1","1","1"
"250013","img/neutralC/CFD-WM-020-001-N.jpg","img/neutralC/CFD-BM-225-154-N.jpg","img/neutralC/CFD-WM-235-147-N.jpg","1","1","1","1","1","0","0.54243950000091","0.466730100000859","0.642355199990561","1","1","1","1","1","1","1","1","1"
"250013","img/neutralC/CFD-WM-235-147-N.jpg","img/neutralC/CFD-WM-020-001-N.jpg","img/neutralC/CFD-LF-218-072-N.jpg","1","1","1","0","1","0","0.642355199990561","0.54243950000091","0.720142900012434","1","1","1","1","1","1","1","1","1"
"250013","img/neutralC/CFD-LF-218-072-N.jpg","img/neutralC/CFD-WM-235-147-N.jpg","img/neutralC/CFD-BF-232-187-N.jpg","1","1","1","0","0","1","0.720142900012434","0.642355199990561","0.734529800000018","1","1","1","1","1","1","1","1","1"
"250013","img/neutralC/CFD-BF-232-187-N.jpg","img/neutralC/CFD-LF-218-072-N.jpg",NA,"1","1",NA,"1","0",NA,"0.734529800000018","0.720142900012434",NA,"1","1",NA,"1","1",NA,"1","1",NA
"250013","img/neutralC/CFD-MF-303-013-N.jpg",NA,"img/neutralC/CFD-WM-209-038-N.jpg","1",NA,"1","0",NA,"0","0.745460499994806",NA,"0.516972299999907","1",NA,"1","1",NA,"1","1",NA,"1"
"250013","img/neutralC/CFD-WM-209-038-N.jpg","img/neutralC/CFD-MF-303-013-N.jpg","img/neutralC/CFD-BM-001-014-N.jpg","1","1","1","0","0","0","0.516972299999907","0.745460499994806","0.652956000005361","1","1","1","1","1","1","1","1","1"
"250013","img/neutralC/CFD-BM-001-014-N.jpg","img/neutralC/CFD-WM-209-038-N.jpg","img/neutralC/CFD-WF-007-001-N.jpg","1","1","1","0","0","1","0.652956000005361","0.516972299999907","0.512819399998989","1","1","1","1","1","1","1","1","1"
"250013","img/neutralC/CFD-WF-007-001-N.jpg","img/neutralC/CFD-BM-001-014-N.jpg","img/neutralC/CFD-LF-255-088-N.jpg","1","1","1","1","0","0","0.512819399998989","0.652956000005361","0.468217699992238","1","1","1","1","1","1","1","1","1"
"250013","img/neutralC/CFD-LF-255-088-N.jpg","img/neutralC/CFD-WF-007-001-N.jpg","img/neutralC/CFD-BF-237-172-N.jpg","1","1","1","0","1","1","0.468217699992238","0.512819399998989","0.428205299991532","1","1","1","1","1","1","1","1","1"
"250013","img/neutralC/CFD-BF-237-172-N.jpg","img/neutralC/CFD-LF-255-088-N.jpg","img/neutralC/CFD-IM-706-002-N.jpg","1","1","1","1","0","0","0.428205299991532","0.468217699992238","0.620882399991388","1","1","1","1","1","1","1","1","1"
"250013","img/neutralC/CFD-IM-706-002-N.jpg","img/neutralC/CFD-BF-237-172-N.jpg","img/neutralC/CFD-MF-305-014-N.jpg","1","1","1","0","1","1","0.620882399991388","0.428205299991532","0.36123399999633","1","1","1","1","1","1","1","1","1"
"250013","img/neutralC/CFD-MF-305-014-N.jpg","img/neutralC/CFD-IM-706-002-N.jpg","img/neutralC/CFD-WF-222-092-N.jpg","1","1","1","1","0","1","0.36123399999633","0.620882399991388","0.507929900006275","1","1","1","1","1","1","1","1","1"
"250013","img/neutralC/CFD-WF-222-092-N.jpg","img/neutralC/CFD-MF-305-014-N.jpg","img/neutralC/CFD-WF-244-163-N.jpg","1","1","1","1","1","1","0.507929900006275","0.36123399999633","0.476789199994528","1","1","1","1","1","1","1","1","1"
"250013","img/neutralC/CFD-WF-244-163-N.jpg","img/neutralC/CFD-WF-222-092-N.jpg","img/neutralC/CFD-BM-250-170-N.jpg","1","1","1","1","1","1","0.476789199994528","0.507929900006275","0.544738300013705","1","1","1","1","1","1","1","1","1"
"250013","img/neutralC/CFD-BM-250-170-N.jpg","img/neutralC/CFD-WF-244-163-N.jpg","img/neutralC/CFD-AF-253-130-N.jpg","1","1","1","1","1","1","0.544738300013705","0.476789199994528","0.608803700000863","1","1","1","1","1","1","1","1","1"
"250013","img/neutralC/CFD-AF-253-130-N.jpg","img/neutralC/CFD-BM-250-170-N.jpg","img/neutralC/CFD-IM-680-369-N.jpg","1","1","1","1","1","1","0.608803700000863","0.544738300013705","0.522136300001875","1","1","1","1","1","1","1","1","1"
"250013","img/neutralC/CFD-IM-680-369-N.jpg","img/neutralC/CFD-AF-253-130-N.jpg","img/neutralC/CFD-IM-702-101-N.jpg","1","1","1","1","1","1","0.522136300001875","0.608803700000863","0.488541500002611","1","1","1","1","1","1","1","1","1"
"250013","img/neutralC/CFD-IM-702-101-N.jpg","img/neutralC/CFD-IM-680-369-N.jpg","img/neutralC/CFD-LM-225-130-N.jpg","1","1","1","1","1","0","0.488541500002611","0.522136300001875","0.677306099998532","1","1","1","1","1","1","1","1","1"
"250013","img/neutralC/CFD-LM-225-130-N.jpg","img/neutralC/CFD-IM-702-101-N.jpg","img/neutralC/CFD-LM-200-045-N.jpg","1","1","1","0","1","1","0.677306099998532","0.488541500002611","0.408891600003699","1","1","1","1","1","1","1","1","1"
"250013","img/neutralC/CFD-LM-200-045-N.jpg","img/neutralC/CFD-LM-225-130-N.jpg","img/neutralC/CFD-AF-233-190-N.jpg","1","1","1","1","0","0","0.408891600003699","0.677306099998532","0.367861800012179","1","1","1","1","1","1","1","1","1"
"250013","img/neutralC/CFD-AF-233-190-N.jpg","img/neutralC/CFD-LM-200-045-N.jpg","img/neutralC/CFD-IF-660-464-N.jpg","1","1","1","0","1","0","0.367861800012179","0.408891600003699","0.480595500004711","1","1","1","1","1","1","1","1","1"
"250013","img/neutralC/CFD-IF-660-464-N.jpg","img/neutralC/CFD-AF-233-190-N.jpg","img/neutralC/CFD-WM-015-002-N.jpg","1","1","1","0","0","0","0.480595500004711","0.367861800012179","0.500058299992816","1","1","1","1","1","1","1","1","1"
"250013","img/neutralC/CFD-WM-015-002-N.jpg","img/neutralC/CFD-IF-660-464-N.jpg","img/neutralC/CFD-IF-626-375-N.jpg","1","1","1","0","0","0","0.500058299992816","0.480595500004711","0.510733300005086","1","1","1","1","1","1","1","1","1"
"250013","img/neutralC/CFD-IF-626-375-N.jpg","img/neutralC/CFD-WM-015-002-N.jpg","img/neutralC/CFD-MF-357-002-N.jpg","1","1","1","0","0","0","0.510733300005086","0.500058299992816","0.870683500004816","1","1","1","1","1","1","1","1","1"
"250013","img/neutralC/CFD-MF-357-002-N.jpg","img/neutralC/CFD-IF-626-375-N.jpg","img/neutralC/CFD-BF-014-002-N.jpg","1","1","1","0","0","1","0.870683500004816","0.510733300005086","0.553211299993563","1","1","1","1","1","1","1","1","1"
"250013","img/neutralC/CFD-BF-014-002-N.jpg","img/neutralC/CFD-MF-357-002-N.jpg","img/neutralC/CFD-LF-206-078-N.jpg","1","1","1","1","0","1","0.553211299993563","0.870683500004816","0.428894900003797","1","1","1","1","1","1","1","1","1"
"250013","img/neutralC/CFD-LF-206-078-N.jpg","img/neutralC/CFD-BF-014-002-N.jpg","img/neutralC/CFD-WM-218-074-N.jpg","1","1","1","1","1","1","0.428894900003797","0.553211299993563","0.518837800002075","1","1","1","1","1","1","1","1","1"
"250013","img/neutralC/CFD-WM-218-074-N.jpg","img/neutralC/CFD-LF-206-078-N.jpg","img/neutralC/CFD-IM-664-651-N.jpg","1","1","1","1","1","1","0.518837800002075","0.428894900003797","0.468582600005902","1","1","1","1","1","1","1","1","1"
"250013","img/neutralC/CFD-IM-664-651-N.jpg","img/neutralC/CFD-WM-218-074-N.jpg","img/neutralC/CFD-MF-316-001-N.jpg","1","1","1","1","1","0","0.468582600005902","0.518837800002075","0.512549100007163","1","1","1","1","1","1","1","1","1"
"250013","img/neutralC/CFD-MF-316-001-N.jpg","img/neutralC/CFD-IM-664-651-N.jpg","img/neutralC/CFD-MF-343-001-N.jpg","1","1","1","0","1","1","0.512549100007163","0.468582600005902","0.538603799999692","1","1","1","1","1","1","1","1","1"
"250013","img/neutralC/CFD-MF-343-001-N.jpg","img/neutralC/CFD-MF-316-001-N.jpg","img/neutralC/CFD-IM-667-369-N.jpg","1","1","1","1","0","0","0.538603799999692","0.512549100007163","0.543999999994412","1","1","1","1","1","1","1","1","1"
"250013","img/neutralC/CFD-IM-667-369-N.jpg","img/neutralC/CFD-MF-343-001-N.jpg","img/neutralC/CFD-MM-324-069-N.jpg","1","1","1","0","1","1","0.543999999994412","0.538603799999692","0.44391670000914","1","1","1","1","1","1","1","1","1"
"250013","img/neutralC/CFD-MM-324-069-N.jpg","img/neutralC/CFD-IM-667-369-N.jpg","img/neutralC/CFD-BM-217-082-N.jpg","1","1","1","1","0","0","0.44391670000914","0.543999999994412","0.484663600000204","1","1","1","1","1","1","1","1","1"
"250013","img/neutralC/CFD-BM-217-082-N.jpg","img/neutralC/CFD-MM-324-069-N.jpg","img/neutralC/CFD-AM-220-134-N.jpg","1","1","1","0","1","0","0.484663600000204","0.44391670000914","0.603253400011454","1","1","1","1","1","1","1","1","1"
"250013","img/neutralC/CFD-AM-220-134-N.jpg","img/neutralC/CFD-BM-217-082-N.jpg","img/neutralC/CFD-WF-030-002-N.jpg","1","1","1","0","0","0","0.603253400011454","0.484663600000204","0.821829700013041","1","1","1","1","1","1","1","1","1"
"250013","img/neutralC/CFD-WF-030-002-N.jpg","img/neutralC/CFD-AM-220-134-N.jpg",NA,"1","1",NA,"0","0",NA,"0.821829700013041","0.603253400011454",NA,"1","1",NA,"1","1",NA,"1","1",NA
"250013","img/neutralC/CFD-WF-243-148-N.jpg",NA,"img/neutralC/CFD-BM-009-002-N.jpg","0",NA,"1","0",NA,"1","1.41349410000839",NA,"0.58315630001016","1",NA,"1","1",NA,"1","1",NA,"1"
"250013","img/neutralC/CFD-BM-009-002-N.jpg","img/neutralC/CFD-WF-243-148-N.jpg","img/neutralC/CFD-BF-244-231-N.jpg","1","0","1","1","0","1","0.58315630001016","1.41349410000839","0.48129210001207","1","1","1","1","1","1","1","1","1"
"250013","img/neutralC/CFD-BF-244-231-N.jpg","img/neutralC/CFD-BM-009-002-N.jpg","img/neutralC/CFD-AF-237-223-N.jpg","1","1","1","1","1","0","0.48129210001207","0.58315630001016","0.47355900000548","1","1","1","1","1","1","1","1","1"
"250013","img/neutralC/CFD-AF-237-223-N.jpg","img/neutralC/CFD-BF-244-231-N.jpg","img/neutralC/CFD-IM-615-167-N.jpg","1","1","1","0","1","0","0.47355900000548","0.48129210001207","0.482885600009467","1","1","1","1","1","1","1","1","1"
"250013","img/neutralC/CFD-IM-615-167-N.jpg","img/neutralC/CFD-AF-237-223-N.jpg","img/neutralC/CFD-LF-222-147-N.jpg","1","1","1","0","0","0","0.482885600009467","0.47355900000548","0.523164500002167","1","1","1","1","1","1","1","1","1"
"250013","img/neutralC/CFD-LF-222-147-N.jpg","img/neutralC/CFD-IM-615-167-N.jpg","img/neutralC/CFD-LF-212-066-N.jpg","1","1","1","0","0","1","0.523164500002167","0.482885600009467","0.476243500001146","1","1","1","1","1","1","1","1","1"
"250013","img/neutralC/CFD-LF-212-066-N.jpg","img/neutralC/CFD-LF-222-147-N.jpg","img/neutralC/CFD-BM-020-001-N.jpg","1","1","1","1","0","0","0.476243500001146","0.523164500002167","0.462293400007184","1","1","1","1","1","1","1","1","1"
"250013","img/neutralC/CFD-BM-020-001-N.jpg","img/neutralC/CFD-LF-212-066-N.jpg","img/neutralC/CFD-AM-243-212-N.jpg","1","1","1","0","1","1","0.462293400007184","0.476243500001146","0.467215500000748","1","1","1","1","1","1","1","1","1"
"250013","img/neutralC/CFD-AM-243-212-N.jpg","img/neutralC/CFD-BM-020-001-N.jpg","img/neutralC/CFD-LM-240-013-N.jpg","1","1","1","1","0","1","0.467215500000748","0.462293400007184","0.431325800003833","1","1","1","1","1","1","1","1","1"
"250013","img/neutralC/CFD-LM-240-013-N.jpg","img/neutralC/CFD-AM-243-212-N.jpg","img/neutralC/CFD-WM-028-003-N.jpg","1","1","1","1","1","1","0.431325800003833","0.467215500000748","0.479896799995913","1","1","1","1","1","1","1","1","1"
"250013","img/neutralC/CFD-WM-028-003-N.jpg","img/neutralC/CFD-LM-240-013-N.jpg","img/neutralC/CFD-AM-219-101-N.jpg","1","1","1","1","1","0","0.479896799995913","0.431325800003833","0.633524200005922","1","1","1","1","1","1","1","1","1"
"250013","img/neutralC/CFD-AM-219-101-N.jpg","img/neutralC/CFD-WM-028-003-N.jpg","img/neutralC/CFD-WF-207-014-N.jpg","1","1","1","0","1","1","0.633524200005922","0.479896799995913","0.472455300012371","1","1","1","1","1","1","1","1","1"
"250013","img/neutralC/CFD-WF-207-014-N.jpg","img/neutralC/CFD-AM-219-101-N.jpg","img/neutralC/CFD-BF-012-001-N.jpg","1","1","1","1","0","0","0.472455300012371","0.633524200005922","0.553532499994617","1","1","1","1","1","1","1","1","1"
"250013","img/neutralC/CFD-BF-012-001-N.jpg","img/neutralC/CFD-WF-207-014-N.jpg","img/neutralC/CFD-IF-676-017-N.jpg","1","1","1","0","1","1","0.553532499994617","0.472455300012371","0.475919000004069","1","1","1","1","1","1","1","1","1"
"250013","img/neutralC/CFD-IF-676-017-N.jpg","img/neutralC/CFD-BF-012-001-N.jpg","img/neutralC/CFD-IM-606-008-N.jpg","1","1","1","1","0","0","0.475919000004069","0.553532499994617","0.702707199990982","1","1","1","1","1","1","1","1","1"
"250013","img/neutralC/CFD-IM-606-008-N.jpg","img/neutralC/CFD-IF-676-017-N.jpg","img/neutralC/CFD-BM-030-003-N.jpg","1","1","1","0","1","0","0.702707199990982","0.475919000004069","0.626392900012434","1","1","1","1","1","1","1","1","1"
"250013","img/neutralC/CFD-BM-030-003-N.jpg","img/neutralC/CFD-IM-606-008-N.jpg","img/neutralC/CFD-WF-241-210-N.jpg","1","1","0","0","0","0","0.626392900012434","0.702707199990982","0.709702899999684","1","1","1","1","1","1","1","1","1"
"250013","img/neutralC/CFD-WF-241-210-N.jpg","img/neutralC/CFD-BM-030-003-N.jpg","img/neutralC/CFD-BM-021-021-N.jpg","0","1","1","0","0","1","0.709702899999684","0.626392900012434","0.458416100009345","1","1","1","1","1","1","1","1","1"
"250013","img/neutralC/CFD-BM-021-021-N.jpg","img/neutralC/CFD-WF-241-210-N.jpg","img/neutralC/CFD-LF-238-154-N.jpg","1","0","1","1","0","1","0.458416100009345","0.709702899999684","0.575096400003531","1","1","1","1","1","1","1","1","1"
"250013","img/neutralC/CFD-LF-238-154-N.jpg","img/neutralC/CFD-BM-021-021-N.jpg","img/neutralC/CFD-AM-205-153-N.jpg","1","1","1","1","1","1","0.575096400003531","0.458416100009345","0.477152699997532","1","1","1","1","1","1","1","1","1"
"250013","img/neutralC/CFD-AM-205-153-N.jpg","img/neutralC/CFD-LF-238-154-N.jpg","img/neutralC/CFD-BM-043-071-N.jpg","1","1","1","1","1","0","0.477152699997532","0.575096400003531","0.744045200000983","1","1","1","1","1","1","1","1","2"
"250013","img/neutralC/CFD-BM-043-071-N.jpg","img/neutralC/CFD-AM-205-153-N.jpg","img/neutralC/CFD-MF-328-020-N.jpg","1","1","1","0","1","0","0.744045200000983","0.477152699997532","0.594951700011734","1","1","1","1","1","1","2","1","1"
"250013","img/neutralC/CFD-MF-328-020-N.jpg","img/neutralC/CFD-BM-043-071-N.jpg","img/neutralC/CFD-WM-023-001-N.jpg","1","1","1","0","0","0","0.594951700011734","0.744045200000983","0.496587799992994","1","1","1","1","1","1","1","2","1"
"250013","img/neutralC/CFD-WM-023-001-N.jpg","img/neutralC/CFD-MF-328-020-N.jpg","img/neutralC/CFD-IM-689-263-N.jpg","1","1","1","0","0","1","0.496587799992994","0.594951700011734","0.522389100005967","1","1","1","1","1","1","1","1","1"
"250013","img/neutralC/CFD-IM-689-263-N.jpg","img/neutralC/CFD-WM-023-001-N.jpg","img/neutralC/CFD-IM-697-015-N.jpg","1","1","1","1","0","1","0.522389100005967","0.496587799992994","0.497794599999906","1","1","1","1","1","1","1","1","1"
"250013","img/neutralC/CFD-IM-697-015-N.jpg","img/neutralC/CFD-IM-689-263-N.jpg","img/neutralC/CFD-BM-227-191-N.jpg","1","1","1","1","1","1","0.497794599999906","0.522389100005967","0.477220600005239","1","1","1","1","1","1","1","1","1"
"250013","img/neutralC/CFD-BM-227-191-N.jpg","img/neutralC/CFD-IM-697-015-N.jpg","img/neutralC/CFD-AM-249-163-N.jpg","1","1","1","1","1","1","0.477220600005239","0.497794599999906","0.612612299999455","1","1","1","1","1","1","1","1","1"
"250013","img/neutralC/CFD-AM-249-163-N.jpg","img/neutralC/CFD-BM-227-191-N.jpg","img/neutralC/CFD-WF-221-005-N.jpg","1","1","1","1","1","0","0.612612299999455","0.477220600005239","0.498032400006196","1","1","1","1","1","1","1","1","1"
"250013","img/neutralC/CFD-WF-221-005-N.jpg","img/neutralC/CFD-AM-249-163-N.jpg","img/neutralC/CFD-MM-306-010-N.jpg","1","1","1","0","1","0","0.498032400006196","0.612612299999455","0.504282800015062","1","1","1","1","1","1","1","1","1"
"250013","img/neutralC/CFD-MM-306-010-N.jpg","img/neutralC/CFD-WF-221-005-N.jpg","img/neutralC/CFD-WM-025-002-N.jpg","1","1","1","0","0","0","0.504282800015062","0.498032400006196","0.611175199999707","1","1","1","1","1","1","1","1","1"
"250013","img/neutralC/CFD-WM-025-002-N.jpg","img/neutralC/CFD-MM-306-010-N.jpg","img/neutralC/CFD-WF-009-001-N.jpg","1","1","1","0","0","1","0.611175199999707","0.504282800015062","0.435198599996511","1","1","1","1","1","1","1","1","1"
"250013","img/neutralC/CFD-WF-009-001-N.jpg","img/neutralC/CFD-WM-025-002-N.jpg",NA,"1","1",NA,"1","0",NA,"0.435198599996511","0.611175199999707",NA,"1","1",NA,"1","1",NA,"1","1",NA
"250013","img/neutralC/CFD-IM-719-221-N.jpg",NA,"img/neutralC/CFD-BF-254-201-N.jpg","1",NA,"1","0",NA,"0","1.24310260001221",NA,"0.443085999999312","1",NA,"1","1",NA,"1","1",NA,"1"
"250013","img/neutralC/CFD-BF-254-201-N.jpg","img/neutralC/CFD-IM-719-221-N.jpg","img/neutralC/CFD-WF-245-084-N.jpg","1","1","1","0","0","1","0.443085999999312","1.24310260001221","0.513851499999873","1","1","1","1","1","1","1","1","1"
"250013","img/neutralC/CFD-WF-245-084-N.jpg","img/neutralC/CFD-BF-254-201-N.jpg","img/neutralC/CFD-WF-226-095-N.jpg","1","1","1","1","0","1","0.513851499999873","0.443085999999312","0.577684900010354","1","1","1","1","1","1","1","1","1"
"250013","img/neutralC/CFD-WF-226-095-N.jpg","img/neutralC/CFD-WF-245-084-N.jpg","img/neutralC/CFD-WF-238-023-N.jpg","1","1","1","1","1","0","0.577684900010354","0.513851499999873","0.570460500006448","1","1","1","1","1","1","1","1","1"
"250013","img/neutralC/CFD-WF-238-023-N.jpg","img/neutralC/CFD-WF-226-095-N.jpg","img/neutralC/CFD-BM-200-046-N.jpg","1","1","1","0","1","0","0.570460500006448","0.577684900010354","0.48312900000019","1","1","1","1","1","1","1","1","1"
"250013","img/neutralC/CFD-BM-200-046-N.jpg","img/neutralC/CFD-WF-238-023-N.jpg","img/neutralC/CFD-AF-221-147-N.jpg","1","1","1","0","0","0","0.48312900000019","0.570460500006448","0.527188200008823","1","1","1","1","1","1","1","1","1"
"250013","img/neutralC/CFD-AF-221-147-N.jpg","img/neutralC/CFD-BM-200-046-N.jpg","img/neutralC/CFD-BM-023-029-N.jpg","1","1","1","0","0","1","0.527188200008823","0.48312900000019","0.438284799995017","1","1","1","1","1","1","1","1","1"
"250013","img/neutralC/CFD-BM-023-029-N.jpg","img/neutralC/CFD-AF-221-147-N.jpg","img/neutralC/CFD-LF-215-157-N.jpg","1","1","1","1","0","0","0.438284799995017","0.527188200008823","0.554396899999119","1","1","1","1","1","1","1","1","1"
"250013","img/neutralC/CFD-LF-215-157-N.jpg","img/neutralC/CFD-BM-023-029-N.jpg","img/neutralC/CFD-WF-018-017-N.jpg","1","1","1","0","1","1","0.554396899999119","0.438284799995017","0.434317799998098","1","1","1","1","1","1","1","1","1"
"250013","img/neutralC/CFD-WF-018-017-N.jpg","img/neutralC/CFD-LF-215-157-N.jpg","img/neutralC/CFD-WM-013-001-N.jpg","1","1","1","1","0","1","0.434317799998098","0.554396899999119","0.403206100003445","1","1","1","1","1","1","1","1","1"
"250013","img/neutralC/CFD-WM-013-001-N.jpg","img/neutralC/CFD-WF-018-017-N.jpg","img/neutralC/CFD-WM-201-063-N.jpg","1","1","1","1","1","1","0.403206100003445","0.434317799998098","0.697756000008667","1","1","1","1","1","1","1","1","1"
"250013","img/neutralC/CFD-WM-201-063-N.jpg","img/neutralC/CFD-WM-013-001-N.jpg","img/neutralC/CFD-WM-009-002-N.jpg","1","1","1","1","1","0","0.697756000008667","0.403206100003445","0.574493400010397","1","1","1","1","1","1","1","1","1"
"250013","img/neutralC/CFD-WM-009-002-N.jpg","img/neutralC/CFD-WM-201-063-N.jpg","img/neutralC/CFD-WM-221-091-N.jpg","1","1","1","0","1","0","0.574493400010397","0.697756000008667","0.534760900001856","1","1","1","1","1","1","1","1","1"
"250013","img/neutralC/CFD-WM-221-091-N.jpg","img/neutralC/CFD-WM-009-002-N.jpg","img/neutralC/CFD-WF-023-003-N.jpg","1","1","1","0","0","1","0.534760900001856","0.574493400010397","0.461778900003992","1","1","1","1","1","1","1","1","1"
"250013","img/neutralC/CFD-WF-023-003-N.jpg","img/neutralC/CFD-WM-221-091-N.jpg","img/neutralC/CFD-LF-211-003-N.jpg","1","1","1","1","0","0","0.461778900003992","0.534760900001856","0.562809499999275","1","1","1","1","1","1","1","1","1"
"250013","img/neutralC/CFD-LF-211-003-N.jpg","img/neutralC/CFD-WF-023-003-N.jpg","img/neutralC/CFD-MF-318-022-N.jpg","1","1","1","0","1","1","0.562809499999275","0.461778900003992","0.575038100010715","1","1","1","1","1","1","1","1","1"
"250013","img/neutralC/CFD-MF-318-022-N.jpg","img/neutralC/CFD-LF-211-003-N.jpg","img/neutralC/CFD-WM-255-219-N.jpg","1","1","1","1","0","0","0.575038100010715","0.562809499999275","0.622033899999224","1","1","1","1","1","1","1","1","1"
"250013","img/neutralC/CFD-WM-255-219-N.jpg","img/neutralC/CFD-MF-318-022-N.jpg","img/neutralC/CFD-WM-237-052-N.jpg","1","1","1","0","1","1","0.622033899999224","0.575038100010715","0.524476099992171","1","1","1","1","1","1","1","1","1"
"250013","img/neutralC/CFD-WM-237-052-N.jpg","img/neutralC/CFD-WM-255-219-N.jpg","img/neutralC/CFD-IM-700-009-N.jpg","1","1","1","1","0","1","0.524476099992171","0.622033899999224","0.620648200012511","1","1","1","1","1","1","1","1","1"
"250013","img/neutralC/CFD-IM-700-009-N.jpg","img/neutralC/CFD-WM-237-052-N.jpg","img/neutralC/CFD-MM-321-021-N.jpg","1","1","1","1","1","0","0.620648200012511","0.524476099992171","0.630633500011754","1","1","1","1","1","1","1","1","1"
"250013","img/neutralC/CFD-MM-321-021-N.jpg","img/neutralC/CFD-IM-700-009-N.jpg","img/neutralC/CFD-BF-018-039-N.jpg","1","1","1","0","1","1","0.630633500011754","0.620648200012511","0.46118130000832","1","1","1","1","1","1","1","1","1"
"250013","img/neutralC/CFD-BF-018-039-N.jpg","img/neutralC/CFD-MM-321-021-N.jpg","img/neutralC/CFD-MF-321-003-N.jpg","1","1","1","1","0","0","0.46118130000832","0.630633500011754","1.1215125000017","1","1","1","1","1","1","1","1","1"
"250013","img/neutralC/CFD-MF-321-003-N.jpg","img/neutralC/CFD-BF-018-039-N.jpg","img/neutralC/CFD-WF-027-003-N.jpg","1","1","1","0","1","1","1.1215125000017","0.46118130000832","0.581629600012093","1","1","1","1","1","1","1","1","1"
"250013","img/neutralC/CFD-WF-027-003-N.jpg","img/neutralC/CFD-MF-321-003-N.jpg","img/neutralC/CFD-AF-232-078-N.jpg","1","1","1","1","0","1","0.581629600012093","1.1215125000017","0.441960199997993","1","1","1","1","1","1","1","1","1"
"250013","img/neutralC/CFD-AF-232-078-N.jpg","img/neutralC/CFD-WF-027-003-N.jpg","img/neutralC/CFD-BM-204-003-N.jpg","1","1","1","1","1","0","0.441960199997993","0.581629600012093","0.703215300003649","1","1","1","1","1","1","1","1","1"
"250013","img/neutralC/CFD-BM-204-003-N.jpg","img/neutralC/CFD-AF-232-078-N.jpg","img/neutralC/CFD-IM-627-178-N.jpg","1","1","1","0","1","1","0.703215300003649","0.441960199997993","0.762881499991636","1","1","1","1","1","1","1","1","1"
"250013","img/neutralC/CFD-IM-627-178-N.jpg","img/neutralC/CFD-BM-204-003-N.jpg","img/neutralC/CFD-LM-253-075-N.jpg","1","1","1","1","0","0","0.762881499991636","0.703215300003649","0.516364099996281","1","1","1","1","1","1","1","1","1"
"250013","img/neutralC/CFD-LM-253-075-N.jpg","img/neutralC/CFD-IM-627-178-N.jpg","img/neutralC/CFD-IF-629-234-N.jpg","1","1","1","0","1","0","0.516364099996281","0.762881499991636","0.58899659999588","1","1","1","1","1","1","1","1","1"
"250013","img/neutralC/CFD-IF-629-234-N.jpg","img/neutralC/CFD-LM-253-075-N.jpg","img/neutralC/CFD-AM-244-222-N.jpg","1","1","1","0","0","0","0.58899659999588","0.516364099996281","0.581674600005499","1","1","1","1","1","1","1","1","1"
"250013","img/neutralC/CFD-AM-244-222-N.jpg","img/neutralC/CFD-IF-629-234-N.jpg","img/neutralC/CFD-BF-218-207-N.jpg","1","1","1","0","0","1","0.581674600005499","0.58899659999588","0.490366600002744","1","1","1","1","1","1","1","1","1"
"250013","img/neutralC/CFD-BF-218-207-N.jpg","img/neutralC/CFD-AM-244-222-N.jpg","img/neutralC/CFD-MF-342-022-N.jpg","1","1","1","1","0","1","0.490366600002744","0.581674600005499","0.556462900000042","1","1","1","1","1","1","1","1","1"
"250013","img/neutralC/CFD-MF-342-022-N.jpg","img/neutralC/CFD-BF-218-207-N.jpg",NA,"1","1",NA,"1","1",NA,"0.556462900000042","0.490366600002744",NA,"1","1",NA,"1","1",NA,"1","1",NA
"250013","img/neutralC/CFD-MF-313-002-N.jpg",NA,"img/neutralC/CFD-WM-242-011-N.jpg","0",NA,"1","0",NA,"0","1.04618930000288",NA,"0.490268699999433","1",NA,"1","1",NA,"1","1",NA,"1"
"250013","img/neutralC/CFD-WM-242-011-N.jpg","img/neutralC/CFD-MF-313-002-N.jpg","img/neutralC/CFD-WM-227-099-N.jpg","1","0","1","0","0","1","0.490268699999433","1.04618930000288","0.513970999993035","1","1","1","1","1","1","1","1","1"
"250013","img/neutralC/CFD-WM-227-099-N.jpg","img/neutralC/CFD-WM-242-011-N.jpg","img/neutralC/CFD-WM-017-002-N.jpg","1","1","1","1","0","0","0.513970999993035","0.490268699999433","0.639648900003522","1","1","1","1","1","1","1","1","1"
"250013","img/neutralC/CFD-WM-017-002-N.jpg","img/neutralC/CFD-WM-227-099-N.jpg","img/neutralC/CFD-BM-005-003-N.jpg","1","1","1","0","1","1","0.639648900003522","0.513970999993035","0.518547500003478","1","1","1","1","1","1","1","1","1"
"250013","img/neutralC/CFD-BM-005-003-N.jpg","img/neutralC/CFD-WM-017-002-N.jpg","img/neutralC/CFD-LF-242-121-N.jpg","1","1","1","1","0","0","0.518547500003478","0.639648900003522","0.523517000008724","1","1","1","1","1","1","1","1","1"
"250013","img/neutralC/CFD-LF-242-121-N.jpg","img/neutralC/CFD-BM-005-003-N.jpg","img/neutralC/CFD-IM-727-195-N.jpg","1","1","1","0","1","1","0.523517000008724","0.518547500003478","0.436146799998824","1","1","1","1","1","1","1","1","1"
"250013","img/neutralC/CFD-IM-727-195-N.jpg","img/neutralC/CFD-LF-242-121-N.jpg","img/neutralC/CFD-BM-212-117-N.jpg","1","1","1","1","0","0","0.436146799998824","0.523517000008724","0.429751599993324","1","1","1","1","1","1","1","1","1"
"250013","img/neutralC/CFD-BM-212-117-N.jpg","img/neutralC/CFD-IM-727-195-N.jpg","img/neutralC/CFD-BM-018-001-N.jpg","1","1","1","0","1","1","0.429751599993324","0.436146799998824","0.388508800009731","1","1","1","1","1","1","1","1","1"
"250013","img/neutralC/CFD-BM-018-001-N.jpg","img/neutralC/CFD-BM-212-117-N.jpg","img/neutralC/CFD-WF-209-052-N.jpg","1","1","1","1","0","1","0.388508800009731","0.429751599993324","0.660508000000846","1","1","1","1","1","1","1","1","1"
"250013","img/neutralC/CFD-WF-209-052-N.jpg","img/neutralC/CFD-BM-018-001-N.jpg","img/neutralC/CFD-IF-620-218-N.jpg","1","1","1","1","1","0","0.660508000000846","0.388508800009731","0.486006799997995","1","1","1","1","1","1","1","1","1"
"250013","img/neutralC/CFD-IF-620-218-N.jpg","img/neutralC/CFD-WF-209-052-N.jpg","img/neutralC/CFD-LM-226-175-N.jpg","1","1","1","0","1","0","0.486006799997995","0.660508000000846","0.490185600006953","1","1","1","1","1","1","1","1","1"
"250013","img/neutralC/CFD-LM-226-175-N.jpg","img/neutralC/CFD-IF-620-218-N.jpg","img/neutralC/CFD-BF-033-028-N.jpg","1","1","1","0","0","0","0.490185600006953","0.486006799997995","0.42455890000565","1","1","1","1","1","1","1","1","1"
"250013","img/neutralC/CFD-BF-033-028-N.jpg","img/neutralC/CFD-LM-226-175-N.jpg","img/neutralC/CFD-LF-247-051-N.jpg","1","1","1","0","0","1","0.42455890000565","0.490185600006953","0.364899300009711","1","1","1","1","1","1","1","1","1"
"250013","img/neutralC/CFD-LF-247-051-N.jpg","img/neutralC/CFD-BF-033-028-N.jpg","img/neutralC/CFD-BM-026-002-N.jpg","1","1","1","1","0","0","0.364899300009711","0.42455890000565","0.544264099997235","1","1","1","1","1","1","1","1","1"
"250013","img/neutralC/CFD-BM-026-002-N.jpg","img/neutralC/CFD-LF-247-051-N.jpg","img/neutralC/CFD-LF-245-166-N.jpg","1","1","1","0","1","1","0.544264099997235","0.364899300009711","0.536258800013456","1","1","1","1","1","1","1","1","1"
"250013","img/neutralC/CFD-LF-245-166-N.jpg","img/neutralC/CFD-BM-026-002-N.jpg","img/neutralC/CFD-LM-219-295-N.jpg","1","1","1","1","0","1","0.536258800013456","0.544264099997235","0.399382400006289","1","1","1","1","1","1","1","1","1"
"250013","img/neutralC/CFD-LM-219-295-N.jpg","img/neutralC/CFD-LF-245-166-N.jpg","img/neutralC/CFD-IM-638-250-1-N.jpg","1","1","1","1","1","1","0.399382400006289","0.536258800013456","0.433758500003023","1","1","1","1","1","1","1","1","1"
"250013","img/neutralC/CFD-IM-638-250-1-N.jpg","img/neutralC/CFD-LM-219-295-N.jpg","img/neutralC/CFD-IM-686-097-N.jpg","1","1","1","1","1","0","0.433758500003023","0.399382400006289","0.462306100002024","1","1","1","1","1","1","1","1","1"
"250013","img/neutralC/CFD-IM-686-097-N.jpg","img/neutralC/CFD-IM-638-250-1-N.jpg","img/neutralC/CFD-LM-233-171-N.jpg","1","1","1","0","1","0","0.462306100002024","0.433758500003023","0.457429000001866","1","1","1","1","1","1","1","1","1"
"250013","img/neutralC/CFD-LM-233-171-N.jpg","img/neutralC/CFD-IM-686-097-N.jpg","img/neutralC/CFD-AF-202-122-N.jpg","1","1","1","0","0","1","0.457429000001866","0.462306100002024","0.463971199991647","1","1","1","1","1","1","1","1","1"
"250013","img/neutralC/CFD-AF-202-122-N.jpg","img/neutralC/CFD-LM-233-171-N.jpg","img/neutralC/CFD-WM-258-125-N.jpg","1","1","1","1","0","0","0.463971199991647","0.457429000001866","0.475765800001682","1","1","1","1","1","1","1","1","1"
"250013","img/neutralC/CFD-WM-258-125-N.jpg","img/neutralC/CFD-AF-202-122-N.jpg","img/neutralC/CFD-AF-241-141-N.jpg","1","1","1","0","1","1","0.475765800001682","0.463971199991647","0.808358399997815","1","1","1","1","1","1","1","1","1"
"250013","img/neutralC/CFD-AF-241-141-N.jpg","img/neutralC/CFD-WM-258-125-N.jpg","img/neutralC/CFD-BF-238-190-N.jpg","1","1","1","1","0","1","0.808358399997815","0.475765800001682","0.458555400007754","1","1","1","1","1","1","1","1","1"
"250013","img/neutralC/CFD-BF-238-190-N.jpg","img/neutralC/CFD-AF-241-141-N.jpg","img/neutralC/CFD-AF-206-079-N.jpg","1","1","1","1","1","1","0.458555400007754","0.808358399997815","0.433650299994042","1","1","1","1","1","1","1","1","1"
"250013","img/neutralC/CFD-AF-206-079-N.jpg","img/neutralC/CFD-BF-238-190-N.jpg","img/neutralC/CFD-IM-657-308-N.jpg","1","1","1","1","1","0","0.433650299994042","0.458555400007754","0.540424999999232","1","1","1","1","1","1","1","1","1"
"250013","img/neutralC/CFD-IM-657-308-N.jpg","img/neutralC/CFD-AF-206-079-N.jpg","img/neutralC/CFD-IF-665-015-N.jpg","1","1","0","0","1","0","0.540424999999232","0.433650299994042","0.443731699997443","1","1","1","1","1","1","1","1","1"
"250013","img/neutralC/CFD-IF-665-015-N.jpg","img/neutralC/CFD-IM-657-308-N.jpg","img/neutralC/CFD-BF-010-001-N.jpg","0","1","1","0","0","1","0.443731699997443","0.540424999999232","0.526652800006559","1","1","1","1","1","1","1","1","1"
"250013","img/neutralC/CFD-BF-010-001-N.jpg","img/neutralC/CFD-IF-665-015-N.jpg","img/neutralC/CFD-IM-617-174-N.jpg","1","0","1","1","0","0","0.526652800006559","0.443731699997443","0.5373821999965","1","1","1","1","1","1","1","1","1"
"250013","img/neutralC/CFD-IM-617-174-N.jpg","img/neutralC/CFD-BF-010-001-N.jpg","img/neutralC/CFD-BM-231-155-N.jpg","1","1","1","0","1","1","0.5373821999965","0.526652800006559","0.592476100006024","1","1","1","1","1","1","1","1","1"
"250013","img/neutralC/CFD-BM-231-155-N.jpg","img/neutralC/CFD-IM-617-174-N.jpg","img/neutralC/CFD-IM-653-008-N.jpg","1","1","1","1","0","0","0.592476100006024","0.5373821999965","0.582917700012331","1","1","1","1","1","1","1","1","1"
"250013","img/neutralC/CFD-IM-653-008-N.jpg","img/neutralC/CFD-BM-231-155-N.jpg","img/neutralC/CFD-LF-250-169-N.jpg","1","1","1","0","1","1","0.582917700012331","0.592476100006024","0.434355299992603","1","1","1","1","1","1","1","1","1"
"250013","img/neutralC/CFD-LF-250-169-N.jpg","img/neutralC/CFD-IM-653-008-N.jpg",NA,"1","1",NA,"1","0",NA,"0.434355299992603","0.582917700012331",NA,"1","1",NA,"1","1",NA,"1","1",NA
"250013","img/neutralC/CFD-AF-227-207-N.jpg",NA,"img/neutralC/CFD-WF-006-002-N.jpg","1",NA,"1","1",NA,"0","0.593712500005495",NA,"0.736414300001343","1",NA,"1","1",NA,"1","1",NA,"1"
"250013","img/neutralC/CFD-WF-006-002-N.jpg","img/neutralC/CFD-AF-227-207-N.jpg","img/neutralC/CFD-MF-312-002-N.jpg","1","1","1","0","1","1","0.736414300001343","0.593712500005495","0.425627399992663","1","1","1","1","1","1","1","1","1"
"250013","img/neutralC/CFD-MF-312-002-N.jpg","img/neutralC/CFD-WF-006-002-N.jpg","img/neutralC/CFD-LF-208-127-N.jpg","1","1","1","1","0","0","0.425627399992663","0.736414300001343","0.473913800014998","1","1","1","1","1","1","1","1","1"
"250013","img/neutralC/CFD-LF-208-127-N.jpg","img/neutralC/CFD-MF-312-002-N.jpg","img/neutralC/CFD-IF-673-389-N.jpg","1","1","1","0","1","0","0.473913800014998","0.425627399992663","0.858818199994857","1","1","1","1","1","1","1","1","1"
"250013","img/neutralC/CFD-IF-673-389-N.jpg","img/neutralC/CFD-LF-208-127-N.jpg","img/neutralC/CFD-BM-028-002-N.jpg","1","1","1","0","0","1","0.858818199994857","0.473913800014998","0.808451999997487","1","1","1","1","1","1","1","1","1"
"250013","img/neutralC/CFD-BM-028-002-N.jpg","img/neutralC/CFD-IF-673-389-N.jpg","img/neutralC/CFD-WF-033-002-N.jpg","1","1","1","1","0","1","0.808451999997487","0.858818199994857","0.578284500006703","1","1","1","1","1","1","1","1","1"
"250013","img/neutralC/CFD-WF-033-002-N.jpg","img/neutralC/CFD-BM-028-002-N.jpg","img/neutralC/CFD-WF-223-133-N.jpg","1","1","0","1","1","0","0.578284500006703","0.808451999997487","0.374575600013486","1","1","1","1","1","1","1","1","1"
"250013","img/neutralC/CFD-WF-223-133-N.jpg","img/neutralC/CFD-WF-033-002-N.jpg","img/neutralC/CFD-WM-254-152-N.jpg","0","1","1","0","1","1","0.374575600013486","0.578284500006703","0.62590509999427","1","1","1","1","1","1","1","1","1"
"250013","img/neutralC/CFD-WM-254-152-N.jpg","img/neutralC/CFD-WF-223-133-N.jpg","img/neutralC/CFD-BF-222-240-N.jpg","1","0","1","1","0","0","0.62590509999427","0.374575600013486","0.551711599997361","1","1","1","1","1","1","1","1","1"
"250013","img/neutralC/CFD-BF-222-240-N.jpg","img/neutralC/CFD-WM-254-152-N.jpg","img/neutralC/CFD-LF-210-220-N.jpg","1","1","1","0","1","1","0.551711599997361","0.62590509999427","0.606141299998853","1","1","1","1","1","1","1","1","1"
"250013","img/neutralC/CFD-LF-210-220-N.jpg","img/neutralC/CFD-BF-222-240-N.jpg","img/neutralC/CFD-WM-228-065-N.jpg","1","1","1","1","0","0","0.606141299998853","0.551711599997361","0.468428100008168","1","1","1","1","1","1","1","1","1"
"250013","img/neutralC/CFD-WM-228-065-N.jpg","img/neutralC/CFD-LF-210-220-N.jpg","img/neutralC/CFD-BF-045-003-N.jpg","1","1","1","0","1","0","0.468428100008168","0.606141299998853","0.409601800012751","1","1","1","1","1","1","1","1","1"
"250013","img/neutralC/CFD-BF-045-003-N.jpg","img/neutralC/CFD-WM-228-065-N.jpg","img/neutralC/CFD-AF-239-171-N.jpg","1","1","1","0","0","1","0.409601800012751","0.468428100008168","0.397385000003851","1","1","1","1","1","1","1","1","1"
"250013","img/neutralC/CFD-AF-239-171-N.jpg","img/neutralC/CFD-BF-045-003-N.jpg","img/neutralC/CFD-IF-744-114-N.jpg","1","1","1","1","0","0","0.397385000003851","0.409601800012751","0.790394000010565","1","1","1","1","1","1","1","1","1"
"250013","img/neutralC/CFD-IF-744-114-N.jpg","img/neutralC/CFD-AF-239-171-N.jpg","img/neutralC/CFD-BM-013-002-N.jpg","1","1","1","0","1","1","0.790394000010565","0.397385000003851","0.765008200003649","1","1","1","1","1","1","1","1","1"
"250013","img/neutralC/CFD-BM-013-002-N.jpg","img/neutralC/CFD-IF-744-114-N.jpg","img/neutralC/CFD-IM-701-312-N.jpg","1","1","1","1","0","0","0.765008200003649","0.790394000010565","0.729431200015824","1","1","1","1","1","1","1","1","1"
"250013","img/neutralC/CFD-IM-701-312-N.jpg","img/neutralC/CFD-BM-013-002-N.jpg","img/neutralC/CFD-LF-241-188-N.jpg","1","1","1","0","1","0","0.729431200015824","0.765008200003649","1.34401420000358","1","1","1","1","1","1","1","1","1"
"250013","img/neutralC/CFD-LF-241-188-N.jpg","img/neutralC/CFD-IM-701-312-N.jpg","img/neutralC/CFD-IM-659-359-N.jpg","1","1","1","0","0","0","1.34401420000358","0.729431200015824","0.607718400002341","1","1","1","1","1","1","1","1","1"
"250013","img/neutralC/CFD-IM-659-359-N.jpg","img/neutralC/CFD-LF-241-188-N.jpg","img/neutralC/CFD-LM-247-095-N.jpg","1","1","1","0","0","0","0.607718400002341","1.34401420000358","1.15603110000666","1","1","1","1","1","1","1","1","1"
"250013","img/neutralC/CFD-LM-247-095-N.jpg","img/neutralC/CFD-IM-659-359-N.jpg","img/neutralC/CFD-BM-003-003-N.jpg","1","1","1","0","0","0","1.15603110000666","0.607718400002341","0.54927730000054","1","1","1","1","1","1","1","1","1"
"250013","img/neutralC/CFD-BM-003-003-N.jpg","img/neutralC/CFD-LM-247-095-N.jpg","img/neutralC/CFD-IM-738-191-N.jpg","1","1","1","0","0","0","0.54927730000054","1.15603110000666","0.525649600007455","1","1","1","1","1","1","1","1","1"
"250013","img/neutralC/CFD-IM-738-191-N.jpg","img/neutralC/CFD-BM-003-003-N.jpg","img/neutralC/CFD-BF-004-014-N.jpg","1","1","1","0","0","1","0.525649600007455","0.54927730000054","0.493514400004642","1","1","1","1","1","1","1","1","1"
"250013","img/neutralC/CFD-BF-004-014-N.jpg","img/neutralC/CFD-IM-738-191-N.jpg","img/neutralC/CFD-BM-213-134-N.jpg","1","1","1","1","0","1","0.493514400004642","0.525649600007455","0.570765600001323","1","1","1","1","1","1","1","1","1"
"250013","img/neutralC/CFD-BM-213-134-N.jpg","img/neutralC/CFD-BF-004-014-N.jpg","img/neutralC/CFD-AM-221-184-N.jpg","1","1","1","1","1","1","0.570765600001323","0.493514400004642","0.54934549999598","1","1","1","1","1","1","1","1","1"
"250013","img/neutralC/CFD-AM-221-184-N.jpg","img/neutralC/CFD-BM-213-134-N.jpg","img/neutralC/CFD-IF-625-225-N.jpg","1","1","1","1","1","0","0.54934549999598","0.570765600001323","0.464223799994215","1","1","1","1","1","1","1","1","1"
"250013","img/neutralC/CFD-IF-625-225-N.jpg","img/neutralC/CFD-AM-221-184-N.jpg","img/neutralC/CFD-AF-210-050-N.jpg","1","1","1","0","1","1","0.464223799994215","0.54934549999598","0.551559800005634","1","1","1","1","1","1","1","1","1"
"250013","img/neutralC/CFD-AF-210-050-N.jpg","img/neutralC/CFD-IF-625-225-N.jpg","img/neutralC/CFD-MF-336-016-N.jpg","1","1","1","1","0","1","0.551559800005634","0.464223799994215","0.596297500000219","1","1","1","1","1","1","1","1","1"
"250013","img/neutralC/CFD-MF-336-016-N.jpg","img/neutralC/CFD-AF-210-050-N.jpg","img/neutralC/CFD-WM-202-107-N.jpg","1","1","1","1","1","1","0.596297500000219","0.551559800005634","0.633930099997087","1","1","1","1","1","1","1","1","1"
"250013","img/neutralC/CFD-WM-202-107-N.jpg","img/neutralC/CFD-MF-336-016-N.jpg","img/neutralC/CFD-BM-010-003-N.jpg","1","1","0","1","1","0","0.633930099997087","0.596297500000219","1.77583520000917","1","1","1","1","1","1","1","1","1"
"250013","img/neutralC/CFD-BM-010-003-N.jpg","img/neutralC/CFD-WM-202-107-N.jpg","img/neutralC/CFD-LM-238-129-N.jpg","0","1","1","0","1","1","1.77583520000917","0.633930099997087","0.476438400000916","1","1","1","1","1","1","1","1","1"
"250013","img/neutralC/CFD-LM-238-129-N.jpg","img/neutralC/CFD-BM-010-003-N.jpg","img/neutralC/CFD-LF-225-164-N.jpg","1","0","1","1","0","1","0.476438400000916","1.77583520000917","0.473139300011098","1","1","1","1","1","1","1","1","1"
"250013","img/neutralC/CFD-LF-225-164-N.jpg","img/neutralC/CFD-LM-238-129-N.jpg",NA,"1","1",NA,"1","1",NA,"0.473139300011098","0.476438400000916",NA,"1","1",NA,"1","1",NA,"1","1",NA
"250013","img/neutralC/CFD-LM-215-247-N.jpg",NA,"img/neutralC/CFD-BM-239-136-N.jpg","1",NA,"1","0",NA,"1","0.586226100000204",NA,"0.467577400006121","1",NA,"1","1",NA,"1","1",NA,"1"
"250013","img/neutralC/CFD-BM-239-136-N.jpg","img/neutralC/CFD-LM-215-247-N.jpg","img/neutralC/CFD-BF-029-031-N.jpg","1","1","1","1","0","1","0.467577400006121","0.586226100000204","0.786702800003695","1","1","1","1","1","1","1","1","1"
"250013","img/neutralC/CFD-BF-029-031-N.jpg","img/neutralC/CFD-BM-239-136-N.jpg","img/neutralC/CFD-BF-253-202-N.jpg","1","1","1","1","1","0","0.786702800003695","0.467577400006121","0.962291700008791","1","1","1","1","1","1","1","1","1"
"250013","img/neutralC/CFD-BF-253-202-N.jpg","img/neutralC/CFD-BF-029-031-N.jpg","img/neutralC/CFD-BF-039-031-N.jpg","1","1","1","0","1","1","0.962291700008791","0.786702800003695","0.530047700012801","1","1","1","1","1","1","1","1","1"
"250013","img/neutralC/CFD-BF-039-031-N.jpg","img/neutralC/CFD-BF-253-202-N.jpg","img/neutralC/CFD-LM-218-183-N.jpg","1","1","1","1","0","1","0.530047700012801","0.962291700008791","0.626941900001839","1","1","1","1","1","1","1","1","1"
"250013","img/neutralC/CFD-LM-218-183-N.jpg","img/neutralC/CFD-BF-039-031-N.jpg","img/neutralC/CFD-AM-212-050-N.jpg","1","1","1","1","1","1","0.626941900001839","0.530047700012801","0.568922800011933","1","1","1","1","1","1","1","1","1"
"250013","img/neutralC/CFD-AM-212-050-N.jpg","img/neutralC/CFD-LM-218-183-N.jpg","img/neutralC/CFD-LF-224-176-N.jpg","1","1","1","1","1","0","0.568922800011933","0.626941900001839","0.633846199998516","1","1","1","1","1","1","1","1","1"
"250013","img/neutralC/CFD-LF-224-176-N.jpg","img/neutralC/CFD-AM-212-050-N.jpg","img/neutralC/CFD-WM-021-001-N.jpg","1","1","1","0","1","1","0.633846199998516","0.568922800011933","0.772551100002602","1","1","1","1","1","1","1","1","1"
"250013","img/neutralC/CFD-WM-021-001-N.jpg","img/neutralC/CFD-LF-224-176-N.jpg","img/neutralC/CFD-BF-213-188-N.jpg","1","1","1","1","0","1","0.772551100002602","0.633846199998516","0.59391450000112","1","1","1","1","1","1","1","1","1"
"250013","img/neutralC/CFD-BF-213-188-N.jpg","img/neutralC/CFD-WM-021-001-N.jpg","img/neutralC/CFD-LF-205-100-N.jpg","1","1","1","1","1","1","0.59391450000112","0.772551100002602","0.516959100001259","1","1","1","1","1","1","1","1","1"
"250013","img/neutralC/CFD-LF-205-100-N.jpg","img/neutralC/CFD-BF-213-188-N.jpg","img/neutralC/CFD-BM-033-003-N.jpg","1","1","1","1","1","0","0.516959100001259","0.59391450000112","0.510651799995685","1","1","1","1","1","1","1","1","1"
"250013","img/neutralC/CFD-BM-033-003-N.jpg","img/neutralC/CFD-LF-205-100-N.jpg","img/neutralC/CFD-IM-651-308-N.jpg","1","1","1","0","1","0","0.510651799995685","0.516959100001259","0.846203900000546","1","1","1","1","1","1","1","1","1"
"250013","img/neutralC/CFD-IM-651-308-N.jpg","img/neutralC/CFD-BM-033-003-N.jpg","img/neutralC/CFD-MF-337-026-N.jpg","1","1","1","0","0","1","0.846203900000546","0.510651799995685","0.543834700001753","1","1","1","1","1","1","1","1","1"
"250013","img/neutralC/CFD-MF-337-026-N.jpg","img/neutralC/CFD-IM-651-308-N.jpg","img/neutralC/CFD-WF-213-031-N.jpg","1","1","1","1","0","1","0.543834700001753","0.846203900000546","0.502651200004038","1","1","1","1","1","1","1","1","1"
"250013","img/neutralC/CFD-WF-213-031-N.jpg","img/neutralC/CFD-MF-337-026-N.jpg","img/neutralC/CFD-AM-201-076-N.jpg","1","1","1","1","1","1","0.502651200004038","0.543834700001753","0.492946200000006","1","1","1","1","1","1","1","1","1"
"250013","img/neutralC/CFD-AM-201-076-N.jpg","img/neutralC/CFD-WF-213-031-N.jpg","img/neutralC/CFD-IM-684-008-N.jpg","1","1","1","1","1","1","0.492946200000006","0.502651200004038","0.471926800004439","1","1","1","1","1","1","1","1","1"
"250013","img/neutralC/CFD-IM-684-008-N.jpg","img/neutralC/CFD-AM-201-076-N.jpg","img/neutralC/CFD-WM-011-002-N.jpg","1","1","1","1","1","0","0.471926800004439","0.492946200000006","0.536297500002547","1","1","1","1","1","1","1","1","1"
"250013","img/neutralC/CFD-WM-011-002-N.jpg","img/neutralC/CFD-IM-684-008-N.jpg","img/neutralC/CFD-WF-250-167-N.jpg","1","1","1","0","1","1","0.536297500002547","0.471926800004439","0.81812959999661","1","1","1","1","1","1","1","1","1"
"250013","img/neutralC/CFD-WF-250-167-N.jpg","img/neutralC/CFD-WM-011-002-N.jpg","img/neutralC/CFD-LF-214-090-N.jpg","1","1","1","1","0","0","0.81812959999661","0.536297500002547","0.631732599998941","1","1","1","1","1","1","1","1","1"
"250013","img/neutralC/CFD-LF-214-090-N.jpg","img/neutralC/CFD-WF-250-167-N.jpg","img/neutralC/CFD-LF-203-066-N.jpg","1","1","1","0","1","0","0.631732599998941","0.81812959999661","0.509881600009976","1","1","1","1","1","1","1","1","1"
"250013","img/neutralC/CFD-LF-203-066-N.jpg","img/neutralC/CFD-LF-214-090-N.jpg","img/neutralC/CFD-BF-205-141-N.jpg","1","1","1","0","0","0","0.509881600009976","0.631732599998941","0.506791599997086","1","1","1","1","1","1","1","1","1"
"250013","img/neutralC/CFD-BF-205-141-N.jpg","img/neutralC/CFD-LF-203-066-N.jpg","img/neutralC/CFD-IF-634-382-N.jpg","1","1","1","0","0","1","0.506791599997086","0.509881600009976","0.518217300006654","1","1","1","1","1","1","1","1","1"
"250013","img/neutralC/CFD-IF-634-382-N.jpg","img/neutralC/CFD-BF-205-141-N.jpg","img/neutralC/CFD-AF-231-357-N.jpg","1","1","1","1","0","1","0.518217300006654","0.506791599997086","0.509899700002279","1","1","1","1","1","1","1","1","1"
"250013","img/neutralC/CFD-AF-231-357-N.jpg","img/neutralC/CFD-IF-634-382-N.jpg","img/neutralC/CFD-WM-041-021-N.jpg","1","1","1","1","1","0","0.509899700002279","0.518217300006654","0.685266400003457","1","1","1","1","1","1","1","1","1"
"250013","img/neutralC/CFD-WM-041-021-N.jpg","img/neutralC/CFD-AF-231-357-N.jpg","img/neutralC/CFD-LF-230-203-N.jpg","1","1","1","0","1","0","0.685266400003457","0.509899700002279","0.649210699994001","1","1","1","1","1","1","1","1","1"
"250013","img/neutralC/CFD-LF-230-203-N.jpg","img/neutralC/CFD-WM-041-021-N.jpg","img/neutralC/CFD-MM-316-156-N.jpg","1","1","1","0","0","1","0.649210699994001","0.685266400003457","0.844319100011489","1","1","1","1","1","1","1","1","1"
"250013","img/neutralC/CFD-MM-316-156-N.jpg","img/neutralC/CFD-LF-230-203-N.jpg","img/neutralC/CFD-BM-041-035-N.jpg","1","1","1","1","0","0","0.844319100011489","0.649210699994001","0.636737300010282","1","1","1","1","1","1","1","1","1"
"250013","img/neutralC/CFD-BM-041-035-N.jpg","img/neutralC/CFD-MM-316-156-N.jpg","img/neutralC/CFD-IF-693-172-N.jpg","1","1","1","0","1","0","0.636737300010282","0.844319100011489","0.517530199998873","1","1","1","1","1","1","1","1","1"
"250013","img/neutralC/CFD-IF-693-172-N.jpg","img/neutralC/CFD-BM-041-035-N.jpg","img/neutralC/CFD-IF-710-016-N.jpg","1","1","1","0","0","0","0.517530199998873","0.636737300010282","0.587177600013092","1","1","1","1","1","1","1","1","1"
"250013","img/neutralC/CFD-IF-710-016-N.jpg","img/neutralC/CFD-IF-693-172-N.jpg","img/neutralC/CFD-BM-019-002-N.jpg","1","1","1","0","0","0","0.587177600013092","0.517530199998873","0.598397800000384","1","1","1","1","1","1","1","1","1"
"250013","img/neutralC/CFD-BM-019-002-N.jpg","img/neutralC/CFD-IF-710-016-N.jpg","img/neutralC/CFD-WF-224-099-N.jpg","1","1","0","0","0","0","0.598397800000384","0.587177600013092","0.979118899995228","1","1","1","1","1","1","1","1","1"
"250013","img/neutralC/CFD-WF-224-099-N.jpg","img/neutralC/CFD-BM-019-002-N.jpg",NA,"0","1",NA,"0","0",NA,"0.979118899995228","0.598397800000384",NA,"1","1",NA,"1","1",NA,"1","1",NA
"250013","img/neutralC/CFD-IM-674-281-N.jpg",NA,"img/neutralC/CFD-AM-215-120-N.jpg","1",NA,"1","1",NA,"1","0.793111299994052",NA,"0.478466400003526","1",NA,"1","1",NA,"1","1",NA,"1"
"250013","img/neutralC/CFD-AM-215-120-N.jpg","img/neutralC/CFD-IM-674-281-N.jpg","img/neutralC/CFD-BF-208-266-N.jpg","1","1","1","1","1","0","0.478466400003526","0.793111299994052","0.756824600000982","1","1","1","1","1","1","1","1","1"
"250013","img/neutralC/CFD-BF-208-266-N.jpg","img/neutralC/CFD-AM-215-120-N.jpg","img/neutralC/CFD-BF-201-080-N.jpg","1","1","1","0","1","1","0.756824600000982","0.478466400003526","0.570620200000121","1","1","1","1","1","1","1","1","1"
"250013","img/neutralC/CFD-BF-201-080-N.jpg","img/neutralC/CFD-BF-208-266-N.jpg","img/neutralC/CFD-WM-002-009-N.jpg","1","1","1","1","0","0","0.570620200000121","0.756824600000982","0.498944300008588","1","1","1","1","1","1","1","1","1"
"250013","img/neutralC/CFD-WM-002-009-N.jpg","img/neutralC/CFD-BF-201-080-N.jpg","img/neutralC/CFD-BF-003-003-N.jpg","1","1","1","0","1","0","0.498944300008588","0.570620200000121","0.561475300011807","1","1","1","1","1","1","1","1","1"
"250013","img/neutralC/CFD-BF-003-003-N.jpg","img/neutralC/CFD-WM-002-009-N.jpg","img/neutralC/CFD-WM-040-022-N.jpg","1","1","1","0","0","0","0.561475300011807","0.498944300008588","0.519925100001274","1","1","1","1","1","1","1","1","1"
"250013","img/neutralC/CFD-WM-040-022-N.jpg","img/neutralC/CFD-BF-003-003-N.jpg","img/neutralC/CFD-WF-026-002-N.jpg","1","1","1","0","0","1","0.519925100001274","0.561475300011807","0.562473500001943","1","1","1","1","1","1","1","1","1"
"250013","img/neutralC/CFD-WF-026-002-N.jpg","img/neutralC/CFD-WM-040-022-N.jpg","img/neutralC/CFD-BF-028-001-N.jpg","1","1","1","1","0","1","0.562473500001943","0.519925100001274","0.525748400003067","1","1","1","1","1","1","1","1","1"
"250013","img/neutralC/CFD-BF-028-001-N.jpg","img/neutralC/CFD-WF-026-002-N.jpg","img/neutralC/CFD-BM-029-024-N.jpg","1","1","1","1","1","1","0.525748400003067","0.562473500001943","0.420648200015421","1","1","1","1","1","1","1","1","1"
"250013","img/neutralC/CFD-BM-029-024-N.jpg","img/neutralC/CFD-BF-028-001-N.jpg","img/neutralC/CFD-BF-204-189-N.jpg","1","1","1","1","1","1","0.420648200015421","0.525748400003067","0.581865499989362","1","1","1","1","1","1","1","1","1"
"250013","img/neutralC/CFD-BF-204-189-N.jpg","img/neutralC/CFD-BM-029-024-N.jpg","img/neutralC/CFD-IM-728-041-N.jpg","1","1","1","1","1","0","0.581865499989362","0.420648200015421","0.743851699997322","1","1","1","1","1","1","1","1","1"
"250013","img/neutralC/CFD-IM-728-041-N.jpg","img/neutralC/CFD-BF-204-189-N.jpg","img/neutralC/CFD-BM-015-015-N.jpg","1","1","1","0","1","0","0.743851699997322","0.581865499989362","0.548892999999225","1","1","1","1","1","1","1","1","1"
"250013","img/neutralC/CFD-BM-015-015-N.jpg","img/neutralC/CFD-IM-728-041-N.jpg","img/neutralC/CFD-MM-319-052-N.jpg","1","1","1","0","0","1","0.548892999999225","0.743851699997322","0.595667700006743","1","1","1","1","1","1","1","1","1"
"250013","img/neutralC/CFD-MM-319-052-N.jpg","img/neutralC/CFD-BM-015-015-N.jpg","img/neutralC/CFD-AM-235-241-N.jpg","1","1","1","1","0","0","0.595667700006743","0.548892999999225","0.494525900008739","1","1","1","1","1","1","1","1","1"
"250013","img/neutralC/CFD-AM-235-241-N.jpg","img/neutralC/CFD-MM-319-052-N.jpg","img/neutralC/CFD-BM-211-174-N.jpg","1","1","1","0","1","0","0.494525900008739","0.595667700006743","0.496802000008756","1","1","1","1","1","1","1","1","1"
"250013","img/neutralC/CFD-BM-211-174-N.jpg","img/neutralC/CFD-AM-235-241-N.jpg","img/neutralC/CFD-WM-225-127-N.jpg","1","1","1","0","0","0","0.496802000008756","0.494525900008739","0.578330400006962","1","1","1","1","1","1","1","1","1"
"250013","img/neutralC/CFD-WM-225-127-N.jpg","img/neutralC/CFD-BM-211-174-N.jpg","img/neutralC/CFD-WF-022-017-N.jpg","1","1","1","0","0","0","0.578330400006962","0.496802000008756","0.516944899994996","1","1","1","1","1","1","1","1","1"
"250013","img/neutralC/CFD-WF-022-017-N.jpg","img/neutralC/CFD-WM-225-127-N.jpg","img/neutralC/CFD-WM-257-161-N.jpg","1","1","1","0","0","1","0.516944899994996","0.578330400006962","0.54911279999942","1","1","1","1","1","1","1","1","1"
"250013","img/neutralC/CFD-WM-257-161-N.jpg","img/neutralC/CFD-WF-022-017-N.jpg","img/neutralC/CFD-LF-216-121-N.jpg","1","1","1","1","0","1","0.54911279999942","0.516944899994996","0.541371600003913","1","1","1","1","1","1","1","1","1"
"250013","img/neutralC/CFD-LF-216-121-N.jpg","img/neutralC/CFD-WM-257-161-N.jpg","img/neutralC/CFD-WM-038-003-N.jpg","1","1","1","1","1","0","0.541371600003913","0.54911279999942","0.53174210000725","1","1","1","1","1","1","1","1","1"
"250013","img/neutralC/CFD-WM-038-003-N.jpg","img/neutralC/CFD-LF-216-121-N.jpg","img/neutralC/CFD-LF-236-221-N.jpg","1","1","1","0","1","1","0.53174210000725","0.541371600003913","0.487043100001756","1","1","1","1","1","1","1","1","1"
"250013","img/neutralC/CFD-LF-236-221-N.jpg","img/neutralC/CFD-WM-038-003-N.jpg","img/neutralC/CFD-BM-027-001-N.jpg","1","1","1","1","0","0","0.487043100001756","0.53174210000725","0.613955299995723","1","1","1","1","1","1","1","1","1"
"250013","img/neutralC/CFD-BM-027-001-N.jpg","img/neutralC/CFD-LF-236-221-N.jpg","img/neutralC/CFD-IM-639-263-N.jpg","1","1","1","0","1","1","0.613955299995723","0.487043100001756","0.741685800006962","1","1","1","1","1","1","1","1","1"
"250013","img/neutralC/CFD-IM-639-263-N.jpg","img/neutralC/CFD-BM-027-001-N.jpg","img/neutralC/CFD-IF-672-305-N.jpg","1","1","1","1","0","0","0.741685800006962","0.613955299995723","0.681428000010783","1","1","1","1","1","1","1","1","1"
"250013","img/neutralC/CFD-IF-672-305-N.jpg","img/neutralC/CFD-IM-639-263-N.jpg","img/neutralC/CFD-WF-002-004-N.jpg","1","1","1","0","1","0","0.681428000010783","0.741685800006962","0.892836400002125","1","1","1","1","1","1","1","1","1"
"250013","img/neutralC/CFD-WF-002-004-N.jpg","img/neutralC/CFD-IF-672-305-N.jpg","img/neutralC/CFD-BF-023-010-N.jpg","1","1","1","0","0","1","0.892836400002125","0.681428000010783","0.477125300007174","1","1","1","1","1","1","1","1","1"
"250013","img/neutralC/CFD-BF-023-010-N.jpg","img/neutralC/CFD-WF-002-004-N.jpg","img/neutralC/CFD-LM-252-076-N.jpg","1","1","1","1","0","1","0.477125300007174","0.892836400002125","0.476479999997537","1","1","1","1","1","1","1","1","1"
"250013","img/neutralC/CFD-LM-252-076-N.jpg","img/neutralC/CFD-BF-023-010-N.jpg","img/neutralC/CFD-IF-718-001-N.jpg","1","1","1","1","1","1","0.476479999997537","0.477125300007174","0.486439700005576","1","1","1","1","1","1","1","1","1"
"250013","img/neutralC/CFD-IF-718-001-N.jpg","img/neutralC/CFD-LM-252-076-N.jpg","img/neutralC/CFD-BF-255-140-N.jpg","1","1","1","1","1","1","0.486439700005576","0.476479999997537","0.430419999989681","1","1","1","1","1","1","1","1","1"
"250013","img/neutralC/CFD-BF-255-140-N.jpg","img/neutralC/CFD-IF-718-001-N.jpg","img/neutralC/CFD-BM-247-240-N.jpg","1","1","1","1","1","0","0.430419999989681","0.486439700005576","0.52043320001394","1","1","1","1","1","1","1","1","1"
"250013","img/neutralC/CFD-BM-247-240-N.jpg","img/neutralC/CFD-BF-255-140-N.jpg","img/neutralC/CFD-AM-217-085-N.jpg","1","1","1","0","1","0","0.52043320001394","0.430419999989681","0.527095900004497","1","1","1","1","1","1","1","1","1"
"250013","img/neutralC/CFD-AM-217-085-N.jpg","img/neutralC/CFD-BM-247-240-N.jpg",NA,"1","1",NA,"0","0",NA,"0.527095900004497","0.52043320001394",NA,"1","1",NA,"1","1",NA,"1","1",NA
"250013","img/neutralC/CFD-AF-246-242-N.jpg",NA,"img/neutralC/CFD-IF-636-011-N.jpg","0",NA,"1","0",NA,"1","0.828373500000453",NA,"0.503693799997563","1",NA,"1","1",NA,"1","1",NA,"1"
"250013","img/neutralC/CFD-IF-636-011-N.jpg","img/neutralC/CFD-AF-246-242-N.jpg","img/neutralC/CFD-WF-235-121-N.jpg","1","0","0","1","0","0","0.503693799997563","0.828373500000453","0.450853599992115","1","1","1","1","1","1","1","1","1"
"250013","img/neutralC/CFD-WF-235-121-N.jpg","img/neutralC/CFD-IF-636-011-N.jpg","img/neutralC/CFD-BF-020-002-N.jpg","0","1","1","0","1","1","0.450853599992115","0.503693799997563","0.49286640000355","1","1","1","1","1","1","1","1","1"
"250013","img/neutralC/CFD-BF-020-002-N.jpg","img/neutralC/CFD-WF-235-121-N.jpg","img/neutralC/CFD-BM-215-155-N.jpg","1","0","1","1","0","0","0.49286640000355","0.450853599992115","0.511203600006411","1","1","1","1","1","1","1","1","1"
"250013","img/neutralC/CFD-BM-215-155-N.jpg","img/neutralC/CFD-BF-020-002-N.jpg","img/neutralC/CFD-BF-206-143-N.jpg","1","1","1","0","1","1","0.511203600006411","0.49286640000355","0.468745600010152","1","1","1","1","1","1","1","1","1"
"250013","img/neutralC/CFD-BF-206-143-N.jpg","img/neutralC/CFD-BM-215-155-N.jpg","img/neutralC/CFD-BM-004-002-N.jpg","1","1","1","1","0","0","0.468745600010152","0.511203600006411","0.594591300003231","1","1","1","1","1","1","1","1","1"
"250013","img/neutralC/CFD-BM-004-002-N.jpg","img/neutralC/CFD-BF-206-143-N.jpg","img/neutralC/CFD-IM-678-482-N.jpg","1","1","1","0","1","0","0.594591300003231","0.468745600010152","0.636367900006007","1","1","1","1","1","1","1","1","1"
"250013","img/neutralC/CFD-IM-678-482-N.jpg","img/neutralC/CFD-BM-004-002-N.jpg","img/neutralC/CFD-WF-210-086-N.jpg","1","1","0","0","0","0","0.636367900006007","0.594591300003231","0.591804700001376","1","1","1","1","1","1","1","1","1"
"250013","img/neutralC/CFD-WF-210-086-N.jpg","img/neutralC/CFD-IM-678-482-N.jpg","img/neutralC/CFD-AF-205-155-N.jpg","0","1","1","0","0","0","0.591804700001376","0.636367900006007","0.473423300005379","1","1","1","1","1","1","1","1","1"
"250013","img/neutralC/CFD-AF-205-155-N.jpg","img/neutralC/CFD-WF-210-086-N.jpg","img/neutralC/CFD-AM-245-111-N.jpg","1","0","1","0","0","1","0.473423300005379","0.591804700001376","0.461384600013844","1","1","1","1","1","1","1","1","1"
"250013","img/neutralC/CFD-AM-245-111-N.jpg","img/neutralC/CFD-AF-205-155-N.jpg","img/neutralC/CFD-LM-241-125-N.jpg","1","1","1","1","0","1","0.461384600013844","0.473423300005379","0.516315500004566","1","1","1","1","1","1","1","1","1"
"250013","img/neutralC/CFD-LM-241-125-N.jpg","img/neutralC/CFD-AM-245-111-N.jpg","img/neutralC/CFD-AF-250-200-N.jpg","1","1","1","1","1","1","0.516315500004566","0.461384600013844","0.48473969999759","1","1","1","1","1","1","1","1","1"
"250013","img/neutralC/CFD-AF-250-200-N.jpg","img/neutralC/CFD-LM-241-125-N.jpg","img/neutralC/CFD-WM-018-002-N.jpg","1","1","1","1","1","0","0.48473969999759","0.516315500004566","0.372530399996322","1","1","1","1","1","1","1","1","1"
"250013","img/neutralC/CFD-WM-018-002-N.jpg","img/neutralC/CFD-AF-250-200-N.jpg","img/neutralC/CFD-IM-635-010-N.jpg","1","1","1","0","1","1","0.372530399996322","0.48473969999759","0.458389400009764","1","1","1","1","1","1","1","1","1"
"250013","img/neutralC/CFD-IM-635-010-N.jpg","img/neutralC/CFD-WM-018-002-N.jpg","img/neutralC/CFD-MF-302-027-N.jpg","1","1","1","1","0","0","0.458389400009764","0.372530399996322","0.597353600009228","1","1","1","1","1","1","1","1","1"
"250013","img/neutralC/CFD-MF-302-027-N.jpg","img/neutralC/CFD-IM-635-010-N.jpg","img/neutralC/CFD-IM-632-097-N.jpg","1","1","1","0","1","0","0.597353600009228","0.458389400009764","0.670529700015322","1","1","1","1","1","1","1","1","1"
"250013","img/neutralC/CFD-IM-632-097-N.jpg","img/neutralC/CFD-MF-302-027-N.jpg","img/neutralC/CFD-IF-732-260-N.jpg","1","1","1","0","0","0","0.670529700015322","0.597353600009228","0.532178599998588","1","1","1","1","1","1","1","1","1"
"250013","img/neutralC/CFD-IF-732-260-N.jpg","img/neutralC/CFD-IM-632-097-N.jpg","img/neutralC/CFD-LM-204-001-N.jpg","1","1","1","0","0","0","0.532178599998588","0.670529700015322","0.490302200007136","1","1","1","1","1","1","1","1","1"
"250013","img/neutralC/CFD-LM-204-001-N.jpg","img/neutralC/CFD-IF-732-260-N.jpg","img/neutralC/CFD-BF-042-026-N.jpg","1","1","1","0","0","1","0.490302200007136","0.532178599998588","0.5447484000033","1","1","1","1","1","1","1","1","1"
"250013","img/neutralC/CFD-BF-042-026-N.jpg","img/neutralC/CFD-LM-204-001-N.jpg","img/neutralC/CFD-AM-225-102-N.jpg","1","1","1","1","0","0","0.5447484000033","0.490302200007136","0.67582940000284","1","1","1","1","1","1","1","1","1"
"250013","img/neutralC/CFD-AM-225-102-N.jpg","img/neutralC/CFD-BF-042-026-N.jpg","img/neutralC/CFD-AF-234-208-N.jpg","1","1","1","0","1","1","0.67582940000284","0.5447484000033","0.41986990001169","1","1","1","1","1","1","1","1","1"
"250013","img/neutralC/CFD-AF-234-208-N.jpg","img/neutralC/CFD-AM-225-102-N.jpg","img/neutralC/CFD-MF-307-002-N.jpg","1","1","1","1","0","1","0.41986990001169","0.67582940000284","0.446178700003657","1","1","1","1","1","1","1","1","1"
"250013","img/neutralC/CFD-MF-307-002-N.jpg","img/neutralC/CFD-AF-234-208-N.jpg","img/neutralC/CFD-IM-669-111-N.jpg","1","1","1","1","1","1","0.446178700003657","0.41986990001169","0.410942000002251","1","1","1","1","1","1","1","1","1"
"250013","img/neutralC/CFD-IM-669-111-N.jpg","img/neutralC/CFD-MF-307-002-N.jpg","img/neutralC/CFD-AF-244-168-N.jpg","1","1","1","1","1","0","0.410942000002251","0.446178700003657","0.480423000000883","1","1","1","1","1","1","1","1","1"
"250013","img/neutralC/CFD-AF-244-168-N.jpg","img/neutralC/CFD-IM-669-111-N.jpg","img/neutralC/CFD-LF-239-148-N.jpg","1","1","1","0","1","0","0.480423000000883","0.410942000002251","0.561983899999177","1","1","1","1","1","1","1","1","1"
"250013","img/neutralC/CFD-LF-239-148-N.jpg","img/neutralC/CFD-AF-244-168-N.jpg","img/neutralC/CFD-BF-235-168-N.jpg","1","1","1","0","0","1","0.561983899999177","0.480423000000883","0.487289400000009","1","1","1","1","1","1","1","1","1"
"250013","img/neutralC/CFD-BF-235-168-N.jpg","img/neutralC/CFD-LF-239-148-N.jpg","img/neutralC/CFD-AM-233-236-N.jpg","1","1","1","1","0","1","0.487289400000009","0.561983899999177","0.465197500001523","1","1","1","1","1","1","1","1","1"
"250013","img/neutralC/CFD-AM-233-236-N.jpg","img/neutralC/CFD-BF-235-168-N.jpg","img/neutralC/CFD-WM-253-119-N.jpg","1","1","1","1","1","1","0.465197500001523","0.487289400000009","0.423810100008268","1","1","1","1","1","1","1","1","1"
"250013","img/neutralC/CFD-WM-253-119-N.jpg","img/neutralC/CFD-AM-233-236-N.jpg","img/neutralC/CFD-AF-213-126-N.jpg","1","1","1","1","1","1","0.423810100008268","0.465197500001523","0.996310100003029","1","1","1","1","1","1","1","1","1"
"250013","img/neutralC/CFD-AF-213-126-N.jpg","img/neutralC/CFD-WM-253-119-N.jpg","img/neutralC/CFD-BF-217-189-N.jpg","1","1","1","1","1","0","0.996310100003029","0.423810100008268","0.518893999993452","1","1","1","1","1","1","1","1","1"
"250013","img/neutralC/CFD-BF-217-189-N.jpg","img/neutralC/CFD-AF-213-126-N.jpg","img/neutralC/CFD-BF-040-003-N.jpg","1","1","1","0","1","1","0.518893999993452","0.996310100003029","0.41781689999334","1","1","1","1","1","1","1","1","1"
"250013","img/neutralC/CFD-BF-040-003-N.jpg","img/neutralC/CFD-BF-217-189-N.jpg",NA,"1","1",NA,"1","0",NA,"0.41781689999334","0.518893999993452",NA,"1","1",NA,"1","1",NA,"1","1",NA
"250013","img/neutralC/CFD-BF-207-004-N.jpg",NA,"img/neutralC/CFD-LF-204-133-N.jpg","1",NA,"1","1",NA,"1","0.500093800001196",NA,"0.355955399994855","1",NA,"1","1",NA,"1","1",NA,"1"
"250013","img/neutralC/CFD-LF-204-133-N.jpg","img/neutralC/CFD-BF-207-004-N.jpg","img/neutralC/CFD-BF-044-034-N.jpg","1","1","1","1","1","0","0.355955399994855","0.500093800001196","0.568030599999474","1","1","1","1","1","1","1","1","1"
"250013","img/neutralC/CFD-BF-044-034-N.jpg","img/neutralC/CFD-LF-204-133-N.jpg","img/neutralC/CFD-BF-247-179-N.jpg","1","1","1","0","1","0","0.568030599999474","0.355955399994855","0.378576100003556","1","1","1","1","1","1","1","1","1"
"250013","img/neutralC/CFD-BF-247-179-N.jpg","img/neutralC/CFD-BF-044-034-N.jpg","img/neutralC/CFD-BF-236-177-N.jpg","1","1","1","0","0","0","0.378576100003556","0.568030599999474","0.49571129999822","1","1","1","1","1","1","1","1","1"
"250013","img/neutralC/CFD-BF-236-177-N.jpg","img/neutralC/CFD-BF-247-179-N.jpg","img/neutralC/CFD-AM-230-150-N.jpg","1","1","1","0","0","0","0.49571129999822","0.378576100003556","0.440044200004195","1","1","1","1","1","1","1","1","1"
"250013","img/neutralC/CFD-AM-230-150-N.jpg","img/neutralC/CFD-BF-236-177-N.jpg","img/neutralC/CFD-IM-721-341-N.jpg","1","1","1","0","0","1","0.440044200004195","0.49571129999822","0.44999180000741","1","1","1","1","1","1","1","1","1"
"250013","img/neutralC/CFD-IM-721-341-N.jpg","img/neutralC/CFD-AM-230-150-N.jpg","img/neutralC/CFD-WM-014-002-N.jpg","1","1","1","1","0","0","0.44999180000741","0.440044200004195","0.554124300004332","1","1","1","1","1","1","1","1","1"
"250013","img/neutralC/CFD-WM-014-002-N.jpg","img/neutralC/CFD-IM-721-341-N.jpg","img/neutralC/CFD-BF-002-001-N.jpg","1","1","1","0","1","0","0.554124300004332","0.44999180000741","0.625258300002315","1","1","1","1","1","1","1","1","1"
"250013","img/neutralC/CFD-BF-002-001-N.jpg","img/neutralC/CFD-WM-014-002-N.jpg","img/neutralC/CFD-BF-027-002-N.jpg","1","1","1","0","0","1","0.625258300002315","0.554124300004332","0.836804999999003","1","1","1","1","1","1","1","1","1"
"250013","img/neutralC/CFD-BF-027-002-N.jpg","img/neutralC/CFD-BF-002-001-N.jpg","img/neutralC/CFD-IF-729-393-N.jpg","1","1","1","1","0","0","0.836804999999003","0.625258300002315","0.541013699999894","1","1","1","1","1","1","1","1","1"
"250013","img/neutralC/CFD-IF-729-393-N.jpg","img/neutralC/CFD-BF-027-002-N.jpg","img/neutralC/CFD-IF-742-103-N.jpg","1","1","1","0","1","1","0.541013699999894","0.836804999999003","0.539796600001864","1","1","1","1","1","1","1","1","1"
"250013","img/neutralC/CFD-IF-742-103-N.jpg","img/neutralC/CFD-IF-729-393-N.jpg","img/neutralC/CFD-BM-241-235-N.jpg","1","1","0","1","0","0","0.539796600001864","0.541013699999894","0.869320800004061","1","1","1","1","1","1","1","1","1"
"250013","img/neutralC/CFD-BM-241-235-N.jpg","img/neutralC/CFD-IF-742-103-N.jpg","img/neutralC/CFD-LM-213-061-N.jpg","0","1","0","0","1","0","0.869320800004061","0.539796600001864","0.82875359999889","1","1","1","1","1","1","1","1","1"
"250013","img/neutralC/CFD-LM-213-061-N.jpg","img/neutralC/CFD-BM-241-235-N.jpg","img/neutralC/CFD-WF-234-086-N.jpg","0","0","1","0","0","1","0.82875359999889","0.869320800004061","0.507972899999004","1","1","1","1","1","1","1","1","1"
"250013","img/neutralC/CFD-WF-234-086-N.jpg","img/neutralC/CFD-LM-213-061-N.jpg","img/neutralC/CFD-WF-233-112-N.jpg","1","0","0","1","0","1","0.507972899999004","0.82875359999889","1.79828829999315","1","1","1","1","1","1","1","1","1"
"250013","img/neutralC/CFD-WF-233-112-N.jpg","img/neutralC/CFD-WF-234-086-N.jpg","img/neutralC/CFD-IF-677-452-1-N.jpg","0","1","1","1","1","1","1.79828829999315","0.507972899999004","0.732377200009068","1","1","1","1","1","1","1","1","1"
"250013","img/neutralC/CFD-IF-677-452-1-N.jpg","img/neutralC/CFD-WF-233-112-N.jpg","img/neutralC/CFD-WM-034-030-N.jpg","1","0","1","1","1","1","0.732377200009068","1.79828829999315","0.481078099997831","1","1","1","1","1","1","1","1","1"
"250013","img/neutralC/CFD-WM-034-030-N.jpg","img/neutralC/CFD-IF-677-452-1-N.jpg","img/neutralC/CFD-IM-726-248-N.jpg","1","1","1","1","1","0","0.481078099997831","0.732377200009068","0.515277900005458","1","1","1","1","1","1","1","1","1"
"250013","img/neutralC/CFD-IM-726-248-N.jpg","img/neutralC/CFD-WM-034-030-N.jpg","img/neutralC/CFD-BM-036-003-N.jpg","1","1","1","0","1","1","0.515277900005458","0.481078099997831","0.479444600001443","1","1","1","1","1","1","1","1","1"
"250013","img/neutralC/CFD-BM-036-003-N.jpg","img/neutralC/CFD-IM-726-248-N.jpg","img/neutralC/CFD-IM-707-105-N.jpg","1","1","1","1","0","1","0.479444600001443","0.515277900005458","0.412951100006467","1","1","1","1","1","1","1","1","1"
"250013","img/neutralC/CFD-IM-707-105-N.jpg","img/neutralC/CFD-BM-036-003-N.jpg","img/neutralC/CFD-BF-011-002-N.jpg","1","1","1","1","1","1","0.412951100006467","0.479444600001443","0.399599300013506","1","1","1","1","1","1","1","1","1"
"250013","img/neutralC/CFD-BF-011-002-N.jpg","img/neutralC/CFD-IM-707-105-N.jpg","img/neutralC/CFD-BM-207-024-N.jpg","1","1","1","1","1","1","0.399599300013506","0.412951100006467","0.417299499997171","1","1","1","1","1","1","1","1","1"
"250013","img/neutralC/CFD-BM-207-024-N.jpg","img/neutralC/CFD-BF-011-002-N.jpg","img/neutralC/CFD-BF-006-017-N.jpg","1","1","1","1","1","0","0.417299499997171","0.399599300013506","0.648334900004556","1","1","1","1","1","1","1","1","1"
"250013","img/neutralC/CFD-BF-006-017-N.jpg","img/neutralC/CFD-BM-207-024-N.jpg","img/neutralC/CFD-WM-248-036-N.jpg","1","1","1","0","1","1","0.648334900004556","0.417299499997171","0.439267100009602","1","1","1","1","1","1","1","1","1"
"250013","img/neutralC/CFD-WM-248-036-N.jpg","img/neutralC/CFD-BF-006-017-N.jpg","img/neutralC/CFD-BF-036-027-N.jpg","1","1","1","1","0","0","0.439267100009602","0.648334900004556","0.524233200005256","1","1","1","1","1","1","1","1","1"
"250013","img/neutralC/CFD-BF-036-027-N.jpg","img/neutralC/CFD-WM-248-036-N.jpg","img/neutralC/CFD-IM-696-001-N.jpg","1","1","1","0","1","0","0.524233200005256","0.439267100009602","0.52249460000894","1","1","1","1","1","1","1","1","1"
"250013","img/neutralC/CFD-IM-696-001-N.jpg","img/neutralC/CFD-BF-036-027-N.jpg","img/neutralC/CFD-BF-214-308-N.jpg","1","1","1","0","0","1","0.52249460000894","0.524233200005256","0.488209599992842","1","1","1","1","1","1","1","1","1"
"250013","img/neutralC/CFD-BF-214-308-N.jpg","img/neutralC/CFD-IM-696-001-N.jpg","img/neutralC/CFD-WF-208-068-N.jpg","1","1","1","1","0","1","0.488209599992842","0.52249460000894","0.478906300006201","1","1","1","1","1","1","1","1","1"
"250013","img/neutralC/CFD-WF-208-068-N.jpg","img/neutralC/CFD-BF-214-308-N.jpg","img/neutralC/CFD-WF-029-002-N.jpg","1","1","1","1","1","0","0.478906300006201","0.488209599992842","0.518885900004534","1","1","1","1","1","1","1","1","1"
"250013","img/neutralC/CFD-WF-029-002-N.jpg","img/neutralC/CFD-WF-208-068-N.jpg","img/neutralC/CFD-BM-238-242-N.jpg","1","1","1","0","1","0","0.518885900004534","0.478906300006201","0.531689199997345","1","1","1","1","1","1","1","1","1"
"250013","img/neutralC/CFD-BM-238-242-N.jpg","img/neutralC/CFD-WF-029-002-N.jpg","img/neutralC/CFD-MF-301-024-N.jpg","1","1","1","0","0","0","0.531689199997345","0.518885900004534","0.499401900000521","1","1","1","1","1","1","1","1","1"
"250013","img/neutralC/CFD-MF-301-024-N.jpg","img/neutralC/CFD-BM-238-242-N.jpg",NA,"1","1",NA,"0","0",NA,"0.499401900000521","0.531689199997345",NA,"1","1",NA,"1","1",NA,"1","1",NA
