"participant_id","face","surpAcc","memory_surp_responses","memory_surp_rt","keep_surp_memory_trial_based_on_rt","surp_block_num","exclude_block","number_of_surp_resp_items_used","num_blocks_excluded"
"250037","img/neutralC/CFD-LF-225-164-N.jpg","1","s","1.88574810000136",1,1,0,2,0
"250037","img/neutralC/CFD-AF-253-130-N.jpg","1","k","1.14447399997152",1,1,0,2,0
"250037","img/neutralC/CFD-WF-001-003-N.jpg","1","s","0.827578699914739",1,1,0,2,0
"250037","img/neutralC/CFD-WF-234-086-N.jpg","0","k","1.04361609998159",1,1,0,2,0
"250037","img/neutralC/CFD-MF-300-002-N.jpg","1","k","1.13530859991442",1,1,0,2,0
"250037","img/neutralC/CFD-IM-700-009-N.jpg","1","s","0.746851800009608",1,1,0,2,0
"250037","img/neutralC/CFD-WM-212-097-N.jpg","1","s","1.06247680005617",1,1,0,2,0
"250037","img/neutralC/CFD-WM-012-001-N.jpg","0","s","1.07485690002795",1,1,0,2,0
"250037","img/neutralC/CFD-WM-023-001-N.jpg","0","s","1.10382489999756",1,1,0,2,0
"250037","img/neutralC/CFD-MM-304-002-N.jpg","1","s","1.03913729998749",1,1,0,2,0
"250037","img/neutralC/CFD-BM-004-002-N.jpg","1","k","1.07712419994641",1,1,0,2,0
"250037","img/neutralC/CFD-BM-238-242-N.jpg","1","k","0.985775800072588",1,1,0,2,0
"250037","img/neutralC/CFD-BM-020-001-N.jpg","0","s","1.27549369994085",1,1,0,2,0
"250037","img/neutralC/CFD-WM-227-099-N.jpg","0","k","1.05372060008813",1,1,0,2,0
"250037","img/neutralC/CFD-IM-617-174-N.jpg","1","s","0.733554799924605",1,1,0,2,0
"250037","img/neutralC/CFD-AM-219-101-N.jpg","1","s","1.15085740003269",1,1,0,2,0
"250037","img/neutralC/CFD-IM-674-281-N.jpg","1","s","0.851796000031754",1,1,0,2,0
"250037","img/neutralC/CFD-WM-215-041-N.jpg","1","s","1.14933739998378",1,1,0,2,0
"250037","img/neutralC/CFD-IM-632-097-N.jpg","1","k","1.06898839992937",1,1,0,2,0
"250037","img/neutralC/CFD-WM-004-010-N.jpg","0","k","0.985275999992154",1,1,0,2,0
"250037","img/neutralC/CFD-LF-204-133-N.jpg","1","s","0.946943299961276",1,1,0,2,0
"250037","img/neutralC/CFD-BM-253-004-N.jpg","1","s","1.06982189998962",1,1,0,2,0
"250037","img/neutralC/CFD-WF-030-002-N.jpg","1","s","1.18259390001185",1,1,0,2,0
"250037","img/neutralC/CFD-LM-247-095-N.jpg","1","k","1.04065380000975",1,1,0,2,0
"250037","img/neutralC/CFD-BM-239-136-N.jpg","1","k","0.95150470000226",1,1,0,2,0
"250037","img/neutralC/CFD-WM-020-001-N.jpg","1","k","1.36950479994994",1,1,0,2,0
"250037","img/neutralC/CFD-WF-213-031-N.jpg","1","k","0.658178100013174",1,1,0,2,0
"250037","img/neutralC/CFD-WM-034-030-N.jpg","0","s","0.824684199993499",1,1,0,2,0
"250037","img/neutralC/CFD-IM-707-105-N.jpg","1","s","0.813465800019912",1,1,0,2,0
"250037","img/neutralC/CFD-WM-033-025-N.jpg","1","s","1.02060090005398",1,1,0,2,0
"250037","img/neutralC/CFD-BF-205-141-N.jpg","0","s","1.54738139989786",1,1,0,2,0
"250037","img/neutralC/CFD-BM-009-002-N.jpg","1","s","1.78744830004871",1,1,0,2,0
"250037","img/neutralC/CFD-IM-671-601-N.jpg","0","s","1.26683660002891",1,1,0,2,0
"250037","img/neutralC/CFD-IF-744-114-N.jpg","1","s","1.11664889997337",1,1,0,2,0
"250037","img/neutralC/CFD-MF-305-014-N.jpg","1","s","1.00638719997369",1,1,0,2,0
"250037","img/neutralC/CFD-LF-245-166-N.jpg","1","s","0.94926140003372",1,1,0,2,0
"250037","img/neutralC/CFD-AM-233-236-N.jpg","0","k","0.991546700010076",1,1,0,2,0
"250037","img/neutralC/CFD-AF-246-242-N.jpg","1","s","1.08330800000113",1,1,0,2,0
"250037","img/neutralC/CFD-WF-250-167-N.jpg","1","k","0.902587300050072",1,1,0,2,0
"250037","img/neutralC/CFD-BF-012-001-N.jpg","0","s","0.99661179992836",1,1,0,2,0
"250037","img/neutralC/CFD-WM-028-003-N.jpg","0","k","0.926730599952862",1,1,0,2,0
"250037","img/neutralC/CFD-WF-233-112-N.jpg","0","s","1.17524789995514",1,1,0,2,0
"250037","img/neutralC/CFD-BM-213-134-N.jpg","0","k","0.912657700013369",1,1,0,2,0
"250037","img/neutralC/CFD-BM-227-191-N.jpg","0","s","1.52926059998572",1,1,0,2,0
"250037","img/neutralC/CFD-IF-660-464-N.jpg","0","k","0.916931799962185",1,1,0,2,0
"250037","img/neutralC/CFD-MF-307-002-N.jpg","1","s","1.21447819995228",1,1,0,2,0
"250037","img/neutralC/CFD-WF-244-163-N.jpg","0","k","1.02985059993807",1,1,0,2,0
"250037","img/neutralC/CFD-IM-657-308-N.jpg","0","s","1.13651790004224",1,1,0,2,0
"250037","img/neutralC/CFD-WF-240-083-N.jpg","1","s","0.915016400045715",1,2,0,2,0
"250037","img/neutralC/CFD-LM-237-264-N.jpg","1","s","0.951968399924226",1,2,0,2,0
"250037","img/neutralC/CFD-WF-200-099-N.jpg","1","s","1.00711930007674",1,2,0,2,0
"250037","img/neutralC/CFD-IF-634-382-N.jpg","1","k","0.956307000014931",1,2,0,2,0
"250037","img/neutralC/CFD-BF-044-034-N.jpg","0","s","1.104401800083",1,2,0,2,0
"250037","img/neutralC/CFD-BM-207-024-N.jpg","1","s","0.908734499942511",1,2,0,2,0
"250037","img/neutralC/CFD-BF-043-003-N.jpg","1","s","0.784209799952805",1,2,0,2,0
"250037","img/neutralC/CFD-IF-672-305-N.jpg","1","s","0.869890399975702",1,2,0,2,0
"250037","img/neutralC/CFD-AF-250-200-N.jpg","1","k","0.891532800043933",1,2,0,2,0
"250037","img/neutralC/CFD-BF-051-035-N.jpg","1","s","1.12029510003049",1,2,0,2,0
"250037","img/neutralC/CFD-IM-689-263-N.jpg","1","k","1.68062009999994",1,2,0,2,0
"250037","img/neutralC/CFD-WM-248-036-N.jpg","1","s","1.86699290003162",1,2,0,2,0
"250037","img/neutralC/CFD-IM-667-369-N.jpg","0","s","1.17200559994671",1,2,0,2,0
"250037","img/neutralC/CFD-AF-239-171-N.jpg","1","s","1.23364730004687",1,2,0,2,0
"250037","img/neutralC/CFD-WM-009-002-N.jpg","1","s","1.48517510003876",1,2,0,2,0
"250037","img/neutralC/CFD-IF-693-172-N.jpg","1","k","1.05613360006828",1,2,0,2,0
"250037","img/neutralC/CFD-BM-026-002-N.jpg","1","k","1.05596929998137",1,2,0,2,0
"250037","img/neutralC/CFD-IF-710-016-N.jpg","1","k","1.14797890000045",1,2,0,2,0
"250037","img/neutralC/CFD-WF-023-003-N.jpg","1","s","1.26597280008718",1,2,0,2,0
"250037","img/neutralC/CFD-MF-321-003-N.jpg","1","s","1.10241299995687",1,2,0,2,0
"250037","img/neutralC/CFD-IM-627-178-N.jpg","0","k","1.06981939997058",1,2,0,2,0
"250037","img/neutralC/CFD-WM-019-003-N.jpg","1","k","1.10209900001064",1,2,0,2,0
"250037","img/neutralC/CFD-BM-030-003-N.jpg","0","k","1.19367439998314",1,2,0,2,0
"250037","img/neutralC/CFD-WM-242-011-N.jpg","0","k","1.93569380010013",1,2,0,2,0
"250037","img/neutralC/CFD-AM-211-052-N.jpg","0","s","1.23359109996818",1,2,0,2,0
"250037","img/neutralC/CFD-LF-224-176-N.jpg","1","k","1.8579964999808",1,2,0,2,0
"250037","img/neutralC/CFD-IM-664-651-N.jpg","1","k","0.963724800036289",1,2,0,2,0
"250037","img/neutralC/CFD-BM-023-029-N.jpg","0","k","1.09060190001037",1,2,0,2,0
"250037","img/neutralC/CFD-IM-669-111-N.jpg","0","s","1.19887760002166",1,2,0,2,0
"250037","img/neutralC/CFD-BM-036-003-N.jpg","0","k","1.12469450000208",1,2,0,2,0
"250037","img/neutralC/CFD-MM-319-052-N.jpg","1","s","1.54810410004575",1,2,0,2,0
"250037","img/neutralC/CFD-IF-718-001-N.jpg","1","s","1.27877340000123",1,2,0,2,0
"250037","img/neutralC/CFD-BM-015-015-N.jpg","1","k","0.920597800053656",1,2,0,2,0
"250037","img/neutralC/CFD-MM-306-010-N.jpg","1","k","1.73019719996955",1,2,0,2,0
"250037","img/neutralC/CFD-LM-213-061-N.jpg","1","k","0.942103200010024",1,2,0,2,0
"250037","img/neutralC/CFD-WM-219-008-N.jpg","0","k","1.07379229995422",1,2,0,2,0
"250037","img/neutralC/CFD-WM-228-065-N.jpg","0","s","0.973985800053924",1,2,0,2,0
"250037","img/neutralC/CFD-BM-217-082-N.jpg","1","s","1.24998120008968",1,2,0,2,0
"250037","img/neutralC/CFD-WM-017-002-N.jpg","0","k","1.05723569996189",1,2,0,2,0
"250037","img/neutralC/CFD-BM-003-003-N.jpg","0","s","1.0222902999958",1,2,0,2,0
"250037","img/neutralC/CFD-IF-665-015-N.jpg","1","s","1.14835030003451",1,2,0,2,0
"250037","img/neutralC/CFD-WF-208-068-N.jpg","0","s","0.760598299908452",1,2,0,2,0
"250037","img/neutralC/CFD-WM-015-002-N.jpg","0","k","0.882101500057615",1,2,0,2,0
"250037","img/neutralC/CFD-WF-033-002-N.jpg","1","k","1.52919200004544",1,2,0,2,0
"250037","img/neutralC/CFD-BF-218-207-N.jpg","1","k","0.896369599970058",1,2,0,2,0
"250037","img/neutralC/CFD-LM-241-125-N.jpg","0","s","1.05886350001674",1,2,0,2,0
"250037","img/neutralC/CFD-IM-651-308-N.jpg","1","s","0.866482000099495",1,2,0,2,0
"250037","img/neutralC/CFD-MF-313-002-N.jpg","0","k","0.967669100034982",1,2,0,2,0
"250037","img/neutralC/CFD-LF-255-088-N.jpg","0","s","0.890741100069135",1,3,0,2,0
"250037","img/neutralC/CFD-IM-701-312-N.jpg","1","s","1.05340319999959",1,3,0,2,0
"250037","img/neutralC/CFD-BF-038-037-N.jpg","0","s","1.0139873001026",1,3,0,2,0
"250037","img/neutralC/CFD-BM-251-013-N.jpg","1","k","0.902203899924643",1,3,0,2,0
"250037","img/neutralC/CFD-WM-209-038-N.jpg","1","s","0.990193299949169",1,3,0,2,0
"250037","img/neutralC/CFD-BF-238-190-N.jpg","1","s","0.973668899969198",1,3,0,2,0
"250037","img/neutralC/CFD-AF-227-207-N.jpg","0","s","0.941429300117306",1,3,0,2,0
"250037","img/neutralC/CFD-BF-255-140-N.jpg","1","k","0.792336600017734",1,3,0,2,0
"250037","img/neutralC/CFD-AM-212-050-N.jpg","0","s","1.03906750003807",1,3,0,2,0
"250037","img/neutralC/CFD-AM-242-176-N.jpg","1","k","1.04348900006153",1,3,0,2,0
"250037","img/neutralC/CFD-IF-673-389-N.jpg","1","k","0.982179999933578",1,3,0,2,0
"250037","img/neutralC/CFD-WM-213-076-N.jpg","0","s","0.987519700080156",1,3,0,2,0
"250037","img/neutralC/CFD-BF-045-003-N.jpg","1","s","1.13888650003355",1,3,0,2,0
"250037","img/neutralC/CFD-BF-027-002-N.jpg","0","k","1.5926688000327",1,3,0,2,0
"250037","img/neutralC/CFD-LM-217-162-N.jpg","1","s","1.73809710005298",1,3,0,2,0
"250037","img/neutralC/CFD-WM-255-219-N.jpg","0","k","0.962144499993883",1,3,0,2,0
"250037","img/neutralC/CFD-WF-026-002-N.jpg","1","s","0.852365599945188",1,3,0,2,0
"250037","img/neutralC/CFD-IM-680-369-N.jpg","0","s","1.18105390004348",1,3,0,2,0
"250037","img/neutralC/CFD-IM-659-359-N.jpg","1","k","0.806933899992146",1,3,0,2,0
"250037","img/neutralC/CFD-IF-677-452-1-N.jpg","1","s","0.736751000047661",1,3,0,2,0
"250037","img/neutralC/CFD-AF-232-078-N.jpg","1","k","1.08703190006781",1,3,0,2,0
"250037","img/neutralC/CFD-WM-258-125-N.jpg","0","s","0.62667110003531",1,3,0,2,0
"250037","img/neutralC/CFD-AM-251-124-N.jpg","1","k","0.905239699990489",1,3,0,2,0
"250037","img/neutralC/CFD-BF-208-266-N.jpg","1","s","0.689320900011808",1,3,0,2,0
"250037","img/neutralC/CFD-AF-244-168-N.jpg","1","k","1.08034179999959",1,3,0,2,0
"250037","img/neutralC/CFD-WM-254-152-N.jpg","1","s","1.02856420003809",1,3,0,2,0
"250037","img/neutralC/CFD-LF-206-078-N.jpg","1","s","1.20417850010563",1,3,0,2,0
"250037","img/neutralC/CFD-LM-216-082-N.jpg","1","s","1.07188669999596",1,3,0,2,0
"250037","img/neutralC/CFD-BF-025-002-N.jpg","0","k","1.06566029996611",1,3,0,2,0
"250037","img/neutralC/CFD-WF-036-023-N.jpg","1","k","1.23138039989863",1,3,0,2,0
"250037","img/neutralC/CFD-MM-321-021-N.jpg","1","s","1.15429759991821",1,3,0,2,0
"250037","img/neutralC/CFD-WM-202-107-N.jpg","0","s","1.00540609995369",1,3,0,2,0
"250037","img/neutralC/CFD-BF-003-003-N.jpg","1","k","1.04281080001965",1,3,0,2,0
"250037","img/neutralC/CFD-WM-014-002-N.jpg","0","s","1.14049220003653",1,3,0,2,0
"250037","img/neutralC/CFD-BF-004-014-N.jpg","1","s","0.975215699989349",1,3,0,2,0
"250037","img/neutralC/CFD-IM-738-191-N.jpg","1","s","0.921983500011265",1,3,0,2,0
"250037","img/neutralC/CFD-LM-204-001-N.jpg","0","k","0.768221999984235",1,3,0,2,0
"250037","img/neutralC/CFD-LF-241-188-N.jpg","1","s","0.913809700054116",1,3,0,2,0
"250037","img/neutralC/CFD-MM-316-156-N.jpg","1","k","1.08333749999292",1,3,0,2,0
"250037","img/neutralC/CFD-WM-038-003-N.jpg","0","s","1.04595199995674",1,3,0,2,0
"250037","img/neutralC/CFD-BF-033-028-N.jpg","1","s","1.18866270000581",1,3,0,2,0
"250037","img/neutralC/CFD-AM-225-102-N.jpg","0","k","1.17444660002366",1,3,0,2,0
"250037","img/neutralC/CFD-IM-639-263-N.jpg","1","k","1.35077320004348",1,3,0,2,0
"250037","img/neutralC/CFD-BF-018-039-N.jpg","0","s","1.33105449995492",1,3,0,2,0
"250037","img/neutralC/CFD-BM-005-003-N.jpg","1","s","1.18793360004202",1,3,0,2,0
"250037","img/neutralC/CFD-WF-008-002-N.jpg","1","s","1.13952440000139",1,3,0,2,0
"250037","img/neutralC/CFD-AF-213-126-N.jpg","0","s","1.5022688000463",1,3,0,2,0
"250037","img/neutralC/CFD-BM-039-029-N.jpg","0","k","1.29155820002779",1,3,0,2,0
"250037","img/neutralC/CFD-WM-018-002-N.jpg","0","k","0.91244529990945",1,4,0,2,0
"250037","img/neutralC/CFD-BM-013-002-N.jpg","1","k","1.06169910007156",1,4,0,2,0
"250037","img/neutralC/CFD-LM-200-045-N.jpg","1","s","0.959470700006932",1,4,0,2,0
"250037","img/neutralC/CFD-IM-696-001-N.jpg","0","s","0.99360159994103",1,4,0,2,0
"250037","img/neutralC/CFD-AF-221-147-N.jpg","1","s","0.94618279999122",1,4,0,2,0
"250037","img/neutralC/CFD-BF-020-002-N.jpg","0","s","1.28038700006437",1,4,0,2,0
"250037","img/neutralC/CFD-AF-229-160-N.jpg","0","k","1.02399200003128",1,4,0,2,0
"250037","img/neutralC/CFD-BF-010-001-N.jpg","0","k","1.17444630002137",1,4,0,2,0
"250037","img/neutralC/CFD-BF-028-001-N.jpg","0","k","0.922822499996982",1,4,0,2,0
"250037","img/neutralC/CFD-LF-222-147-N.jpg","1","k","1.16450800001621",1,4,0,2,0
"250037","img/neutralC/CFD-WF-209-052-N.jpg","1","k","1.43919279996771",1,4,0,2,0
"250037","img/neutralC/CFD-BF-226-119-N.jpg","0","k","1.07821160007734",1,4,0,2,0
"250037","img/neutralC/CFD-MF-335-002-N.jpg","0","k","2.74923479999416",1,4,0,2,0
"250037","img/neutralC/CFD-AF-237-223-N.jpg","0","s","1.68627980002202",1,4,0,2,0
"250037","img/neutralC/CFD-WF-006-002-N.jpg","0","k","0.927867999998853",1,4,0,2,0
"250037","img/neutralC/CFD-BM-018-001-N.jpg","0","k","1.0070013999939",1,4,0,2,0
"250037","img/neutralC/CFD-LM-238-129-N.jpg","0","s","0.882197699975222",1,4,0,2,0
"250037","img/neutralC/CFD-IM-703-182-N.jpg","1","s","1.09010290005244",1,4,0,2,0
"250037","img/neutralC/CFD-AF-215-70-N.jpg","0","k","1.2121133999899",1,4,0,2,0
"250037","img/neutralC/CFD-BM-250-170-N.jpg","1","s","1.1253524000058",1,4,0,2,0
"250037","img/neutralC/CFD-BF-002-001-N.jpg","1","k","1.29697440005839",1,4,0,2,0
"250037","img/neutralC/CFD-LM-243-075-N.jpg","0","k","1.00059970002621",1,4,0,2,0
"250037","img/neutralC/CFD-BM-001-014-N.jpg","1","k","0.984764800057746",1,4,0,2,0
"250037","img/neutralC/CFD-LF-208-127-N.jpg","1","k","1.01202049991116",1,4,0,2,0
"250037","img/neutralC/CFD-WF-238-023-N.jpg","0","s","1.13247349997982",1,4,0,2,0
"250037","img/neutralC/CFD-LF-212-066-N.jpg","1","k","0.828705599997193",1,4,0,2,0
"250037","img/neutralC/CFD-AM-235-241-N.jpg","0","s","1.07049110007938",1,4,0,2,0
"250037","img/neutralC/CFD-MF-309-002-N.jpg","0","k","1.27425390004646",1,4,0,2,0
"250037","img/neutralC/CFD-WF-235-121-N.jpg","1","k","1.22860899998341",1,4,0,2,0
"250037","img/neutralC/CFD-AM-245-111-N.jpg","0","s","1.49366919999011",1,4,0,2,0
"250037","img/neutralC/CFD-BF-232-187-N.jpg","1","k","1.09174519998487",1,4,0,2,0
"250037","img/neutralC/CFD-WM-024-015-N.jpg","0","k","1.0916806999594",1,4,0,2,0
"250037","img/neutralC/CFD-WF-226-095-N.jpg","0","s","1.19033799995668",1,4,0,2,0
"250037","img/neutralC/CFD-WM-253-119-N.jpg","0","s","1.16255340003408",1,4,0,2,0
"250037","img/neutralC/CFD-LM-218-183-N.jpg","0","k","0.990674500004388",1,4,0,2,0
"250037","img/neutralC/CFD-BF-212-315-N.jpg","0","k","1.10103659995366",1,4,0,2,0
"250037","img/neutralC/CFD-LM-219-295-N.jpg","0","s","1.03785179997794",1,4,0,2,0
"250037","img/neutralC/CFD-IM-675-015-N.jpg","1","k","0.989891199977137",1,4,0,2,0
"250037","img/neutralC/CFD-AM-247-165-N.jpg","0","s","1.49335210002027",1,4,0,2,0
"250037","img/neutralC/CFD-AM-230-150-N.jpg","0","k","1.22374109993689",1,4,0,2,0
"250037","img/neutralC/CFD-LF-214-090-N.jpg","1","k","2.03571259998716",1,4,0,2,0
"250037","img/neutralC/CFD-WF-007-001-N.jpg","1","s","1.54341319995001",1,4,0,2,0
"250037","img/neutralC/CFD-LM-226-175-N.jpg","1","s","1.25195089995395",1,4,0,2,0
"250037","img/neutralC/CFD-BM-247-240-N.jpg","1","s","1.31174809997901",1,4,0,2,0
"250037","img/neutralC/CFD-WM-006-002-N.jpg","1","s","1.18118979991414",1,4,0,2,0
"250037","img/neutralC/CFD-BF-039-031-N.jpg","0","s","1.03957659995649",1,4,0,2,0
"250037","img/neutralC/CFD-MF-318-022-N.jpg","1","s","1.35431399999652",1,4,0,2,0
"250037","img/neutralC/CFD-MF-301-024-N.jpg","1","k","1.01424619997852",1,4,0,2,0
"250037","img/neutralC/CFD-BF-202-109-N.jpg","0","k","1.27034199994523",1,5,0,2,0
"250037","img/neutralC/CFD-AF-254-167-N.jpg","1","k","1.18883429991547",1,5,0,2,0
"250037","img/neutralC/CFD-IF-625-225-N.jpg","1","k","0.736477099941112",1,5,0,2,0
"250037","img/neutralC/CFD-BM-029-024-N.jpg","0","k","1.04901240009349",1,5,0,2,0
"250037","img/neutralC/CFD-WF-027-003-N.jpg","1","k","1.01110689993948",1,5,0,2,0
"250037","img/neutralC/CFD-BF-217-189-N.jpg","1","k","0.885049100033939",1,5,0,2,0
"250037","img/neutralC/CFD-WM-249-239-N.jpg","0","k","0.860209599952213",1,5,0,2,0
"250037","img/neutralC/CFD-LF-242-121-N.jpg","1","s","1.11393250001129",1,5,0,2,0
"250037","img/neutralC/CFD-AM-236-090-N.jpg","1","k","0.930344099993818",1,5,0,2,0
"250037","img/neutralC/CFD-WF-228-196-N.jpg","1","k","1.33447709993925",1,5,0,2,0
"250037","img/neutralC/CFD-LF-203-066-N.jpg","1","s","1.36345780000556",1,5,0,2,0
"250037","img/neutralC/CFD-WM-021-001-N.jpg","0","s","1.53929949994199",1,5,0,2,0
"250037","img/neutralC/CFD-WF-005-010-N.jpg","0","k","1.32497680000961",1,5,0,2,0
"250037","img/neutralC/CFD-WF-002-004-N.jpg","1","k","1.02215229999274",1,5,0,2,0
"250037","img/neutralC/CFD-MF-340-026-N.jpg","1","s","1.06124359997921",1,5,0,2,0
"250037","img/neutralC/CFD-BF-237-172-N.jpg","1","s","1.3625320000574",1,5,0,2,0
"250037","img/neutralC/CFD-AM-220-134-N.jpg","0","k","1.09477670001797",1,5,0,2,0
"250037","img/neutralC/CFD-IM-743-006-N.jpg","1","k","0.924736500019208",1,5,0,2,0
"250037","img/neutralC/CFD-LF-239-148-N.jpg","1","s","1.70595259999391",1,5,0,2,0
"250037","img/neutralC/CFD-WF-207-014-N.jpg","1","k","1.10595749993809",1,5,0,2,0
"250037","img/neutralC/CFD-IM-684-008-N.jpg","1","k","1.33511490002275",1,5,0,2,0
"250037","img/neutralC/CFD-BF-041-001-N.jpg","1","k","1.42462429997977",1,5,0,2,0
"250037","img/neutralC/CFD-WF-224-099-N.jpg","1","s","2.03075319994241",1,5,0,2,0
"250037","img/neutralC/CFD-WF-245-084-N.jpg","1","s","0.998059999896213",1,5,0,2,0
"250037","img/neutralC/CFD-BF-207-004-N.jpg","1","s","0.958294500014745",1,5,0,2,0
"250037","img/neutralC/CFD-MF-336-016-N.jpg","0","s","1.58293869998306",1,5,0,2,0
"250037","img/neutralC/CFD-LM-244-068-N.jpg","0","k","0.853229100001045",1,5,0,2,0
"250037","img/neutralC/CFD-BF-201-080-N.jpg","1","s","1.04215700004715",1,5,0,2,0
"250037","img/neutralC/CFD-AF-233-190-N.jpg","1","s","0.882694100029767",1,5,0,2,0
"250037","img/neutralC/CFD-WF-029-002-N.jpg","0","s","1.12804149999283",1,5,0,2,0
"250037","img/neutralC/CFD-AF-205-155-N.jpg","1","k","2.19515890011098",1,5,0,2,0
"250037","img/neutralC/CFD-IM-606-008-N.jpg","1","k","1.07214810000733",1,5,0,2,0
"250037","img/neutralC/CFD-AF-240-206-N.jpg","1","k","1.10060320002958",1,5,0,2,0
"250037","img/neutralC/CFD-BM-027-001-N.jpg","0","k","1.23340339993592",1,5,0,2,0
"250037","img/neutralC/CFD-LM-252-076-N.jpg","1","s","1.09624019998591",1,5,0,2,0
"250037","img/neutralC/CFD-MF-328-020-N.jpg","1","s","1.11784500000067",1,5,0,2,0
"250037","img/neutralC/CFD-WF-243-148-N.jpg","1","k","1.08435079990886",1,5,0,2,0
"250037","img/neutralC/CFD-AM-221-184-N.jpg","0","k","0.792195700109005",1,5,0,2,0
"250037","img/neutralC/CFD-IF-642-295-N.jpg","1","s","1.07295219996013",1,5,0,2,0
"250037","img/neutralC/CFD-LF-211-003-N.jpg","1","s","0.903930200031027",1,5,0,2,0
"250037","img/neutralC/CFD-WM-221-091-N.jpg","1","k","1.20096990000457",1,5,0,2,0
"250037","img/neutralC/CFD-IM-638-250-1-N.jpg","1","k","0.887986599933356",1,5,0,2,0
"250037","img/neutralC/CFD-BF-014-002-N.jpg","1","k","1.04573080001865",1,5,0,2,0
"250037","img/neutralC/CFD-WM-225-127-N.jpg","0","s","1.02689290000126",1,5,0,2,0
"250037","img/neutralC/CFD-WF-221-005-N.jpg","1","s","1.17174979997799",1,5,0,2,0
"250037","img/neutralC/CFD-BF-236-177-N.jpg","1","k","0.95933789992705",1,5,0,2,0
"250037","img/neutralC/CFD-BM-010-003-N.jpg","1","s","0.83834349992685",1,5,0,2,0
"250037","img/neutralC/CFD-IM-635-010-N.jpg","1","s","1.66446080000605",1,5,0,2,0
"250037","img/neutralC/CFD-IM-604-014-N.jpg","1","k","1.20613000006415",1,6,0,2,0
"250037","img/neutralC/CFD-IM-646-023-N.jpg","1","k","0.963527000043541",1,6,0,2,0
"250037","img/neutralC/CFD-IF-620-218-N.jpg","1","s","1.33917090005707",1,6,0,2,0
"250037","img/neutralC/CFD-LM-215-247-N.jpg","1","k","0.90956840000581",1,6,0,2,0
"250037","img/neutralC/CFD-BM-215-155-N.jpg","0","k","0.952575900009833",1,6,0,2,0
"250037","img/neutralC/CFD-AF-202-122-N.jpg","0","s","0.958114799926989",1,6,0,2,0
"250037","img/neutralC/CFD-WM-237-052-N.jpg","1","k","1.14843069994822",1,6,0,2,0
"250037","img/neutralC/CFD-IM-616-214-N.jpg","0","k","1.21630869992077",1,6,0,2,0
"250037","img/neutralC/CFD-IF-608-390-N.jpg","1","s","0.885030600009486",1,6,0,2,0
"250037","img/neutralC/CFD-BF-214-308-N.jpg","1","s","0.758786999969743",1,6,0,2,0
"250037","img/neutralC/CFD-BM-225-154-N.jpg","0","s","1.74712209997233",1,6,0,2,0
"250037","img/neutralC/CFD-LF-247-051-N.jpg","0","s","1.21866730006877",1,6,0,2,0
"250037","img/neutralC/CFD-LF-230-203-N.jpg","1","k","1.33398819994181",1,6,0,2,0
"250037","img/neutralC/CFD-IF-676-017-N.jpg","1","k","0.9844534000149",1,6,0,2,0
"250037","img/neutralC/CFD-IM-637-007-N.jpg","1","s","1.00252869992983",1,6,0,2,0
"250037","img/neutralC/CFD-LM-233-171-N.jpg","1","s","1.72724749997724",1,6,0,2,0
"250037","img/neutralC/CFD-WM-002-009-N.jpg","0","s","1.00855280004907",1,6,0,2,0
"250037","img/neutralC/CFD-BF-042-026-N.jpg","1","k","1.16929360001814",1,6,0,2,0
"250037","img/neutralC/CFD-LM-253-075-N.jpg","0","k","1.29807490005624",1,6,0,2,0
"250037","img/neutralC/CFD-IM-615-167-N.jpg","1","k","1.4177628000034",1,6,0,2,0
"250037","img/neutralC/CFD-LF-236-221-N.jpg","0","s","1.75099840003531",1,6,0,2,0
"250037","img/neutralC/CFD-AF-206-079-N.jpg","1","s","1.27417579991743",1,6,0,2,0
"250037","img/neutralC/CFD-MF-302-027-N.jpg","1","k","1.29281080001965",1,6,0,2,0
"250037","img/neutralC/CFD-BM-021-021-N.jpg","1","s","1.46780699992087",1,6,0,2,0
"250037","img/neutralC/CFD-MF-337-026-N.jpg","1","k","1.02987150009722",1,6,0,2,0
"250037","img/neutralC/CFD-MF-343-001-N.jpg","0","k","1.02419090003241",1,6,0,2,0
"250037","img/neutralC/CFD-AM-244-222-N.jpg","0","k","1.62941920000594",1,6,0,2,0
"250037","img/neutralC/CFD-BF-006-017-N.jpg","0","k","1.38641839998309",1,6,0,2,0
"250037","img/neutralC/CFD-LF-218-072-N.jpg","0","s","1.2937055999646",1,6,0,2,0
"250037","img/neutralC/CFD-WF-018-017-N.jpg","1","k","1.90580960002262",1,6,0,2,0
"250037","img/neutralC/CFD-BF-254-201-N.jpg","1","k","1.13139680004679",1,6,0,2,0
"250037","img/neutralC/CFD-BF-222-240-N.jpg","1","s","1.02840079995804",1,6,0,2,0
"250037","img/neutralC/CFD-LF-210-220-N.jpg","1","k","1.12079850002192",1,6,0,2,0
"250037","img/neutralC/CFD-LM-214-165-N.jpg","0","k","1.36937229998875",1,6,0,2,0
"250037","img/neutralC/CFD-WM-041-021-N.jpg","1","s","1.49078350001946",1,6,0,2,0
"250037","img/neutralC/CFD-WF-223-133-N.jpg","0","s","1.20645679999143",1,6,0,2,0
"250037","img/neutralC/CFD-BF-253-202-N.jpg","0","k","1.52108330000192",1,6,0,2,0
"250037","img/neutralC/CFD-IM-702-101-N.jpg","0","s","1.37368479999714",1,6,0,2,0
"250037","img/neutralC/CFD-BM-019-002-N.jpg","1","k","1.04882669996005",1,6,0,2,0
"250037","img/neutralC/CFD-BM-241-235-N.jpg","1","s","1.09824940003455",1,6,0,2,0
"250037","img/neutralC/CFD-WF-241-210-N.jpg","1","k","1.26039079995826",1,6,0,2,0
"250037","img/neutralC/CFD-IM-719-221-N.jpg","0","k","1.42438520002179",1,6,0,2,0
"250037","img/neutralC/CFD-IF-629-234-N.jpg","1","s","1.26275809993967",1,6,0,2,0
"250037","img/neutralC/CFD-WF-222-092-N.jpg","0","k","1.32302310003433",1,6,0,2,0
"250037","img/neutralC/CFD-LF-238-154-N.jpg","1","k","1.32172669994179",1,6,0,2,0
"250037","img/neutralC/CFD-IM-697-015-N.jpg","0","k","1.59190470003523",1,6,0,2,0
"250037","img/neutralC/CFD-LF-250-169-N.jpg","1","k","1.24927639996167",1,6,0,2,0
"250037","img/neutralC/CFD-BM-243-218-N.jpg","0","s","0.894534299965017",1,6,0,2,0
"250037","img/neutralC/CFD-IM-706-002-N.jpg","1","k","0.948905299999751",1,7,0,2,0
"250037","img/neutralC/CFD-BF-213-188-N.jpg","1","s","0.808837300050072",1,7,0,2,0
"250037","img/neutralC/CFD-WM-232-070-N.jpg","1","k","1.16310620005243",1,7,0,2,0
"250037","img/neutralC/CFD-BM-033-003-N.jpg","0","s","0.973411399987526",1,7,0,2,0
"250037","img/neutralC/CFD-WM-040-022-N.jpg","1","k","0.863651299965568",1,7,0,2,0
"250037","img/neutralC/CFD-AM-201-076-N.jpg","1","k","1.16982189996634",1,7,0,2,0
"250037","img/neutralC/CFD-AF-210-050-N.jpg","0","k","1.33686070004478",1,7,0,2,0
"250037","img/neutralC/CFD-IF-650-315-N.jpg","1","k","0.82782990008127",1,7,0,2,0
"250037","img/neutralC/CFD-LF-205-100-N.jpg","1","k","1.2543835999677",1,7,0,2,0
"250037","img/neutralC/CFD-BM-211-174-N.jpg","0","s","1.08971299999394",1,7,0,2,0
"250037","img/neutralC/CFD-IF-742-103-N.jpg","1","k","1.07898680004291",1,7,0,2,0
"250037","img/neutralC/CFD-AM-249-163-N.jpg","1","k","1.53007790003903",1,7,0,2,0
"250037","img/neutralC/CFD-WF-012-002-N.jpg","1","k","1.00462530006189",1,7,0,2,0
"250037","img/neutralC/CFD-WF-248-129-N.jpg","1","k","1.06074149999768",1,7,0,2,0
"250037","img/neutralC/CFD-LF-226-174-N.jpg","1","k","1.21390290011186",1,7,0,2,0
"250037","img/neutralC/CFD-IF-732-260-N.jpg","1","s","0.870653699967079",1,7,0,2,0
"250037","img/neutralC/CFD-IM-648-337-N.jpg","1","s","1.79462880000938",1,7,0,2,0
"250037","img/neutralC/CFD-WF-210-086-N.jpg","1","k","0.955228899954818",1,7,0,2,0
"250037","img/neutralC/CFD-MF-329-001-N.jpg","1","k","1.60053589998279",1,7,0,2,0
"250037","img/neutralC/CFD-MF-327-002-N.jpg","0","k","2.28754290007055",1,7,0,2,0
"250037","img/neutralC/CFD-LF-220-120-N.jpg","0","k","1.17280330008361",1,7,0,2,0
"250037","img/neutralC/CFD-WM-026-001-N.jpg","0","s","2.0351775001036",1,7,0,2,0
"250037","img/neutralC/CFD-WF-214-122-N.jpg","1","k","0.929366399999708",1,7,0,2,0
"250037","img/neutralC/CFD-MF-342-022-N.jpg","1","s","0.932160500087775",1,7,0,2,0
"250037","img/neutralC/CFD-BM-204-003-N.jpg","0","s","1.54061929997988",1,7,0,2,0
"250037","img/neutralC/CFD-AM-205-153-N.jpg","0","s","1.28467720001936",1,7,0,2,0
"250037","img/neutralC/CFD-BM-200-046-N.jpg","1","k","1.84324079996441",1,7,0,2,0
"250037","img/neutralC/CFD-BF-224-002-N.jpg","1","k","0.671293499995954",1,7,0,2,0
"250037","img/neutralC/CFD-IF-729-393-N.jpg","1","k","0.94480530009605",1,7,0,2,0
"250037","img/neutralC/CFD-WM-257-161-N.jpg","1","s","1.35553309996612",1,7,0,2,0
"250037","img/neutralC/CFD-LM-225-130-N.jpg","1","k","1.11035490001086",1,7,0,2,0
"250037","img/neutralC/CFD-IM-653-008-N.jpg","0","s","2.85807279997971",1,7,0,2,0
"250037","img/neutralC/CFD-IM-721-341-N.jpg","1","s","1.11617319996003",1,7,0,2,0
"250037","img/neutralC/CFD-WM-025-002-N.jpg","0","k","1.90662680007517",1,7,0,2,0
"250037","img/neutralC/CFD-WF-009-001-N.jpg","0","k","1.67686729994603",1,7,0,2,0
"250037","img/neutralC/CFD-MF-303-013-N.jpg","0","s","0.766441600047983",1,7,0,2,0
"250037","img/neutralC/CFD-IM-727-195-N.jpg","0","s","0.859750099945813",1,7,0,2,0
"250037","img/neutralC/CFD-BF-029-031-N.jpg","0","k","0.791149499942549",1,7,0,2,0
"250037","img/neutralC/CFD-AF-241-141-N.jpg","0","s","0.77507059997879",1,7,0,2,0
"250037","img/neutralC/CFD-IM-685-004-N.jpg","1","s","1.39340840000659",1,7,0,2,0
"250037","img/neutralC/CFD-BF-206-143-N.jpg","1","k","1.00566629995592",1,7,0,2,0
"250037","img/neutralC/CFD-MF-357-002-N.jpg","1","k","1.31721749994904",1,7,0,2,0
"250037","img/neutralC/CFD-MF-312-002-N.jpg","0","s","1.14818789996207",1,7,0,2,0
"250037","img/neutralC/CFD-BM-212-117-N.jpg","0","s","1.00025060004555",1,7,0,2,0
"250037","img/neutralC/CFD-MF-316-001-N.jpg","1","k","1.24213179992512",1,7,0,2,0
"250037","img/neutralC/CFD-IM-709-103-N.jpg","1","s","0.814194199978374",1,7,0,2,0
"250037","img/neutralC/CFD-AM-243-212-N.jpg","0","k","1.14598969998769",1,7,0,2,0
"250037","img/neutralC/CFD-BM-248-128-N.jpg","0","s","1.05561039992608",1,7,0,2,0
"250037","img/neutralC/CFD-LM-240-013-N.jpg","0","s","0.89162759995088",1,8,0,2,0
"250037","img/neutralC/CFD-LF-216-121-N.jpg","0","s","1.0210399000207",1,8,0,2,0
"250037","img/neutralC/CFD-WF-217-085-N.jpg","1","k","1.221937000053",1,8,0,2,0
"250037","img/neutralC/CFD-IM-726-248-N.jpg","1","k","1.65511449996848",1,8,0,2,0
"250037","img/neutralC/CFD-BM-043-071-N.jpg","0","k","0.915077400044538",1,8,0,2,0
"250037","img/neutralC/CFD-WF-022-017-N.jpg","0","k","1.20745240000542",1,8,0,2,0
"250037","img/neutralC/CFD-BF-204-189-N.jpg","0","k","1.24527650000528",1,8,0,2,0
"250037","img/neutralC/CFD-LF-215-157-N.jpg","1","k","1.12163409998175",1,8,0,2,0
"250037","img/neutralC/CFD-IM-728-041-N.jpg","1","s","1.21139209996909",1,8,0,2,0
"250037","img/neutralC/CFD-LM-201-057-N.jpg","1","s","1.06775400007609",1,8,0,2,0
"250037","img/neutralC/CFD-MF-352-054-N.jpg","1","k","1.36594030004926",1,8,0,2,0
"250037","img/neutralC/CFD-IM-645-001-N.jpg","0","k","0.907931199995801",1,8,0,2,0
"250037","img/neutralC/CFD-IM-686-097-N.jpg","0","s","0.829807400004938",1,8,0,2,0
"250037","img/neutralC/CFD-MF-359-019-N.jpg","1","s","1.62734160001855",1,8,0,2,0
"250037","img/neutralC/CFD-WF-017-003-N.jpg","1","s","0.857988700037822",1,8,0,2,0
"250037","img/neutralC/CFD-AM-215-120-N.jpg","0","k","0.930127300089225",1,8,0,2,0
"250037","img/neutralC/CFD-BF-011-002-N.jpg","1","s","1.50464659999125",1,8,0,2,0
"250037","img/neutralC/CFD-BM-028-002-N.jpg","0","k","1.7630116000073",1,8,0,2,0
"250037","img/neutralC/CFD-AF-231-357-N.jpg","0","s","1.3534815000603",1,8,0,2,0
"250037","img/neutralC/CFD-BM-205-001-N.jpg","1","s","1.32914009992965",1,8,0,2,0
"250037","img/neutralC/CFD-WM-218-074-N.jpg","0","s","0.926432200009003",1,8,0,2,0
"250037","img/neutralC/CFD-BF-036-027-N.jpg","1","s","1.40354089997709",1,8,0,2,0
"250037","img/neutralC/CFD-WM-201-063-N.jpg","1","s","1.62502209993545",1,8,0,2,0
"250037","img/neutralC/CFD-MM-317-061-N.jpg","0","s","0.734712100005709",1,8,0,2,0
"250037","img/neutralC/CFD-BF-235-168-N.jpg","1","s","0.893123100046068",1,8,0,2,0
"250037","img/neutralC/CFD-BM-231-155-N.jpg","0","k","0.842544900020584",1,8,0,2,0
"250037","img/neutralC/CFD-AF-234-208-N.jpg","1","k","1.00042619998567",1,8,0,2,0
"250037","img/neutralC/CFD-BF-247-179-N.jpg","1","s","1.4758716999786",1,8,0,2,0
"250037","img/neutralC/CFD-WF-212-050-N.jpg","0","s","1.67912610003259",1,8,0,2,0
"250037","img/neutralC/CFD-MF-333-012-N.jpg","1","s","0.863946600002237",1,8,0,2,0
"250037","img/neutralC/CFD-LF-201-035-N.jpg","0","s","1.64891730004456",1,8,0,2,0
"250037","img/neutralC/CFD-BF-040-003-N.jpg","0","s","1.09240379999392",1,8,0,2,0
"250037","img/neutralC/CFD-BF-229-179-N.jpg","1","k","1.16119800007436",1,8,0,2,0
"250037","img/neutralC/CFD-BF-228-212-N.jpg","1","s","1.25932459998876",1,8,0,2,0
"250037","img/neutralC/CFD-IM-678-482-N.jpg","1","s","0.742911900044419",1,8,0,2,0
"250037","img/neutralC/CFD-IF-623-129-N.jpg","1","s","1.04335229995195",1,8,0,2,0
"250037","img/neutralC/CFD-BM-041-035-N.jpg","0","k","0.937587299966253",1,8,0,2,0
"250037","img/neutralC/CFD-IF-619-197-N.jpg","1","k","0.892745300079696",1,8,0,2,0
"250037","img/neutralC/CFD-AM-217-085-N.jpg","1","s","1.52515360002872",1,8,0,2,0
"250037","img/neutralC/CFD-BF-023-010-N.jpg","1","s","1.22559059993364",1,8,0,2,0
"250037","img/neutralC/CFD-BF-244-231-N.jpg","1","s","1.25602280010935",1,8,0,2,0
"250037","img/neutralC/CFD-WM-235-147-N.jpg","1","s","1.21729960001539",1,8,0,2,0
"250037","img/neutralC/CFD-MM-324-069-N.jpg","0","s","1.03282120008953",1,8,0,2,0
"250037","img/neutralC/CFD-IF-626-375-N.jpg","1","s","1.52442159992643",1,8,0,2,0
"250037","img/neutralC/CFD-WM-011-002-N.jpg","1","k","1.06703449995257",1,8,0,2,0
"250037","img/neutralC/CFD-LM-228-188-N.jpg","0","k","1.30478230002336",1,8,0,2,0
"250037","img/neutralC/CFD-IF-636-011-N.jpg","1","k","0.942090299911797",1,8,0,2,0
"250037","img/neutralC/CFD-WM-013-001-N.jpg","0","s","1.62672139995266",1,8,0,2,0
