"participant_id","current_trial_face","pre_trial_face","post_trial_face","current_trial_accuracy","pre_trial_accuracy","post_trial_accuracy","current_trial_congruency","pre_trial_congruency","post_trial_congruency","current_trial_rt","pre_trial_rt","post_trial_rt","current_trial_responded","pre_trial_responded","post_trial_responded","current_trial_legitResponse","pre_trial_legitResponse","post_trial_legitResponse","current_trial_resp_nums","pre_trial_resp_nums","post_trial_resp_nums"
"250033","img/neutralC/CFD-IM-697-015-N.jpg",NA,"img/neutralC/CFD-BM-227-191-N.jpg","1",NA,"1","1",NA,"1","0.549367400002666",NA,"0.486700900015421","1",NA,"1","1",NA,"1","1",NA,"1"
"250033","img/neutralC/CFD-BM-227-191-N.jpg","img/neutralC/CFD-IM-697-015-N.jpg","img/neutralC/CFD-MM-306-010-N.jpg","1","1","0","1","1","0","0.486700900015421","0.549367400002666","0.358890500036068","1","1","1","1","1","1","1","1","1"
"250033","img/neutralC/CFD-MM-306-010-N.jpg","img/neutralC/CFD-BM-227-191-N.jpg","img/neutralC/CFD-BM-030-003-N.jpg","0","1","1","0","1","0","0.358890500036068","0.486700900015421","0.713832200039178","1","1","1","1","1","1","1","1","1"
"250033","img/neutralC/CFD-BM-030-003-N.jpg","img/neutralC/CFD-MM-306-010-N.jpg","img/neutralC/CFD-BF-244-231-N.jpg","1","0","1","0","0","1","0.713832200039178","0.358890500036068","0.522928199963644","1","1","1","1","1","1","1","1","1"
"250033","img/neutralC/CFD-BF-244-231-N.jpg","img/neutralC/CFD-BM-030-003-N.jpg","img/neutralC/CFD-BF-012-001-N.jpg","1","1","1","1","0","0","0.522928199963644","0.713832200039178","0.549825599999167","1","1","1","1","1","1","1","1","1"
"250033","img/neutralC/CFD-BF-012-001-N.jpg","img/neutralC/CFD-BF-244-231-N.jpg","img/neutralC/CFD-WF-243-148-N.jpg","1","1","1","0","1","0","0.549825599999167","0.522928199963644","0.712403399986215","1","1","1","1","1","1","1","1","1"
"250033","img/neutralC/CFD-WF-243-148-N.jpg","img/neutralC/CFD-BF-012-001-N.jpg","img/neutralC/CFD-WM-025-002-N.jpg","1","1","1","0","0","0","0.712403399986215","0.549825599999167","0.389684499939904","1","1","1","1","1","1","1","1","1"
"250033","img/neutralC/CFD-WM-025-002-N.jpg","img/neutralC/CFD-WF-243-148-N.jpg","img/neutralC/CFD-BM-043-071-N.jpg","1","1","1","0","0","0","0.389684499939904","0.712403399986215","0.668953399988823","1","1","1","1","1","1","1","1","1"
"250033","img/neutralC/CFD-BM-043-071-N.jpg","img/neutralC/CFD-WM-025-002-N.jpg","img/neutralC/CFD-LM-240-013-N.jpg","1","1","1","0","0","1","0.668953399988823","0.389684499939904","0.478016100008972","1","1","1","1","1","1","1","1","1"
"250033","img/neutralC/CFD-LM-240-013-N.jpg","img/neutralC/CFD-BM-043-071-N.jpg","img/neutralC/CFD-WF-207-014-N.jpg","1","1","1","1","0","1","0.478016100008972","0.668953399988823","0.472810400067829","1","1","1","1","1","1","1","1","1"
"250033","img/neutralC/CFD-WF-207-014-N.jpg","img/neutralC/CFD-LM-240-013-N.jpg","img/neutralC/CFD-IM-606-008-N.jpg","1","1","1","1","1","0","0.472810400067829","0.478016100008972","0.61249890003819","1","1","1","1","1","1","1","1","1"
"250033","img/neutralC/CFD-IM-606-008-N.jpg","img/neutralC/CFD-WF-207-014-N.jpg","img/neutralC/CFD-AM-219-101-N.jpg","1","1","1","0","1","0","0.61249890003819","0.472810400067829","0.571520500001498","1","1","1","1","1","1","1","1","1"
"250033","img/neutralC/CFD-AM-219-101-N.jpg","img/neutralC/CFD-IM-606-008-N.jpg","img/neutralC/CFD-IM-615-167-N.jpg","1","1","1","0","0","0","0.571520500001498","0.61249890003819","0.599120700033382","1","1","1","1","1","1","1","1","1"
"250033","img/neutralC/CFD-IM-615-167-N.jpg","img/neutralC/CFD-AM-219-101-N.jpg","img/neutralC/CFD-LF-212-066-N.jpg","1","1","1","0","0","1","0.599120700033382","0.571520500001498","0.424620400066487","1","1","1","1","1","1","1","1","1"
"250033","img/neutralC/CFD-LF-212-066-N.jpg","img/neutralC/CFD-IM-615-167-N.jpg","img/neutralC/CFD-IF-676-017-N.jpg","1","1","1","1","0","1","0.424620400066487","0.599120700033382","0.729822700028308","1","1","1","1","1","1","1","1","1"
"250033","img/neutralC/CFD-IF-676-017-N.jpg","img/neutralC/CFD-LF-212-066-N.jpg","img/neutralC/CFD-AM-205-153-N.jpg","1","1","1","1","1","1","0.729822700028308","0.424620400066487","0.506465899990872","1","1","1","1","1","1","1","1","1"
"250033","img/neutralC/CFD-AM-205-153-N.jpg","img/neutralC/CFD-IF-676-017-N.jpg","img/neutralC/CFD-BM-009-002-N.jpg","1","1","1","1","1","1","0.506465899990872","0.729822700028308","0.430180300027132","1","1","1","1","1","1","1","1","1"
"250033","img/neutralC/CFD-BM-009-002-N.jpg","img/neutralC/CFD-AM-205-153-N.jpg","img/neutralC/CFD-BM-021-021-N.jpg","1","1","1","1","1","1","0.430180300027132","0.506465899990872","0.409849500050768","1","1","1","1","1","1","1","1","1"
"250033","img/neutralC/CFD-BM-021-021-N.jpg","img/neutralC/CFD-BM-009-002-N.jpg","img/neutralC/CFD-AF-237-223-N.jpg","1","1","1","1","1","0","0.409849500050768","0.430180300027132","0.57661280001048","1","1","1","1","1","1","1","1","1"
"250033","img/neutralC/CFD-AF-237-223-N.jpg","img/neutralC/CFD-BM-021-021-N.jpg","img/neutralC/CFD-WF-221-005-N.jpg","1","1","1","0","1","0","0.57661280001048","0.409849500050768","0.619761200039648","1","1","1","1","1","1","1","1","1"
"250033","img/neutralC/CFD-WF-221-005-N.jpg","img/neutralC/CFD-AF-237-223-N.jpg","img/neutralC/CFD-WF-241-210-N.jpg","1","1","1","0","0","0","0.619761200039648","0.57661280001048","0.468781000003219","1","1","1","1","1","1","1","1","1"
"250033","img/neutralC/CFD-WF-241-210-N.jpg","img/neutralC/CFD-WF-221-005-N.jpg","img/neutralC/CFD-WM-023-001-N.jpg","1","1","1","0","0","0","0.468781000003219","0.619761200039648","0.572576600010507","1","1","1","1","1","1","1","1","1"
"250033","img/neutralC/CFD-WM-023-001-N.jpg","img/neutralC/CFD-WF-241-210-N.jpg","img/neutralC/CFD-AM-243-212-N.jpg","1","1","1","0","0","1","0.572576600010507","0.468781000003219","0.585096800001338","1","1","1","1","1","1","1","1","1"
"250033","img/neutralC/CFD-AM-243-212-N.jpg","img/neutralC/CFD-WM-023-001-N.jpg","img/neutralC/CFD-IM-689-263-N.jpg","1","1","1","1","0","1","0.585096800001338","0.572576600010507","0.389828699990176","1","1","1","1","1","1","1","1","1"
"250033","img/neutralC/CFD-IM-689-263-N.jpg","img/neutralC/CFD-AM-243-212-N.jpg","img/neutralC/CFD-LF-238-154-N.jpg","1","1","1","1","1","1","0.389828699990176","0.585096800001338","0.382461900007911","1","1","1","1","1","1","1","1","1"
"250033","img/neutralC/CFD-LF-238-154-N.jpg","img/neutralC/CFD-IM-689-263-N.jpg","img/neutralC/CFD-AM-249-163-N.jpg","1","1","1","1","1","1","0.382461900007911","0.389828699990176","0.386747299926355","1","1","1","1","1","1","1","1","1"
"250033","img/neutralC/CFD-AM-249-163-N.jpg","img/neutralC/CFD-LF-238-154-N.jpg","img/neutralC/CFD-WM-028-003-N.jpg","1","1","1","1","1","1","0.386747299926355","0.382461900007911","0.375006800051779","1","1","1","1","1","1","1","1","1"
"250033","img/neutralC/CFD-WM-028-003-N.jpg","img/neutralC/CFD-AM-249-163-N.jpg","img/neutralC/CFD-LF-222-147-N.jpg","1","1","1","1","1","0","0.375006800051779","0.386747299926355","0.602545600035228","1","1","1","1","1","1","1","1","1"
"250033","img/neutralC/CFD-LF-222-147-N.jpg","img/neutralC/CFD-WM-028-003-N.jpg","img/neutralC/CFD-MF-328-020-N.jpg","1","1","0","0","1","0","0.602545600035228","0.375006800051779","0.456857300014235","1","1","1","1","1","1","1","1","1"
"250033","img/neutralC/CFD-MF-328-020-N.jpg","img/neutralC/CFD-LF-222-147-N.jpg","img/neutralC/CFD-BM-020-001-N.jpg","0","1","1","0","0","0","0.456857300014235","0.602545600035228","0.64625819993671","1","1","1","1","1","1","1","1","1"
"250033","img/neutralC/CFD-BM-020-001-N.jpg","img/neutralC/CFD-MF-328-020-N.jpg","img/neutralC/CFD-WF-009-001-N.jpg","1","0","1","0","0","1","0.64625819993671","0.456857300014235","0.441038000048138","1","1","1","1","1","1","1","1","1"
"250033","img/neutralC/CFD-WF-009-001-N.jpg","img/neutralC/CFD-BM-020-001-N.jpg",NA,"1","1",NA,"1","0",NA,"0.441038000048138","0.64625819993671",NA,"1","1",NA,"1","1",NA,"1","1",NA
"250033","img/neutralC/CFD-WF-235-121-N.jpg",NA,"img/neutralC/CFD-AM-233-236-N.jpg","1",NA,"1","0",NA,"1","0.472053800011054",NA,"0.438939299900085","1",NA,"1","1",NA,"1","1",NA,"1"
"250033","img/neutralC/CFD-AM-233-236-N.jpg","img/neutralC/CFD-WF-235-121-N.jpg","img/neutralC/CFD-BF-217-189-N.jpg","1","1","0","1","0","0","0.438939299900085","0.472053800011054","0.37057469994761","1","1","1","1","1","1","1","1","1"
"250033","img/neutralC/CFD-BF-217-189-N.jpg","img/neutralC/CFD-AM-233-236-N.jpg","img/neutralC/CFD-AF-213-126-N.jpg","0","1","1","0","1","1","0.37057469994761","0.438939299900085","0.52363030007109","1","1","1","1","1","1","1","1","1"
"250033","img/neutralC/CFD-AF-213-126-N.jpg","img/neutralC/CFD-BF-217-189-N.jpg","img/neutralC/CFD-IM-635-010-N.jpg","1","0","1","1","0","1","0.52363030007109","0.37057469994761","0.426418100018054","1","1","1","1","1","1","1","1","1"
"250033","img/neutralC/CFD-IM-635-010-N.jpg","img/neutralC/CFD-AF-213-126-N.jpg","img/neutralC/CFD-AF-244-168-N.jpg","1","1","1","1","1","0","0.426418100018054","0.52363030007109","0.54306880000513","1","1","1","1","1","1","1","1","1"
"250033","img/neutralC/CFD-AF-244-168-N.jpg","img/neutralC/CFD-IM-635-010-N.jpg","img/neutralC/CFD-BF-235-168-N.jpg","1","1","1","0","1","1","0.54306880000513","0.426418100018054","0.461386799928732","1","1","1","1","1","1","1","1","1"
"250033","img/neutralC/CFD-BF-235-168-N.jpg","img/neutralC/CFD-AF-244-168-N.jpg","img/neutralC/CFD-BF-020-002-N.jpg","1","1","1","1","0","1","0.461386799928732","0.54306880000513","0.373832499957643","1","1","1","1","1","1","1","1","1"
"250033","img/neutralC/CFD-BF-020-002-N.jpg","img/neutralC/CFD-BF-235-168-N.jpg","img/neutralC/CFD-WF-210-086-N.jpg","1","1","0","1","1","0","0.373832499957643","0.461386799928732","0.398967399960384","1","1","1","1","1","1","1","1","1"
"250033","img/neutralC/CFD-WF-210-086-N.jpg","img/neutralC/CFD-BF-020-002-N.jpg","img/neutralC/CFD-BF-206-143-N.jpg","0","1","1","0","1","1","0.398967399960384","0.373832499957643","0.521020999993198","1","1","1","1","1","1","1","1","1"
"250033","img/neutralC/CFD-BF-206-143-N.jpg","img/neutralC/CFD-WF-210-086-N.jpg","img/neutralC/CFD-MF-307-002-N.jpg","1","0","1","1","0","1","0.521020999993198","0.398967399960384","0.369946099934168","1","1","1","1","1","1","1","1","1"
"250033","img/neutralC/CFD-MF-307-002-N.jpg","img/neutralC/CFD-BF-206-143-N.jpg","img/neutralC/CFD-BF-040-003-N.jpg","1","1","1","1","1","1","0.369946099934168","0.521020999993198","0.495572800049558","1","1","1","1","1","1","1","1","1"
"250033","img/neutralC/CFD-BF-040-003-N.jpg","img/neutralC/CFD-MF-307-002-N.jpg","img/neutralC/CFD-AM-245-111-N.jpg","1","1","1","1","1","1","0.495572800049558","0.369946099934168","0.353990599978715","1","1","1","1","1","1","1","1","1"
"250033","img/neutralC/CFD-AM-245-111-N.jpg","img/neutralC/CFD-BF-040-003-N.jpg","img/neutralC/CFD-BM-215-155-N.jpg","1","1","1","1","1","0","0.353990599978715","0.495572800049558","0.703684299951419","1","1","1","1","1","1","1","1","1"
"250033","img/neutralC/CFD-BM-215-155-N.jpg","img/neutralC/CFD-AM-245-111-N.jpg","img/neutralC/CFD-IM-678-482-N.jpg","1","1","1","0","1","0","0.703684299951419","0.353990599978715","0.83125030004885","1","1","1","1","1","1","1","1","1"
"250033","img/neutralC/CFD-IM-678-482-N.jpg","img/neutralC/CFD-BM-215-155-N.jpg","img/neutralC/CFD-BM-004-002-N.jpg","1","1","1","0","0","0","0.83125030004885","0.703684299951419","0.622970999917015","1","1","1","1","1","1","1","1","1"
"250033","img/neutralC/CFD-BM-004-002-N.jpg","img/neutralC/CFD-IM-678-482-N.jpg","img/neutralC/CFD-IF-732-260-N.jpg","1","1","1","0","0","0","0.622970999917015","0.83125030004885","0.303537200088613","1","1","1","1","1","1","1","1","1"
"250033","img/neutralC/CFD-IF-732-260-N.jpg","img/neutralC/CFD-BM-004-002-N.jpg","img/neutralC/CFD-MF-302-027-N.jpg","1","1","1","0","0","0","0.303537200088613","0.622970999917015","0.587239500018768","1","1","1","1","1","1","1","1","1"
"250033","img/neutralC/CFD-MF-302-027-N.jpg","img/neutralC/CFD-IF-732-260-N.jpg","img/neutralC/CFD-AF-234-208-N.jpg","1","1","1","0","0","1","0.587239500018768","0.303537200088613","0.507665999932215","1","1","1","1","1","1","1","1","1"
"250033","img/neutralC/CFD-AF-234-208-N.jpg","img/neutralC/CFD-MF-302-027-N.jpg","img/neutralC/CFD-BF-042-026-N.jpg","1","1","1","1","0","1","0.507665999932215","0.587239500018768","0.584027100005187","1","1","1","1","1","1","1","1","1"
"250033","img/neutralC/CFD-BF-042-026-N.jpg","img/neutralC/CFD-AF-234-208-N.jpg","img/neutralC/CFD-IM-669-111-N.jpg","1","1","1","1","1","1","0.584027100005187","0.507665999932215","0.608548699994572","1","1","1","1","1","1","1","1","1"
"250033","img/neutralC/CFD-IM-669-111-N.jpg","img/neutralC/CFD-BF-042-026-N.jpg","img/neutralC/CFD-AF-205-155-N.jpg","1","1","1","1","1","0","0.608548699994572","0.584027100005187","0.375057799974456","1","1","1","1","1","1","1","1","1"
"250033","img/neutralC/CFD-AF-205-155-N.jpg","img/neutralC/CFD-IM-669-111-N.jpg","img/neutralC/CFD-AF-250-200-N.jpg","1","1","1","0","1","1","0.375057799974456","0.608548699994572","0.420972799998708","1","1","1","1","1","1","1","1","1"
"250033","img/neutralC/CFD-AF-250-200-N.jpg","img/neutralC/CFD-AF-205-155-N.jpg","img/neutralC/CFD-AF-246-242-N.jpg","1","1","1","1","0","0","0.420972799998708","0.375057799974456","0.40778810007032","1","1","1","1","1","1","1","1","1"
"250033","img/neutralC/CFD-AF-246-242-N.jpg","img/neutralC/CFD-AF-250-200-N.jpg","img/neutralC/CFD-AM-225-102-N.jpg","1","1","0","0","1","0","0.40778810007032","0.420972799998708","0.487068000016734","1","1","1","1","1","1","1","1","2"
"250033","img/neutralC/CFD-AM-225-102-N.jpg","img/neutralC/CFD-AF-246-242-N.jpg","img/neutralC/CFD-LF-239-148-N.jpg","0","1","0","0","0","0","0.487068000016734","0.40778810007032","0.992950899992138","1","1","1","1","1","1","2","1","1"
"250033","img/neutralC/CFD-LF-239-148-N.jpg","img/neutralC/CFD-AM-225-102-N.jpg","img/neutralC/CFD-IM-632-097-N.jpg","0","0","1","0","0","0","0.992950899992138","0.487068000016734","0.562760600005277","1","1","1","1","1","1","1","2","1"
"250033","img/neutralC/CFD-IM-632-097-N.jpg","img/neutralC/CFD-LF-239-148-N.jpg","img/neutralC/CFD-WM-253-119-N.jpg","1","0","1","0","0","1","0.562760600005277","0.992950899992138","0.618552399915643","1","1","1","1","1","1","1","1","1"
"250033","img/neutralC/CFD-WM-253-119-N.jpg","img/neutralC/CFD-IM-632-097-N.jpg","img/neutralC/CFD-IF-636-011-N.jpg","1","1","1","1","0","1","0.618552399915643","0.562760600005277","0.661849199910648","1","1","1","1","1","1","1","1","1"
"250033","img/neutralC/CFD-IF-636-011-N.jpg","img/neutralC/CFD-WM-253-119-N.jpg","img/neutralC/CFD-LM-241-125-N.jpg","1","1","1","1","1","1","0.661849199910648","0.618552399915643","0.449441500008106","1","1","1","1","1","1","1","1","1"
"250033","img/neutralC/CFD-LM-241-125-N.jpg","img/neutralC/CFD-IF-636-011-N.jpg","img/neutralC/CFD-LM-204-001-N.jpg","1","1","1","1","1","0","0.449441500008106","0.661849199910648","0.495440599974245","1","1","1","1","1","1","1","1","1"
"250033","img/neutralC/CFD-LM-204-001-N.jpg","img/neutralC/CFD-LM-241-125-N.jpg","img/neutralC/CFD-WM-018-002-N.jpg","1","1","1","0","1","0","0.495440599974245","0.449441500008106","0.433563999948092","1","1","1","1","1","1","1","1","1"
"250033","img/neutralC/CFD-WM-018-002-N.jpg","img/neutralC/CFD-LM-204-001-N.jpg",NA,"1","1",NA,"0","0",NA,"0.433563999948092","0.495440599974245",NA,"1","1",NA,"1","1",NA,"1","1",NA
"250033","img/neutralC/CFD-BM-250-170-N.jpg",NA,"img/neutralC/CFD-IM-706-002-N.jpg","0",NA,"1","1",NA,"0",NA,NA,"0.677567199920304","0",NA,"1","0",NA,"1","0",NA,"1"
"250033","img/neutralC/CFD-IM-706-002-N.jpg","img/neutralC/CFD-BM-250-170-N.jpg","img/neutralC/CFD-IM-680-369-N.jpg","1","0","1","0","1","1","0.677567199920304",NA,"0.497791500063613","1","0","1","1","0","1","1","0","1"
"250033","img/neutralC/CFD-IM-680-369-N.jpg","img/neutralC/CFD-IM-706-002-N.jpg","img/neutralC/CFD-BF-237-172-N.jpg","1","1","1","1","0","1","0.497791500063613","0.677567199920304","0.474451499991119","1","1","1","1","1","1","1","1","1"
"250033","img/neutralC/CFD-BF-237-172-N.jpg","img/neutralC/CFD-IM-680-369-N.jpg","img/neutralC/CFD-LF-206-078-N.jpg","1","1","1","1","1","1","0.474451499991119","0.497791500063613","0.471441800007597","1","1","1","1","1","1","1","1","1"
"250033","img/neutralC/CFD-LF-206-078-N.jpg","img/neutralC/CFD-BF-237-172-N.jpg","img/neutralC/CFD-MF-303-013-N.jpg","1","1","1","1","1","0","0.471441800007597","0.474451499991119","0.787105199997313","1","1","1","1","1","1","1","1","1"
"250033","img/neutralC/CFD-MF-303-013-N.jpg","img/neutralC/CFD-LF-206-078-N.jpg","img/neutralC/CFD-BM-001-014-N.jpg","1","1","1","0","1","0","0.787105199997313","0.471441800007597","0.41815200005658","1","1","1","1","1","1","1","1","1"
"250033","img/neutralC/CFD-BM-001-014-N.jpg","img/neutralC/CFD-MF-303-013-N.jpg","img/neutralC/CFD-AF-253-130-N.jpg","1","1","1","0","0","1","0.41815200005658","0.787105199997313","0.394447900005616","1","1","1","1","1","1","1","1","1"
"250033","img/neutralC/CFD-AF-253-130-N.jpg","img/neutralC/CFD-BM-001-014-N.jpg","img/neutralC/CFD-MF-316-001-N.jpg","1","1","1","1","0","0","0.394447900005616","0.41815200005658","0.361570100067183","1","1","1","1","1","1","1","1","1"
"250033","img/neutralC/CFD-MF-316-001-N.jpg","img/neutralC/CFD-AF-253-130-N.jpg","img/neutralC/CFD-LF-255-088-N.jpg","1","1","1","0","1","0","0.361570100067183","0.394447900005616","0.495999200036749","1","1","1","1","1","1","1","1","1"
"250033","img/neutralC/CFD-LF-255-088-N.jpg","img/neutralC/CFD-MF-316-001-N.jpg","img/neutralC/CFD-WM-015-002-N.jpg","1","1","1","0","0","0","0.495999200036749","0.361570100067183","0.535762999905273","1","1","1","1","1","1","1","1","1"
"250033","img/neutralC/CFD-WM-015-002-N.jpg","img/neutralC/CFD-LF-255-088-N.jpg","img/neutralC/CFD-WM-209-038-N.jpg","1","1","1","0","0","0","0.535762999905273","0.495999200036749","0.675122999935411","1","1","1","1","1","1","1","1","1"
"250033","img/neutralC/CFD-WM-209-038-N.jpg","img/neutralC/CFD-WM-015-002-N.jpg","img/neutralC/CFD-LM-200-045-N.jpg","1","1","1","0","0","1","0.675122999935411","0.535762999905273","0.489727800013498","1","1","1","1","1","1","1","1","1"
"250033","img/neutralC/CFD-LM-200-045-N.jpg","img/neutralC/CFD-WM-209-038-N.jpg","img/neutralC/CFD-WF-030-002-N.jpg","1","1","1","1","0","0","0.489727800013498","0.675122999935411","0.706687899888493","1","1","1","1","1","1","1","1","1"
"250033","img/neutralC/CFD-WF-030-002-N.jpg","img/neutralC/CFD-LM-200-045-N.jpg","img/neutralC/CFD-IF-660-464-N.jpg","1","1","0","0","1","0","0.706687899888493","0.489727800013498","0.522180699976161","1","1","1","1","1","1","1","1","1"
"250033","img/neutralC/CFD-IF-660-464-N.jpg","img/neutralC/CFD-WF-030-002-N.jpg","img/neutralC/CFD-WF-222-092-N.jpg","0","1","1","0","0","1","0.522180699976161","0.706687899888493","0.517452099942602","1","1","1","1","1","1","1","1","1"
"250033","img/neutralC/CFD-WF-222-092-N.jpg","img/neutralC/CFD-IF-660-464-N.jpg","img/neutralC/CFD-AM-220-134-N.jpg","1","0","1","1","0","0","0.517452099942602","0.522180699976161","0.731343799969181","1","1","1","1","1","1","1","1","1"
"250033","img/neutralC/CFD-AM-220-134-N.jpg","img/neutralC/CFD-WF-222-092-N.jpg","img/neutralC/CFD-IM-702-101-N.jpg","1","1","1","0","1","1","0.731343799969181","0.517452099942602","0.599687100038864","1","1","1","1","1","1","1","1","1"
"250033","img/neutralC/CFD-IM-702-101-N.jpg","img/neutralC/CFD-AM-220-134-N.jpg","img/neutralC/CFD-IM-667-369-N.jpg","1","1","1","1","0","0","0.599687100038864","0.731343799969181","0.718823199975304","1","1","1","1","1","1","1","1","1"
"250033","img/neutralC/CFD-IM-667-369-N.jpg","img/neutralC/CFD-IM-702-101-N.jpg","img/neutralC/CFD-IM-664-651-N.jpg","1","1","1","0","1","1","0.718823199975304","0.599687100038864","0.334133700001985","1","1","1","1","1","1","1","1","1"
"250033","img/neutralC/CFD-IM-664-651-N.jpg","img/neutralC/CFD-IM-667-369-N.jpg","img/neutralC/CFD-BM-217-082-N.jpg","1","1","1","1","0","0","0.334133700001985","0.718823199975304","0.59401360002812","1","1","1","1","1","1","1","1","1"
"250033","img/neutralC/CFD-BM-217-082-N.jpg","img/neutralC/CFD-IM-664-651-N.jpg","img/neutralC/CFD-LM-225-130-N.jpg","1","1","1","0","1","0","0.59401360002812","0.334133700001985","1.11730669997633","1","1","1","1","1","1","1","1","1"
"250033","img/neutralC/CFD-LM-225-130-N.jpg","img/neutralC/CFD-BM-217-082-N.jpg","img/neutralC/CFD-WF-007-001-N.jpg","1","1","1","0","0","1","1.11730669997633","0.59401360002812","0.561086300062016","1","1","1","1","1","1","1","1","1"
"250033","img/neutralC/CFD-WF-007-001-N.jpg","img/neutralC/CFD-LM-225-130-N.jpg","img/neutralC/CFD-MF-305-014-N.jpg","1","1","1","1","0","1","0.561086300062016","1.11730669997633","0.570471900049597","1","1","1","1","1","1","1","1","1"
"250033","img/neutralC/CFD-MF-305-014-N.jpg","img/neutralC/CFD-WF-007-001-N.jpg","img/neutralC/CFD-IF-626-375-N.jpg","1","1","1","1","1","0","0.570471900049597","0.561086300062016","1.47042000002693","1","1","1","1","1","1","1","1","1"
"250033","img/neutralC/CFD-IF-626-375-N.jpg","img/neutralC/CFD-MF-305-014-N.jpg","img/neutralC/CFD-WF-244-163-N.jpg","1","1","1","0","1","1","1.47042000002693","0.570471900049597","0.488373499945737","1","1","1","1","1","1","1","1","1"
"250033","img/neutralC/CFD-WF-244-163-N.jpg","img/neutralC/CFD-IF-626-375-N.jpg","img/neutralC/CFD-AF-233-190-N.jpg","1","1","1","1","0","0","0.488373499945737","1.47042000002693","0.85308469994925","1","1","1","1","1","1","1","1","1"
"250033","img/neutralC/CFD-AF-233-190-N.jpg","img/neutralC/CFD-WF-244-163-N.jpg","img/neutralC/CFD-WM-218-074-N.jpg","1","1","1","0","1","1","0.85308469994925","0.488373499945737","0.972921299980953","1","1","1","1","1","1","1","1","1"
"250033","img/neutralC/CFD-WM-218-074-N.jpg","img/neutralC/CFD-AF-233-190-N.jpg","img/neutralC/CFD-MF-343-001-N.jpg","1","1","1","1","0","1","0.972921299980953","0.85308469994925","0.440072700032033","1","1","1","1","1","1","1","1","1"
"250033","img/neutralC/CFD-MF-343-001-N.jpg","img/neutralC/CFD-WM-218-074-N.jpg","img/neutralC/CFD-MF-357-002-N.jpg","1","1","1","1","1","0","0.440072700032033","0.972921299980953","0.648910599993542","1","1","1","1","1","1","1","1","1"
"250033","img/neutralC/CFD-MF-357-002-N.jpg","img/neutralC/CFD-MF-343-001-N.jpg","img/neutralC/CFD-MM-324-069-N.jpg","1","1","1","0","1","1","0.648910599993542","0.440072700032033","0.479215200059116","1","1","1","1","1","1","1","1","1"
"250033","img/neutralC/CFD-MM-324-069-N.jpg","img/neutralC/CFD-MF-357-002-N.jpg","img/neutralC/CFD-BF-014-002-N.jpg","1","1","1","1","0","1","0.479215200059116","0.648910599993542","0.64151329989545","1","1","1","1","1","1","1","1","1"
"250033","img/neutralC/CFD-BF-014-002-N.jpg","img/neutralC/CFD-MM-324-069-N.jpg",NA,"1","1",NA,"1","1",NA,"0.64151329989545","0.479215200059116",NA,"1","1",NA,"1","1",NA,"1","1",NA
"250033","img/neutralC/CFD-BF-023-010-N.jpg",NA,"img/neutralC/CFD-LM-252-076-N.jpg","1",NA,"1","1",NA,"1","0.980780499987304",NA,"0.497333699953742","1",NA,"1","1",NA,"1","1",NA,"1"
"250033","img/neutralC/CFD-LM-252-076-N.jpg","img/neutralC/CFD-BF-023-010-N.jpg","img/neutralC/CFD-WF-022-017-N.jpg","1","1","0","1","1","0","0.497333699953742","0.980780499987304","0.478135299985297","1","1","1","1","1","1","1","1","1"
"250033","img/neutralC/CFD-WF-022-017-N.jpg","img/neutralC/CFD-LM-252-076-N.jpg","img/neutralC/CFD-WM-038-003-N.jpg","0","1","1","0","1","0","0.478135299985297","0.497333699953742","0.737385399988852","1","1","1","1","1","1","1","1","1"
"250033","img/neutralC/CFD-WM-038-003-N.jpg","img/neutralC/CFD-WF-022-017-N.jpg","img/neutralC/CFD-BF-003-003-N.jpg","1","0","1","0","0","0","0.737385399988852","0.478135299985297","0.607586800004356","1","1","1","1","1","1","1","1","1"
"250033","img/neutralC/CFD-BF-003-003-N.jpg","img/neutralC/CFD-WM-038-003-N.jpg","img/neutralC/CFD-BM-027-001-N.jpg","1","1","1","0","0","0","0.607586800004356","0.737385399988852","0.64195339998696","1","1","1","1","1","1","1","1","1"
"250033","img/neutralC/CFD-BM-027-001-N.jpg","img/neutralC/CFD-BF-003-003-N.jpg","img/neutralC/CFD-LF-216-121-N.jpg","1","1","1","0","0","1","0.64195339998696","0.607586800004356","0.499750799965113","1","1","1","1","1","1","1","1","1"
"250033","img/neutralC/CFD-LF-216-121-N.jpg","img/neutralC/CFD-BM-027-001-N.jpg","img/neutralC/CFD-WM-040-022-N.jpg","1","1","0","1","0","0","0.499750799965113","0.64195339998696","0.285408700001426","1","1","1","1","1","1","1","1","1"
"250033","img/neutralC/CFD-WM-040-022-N.jpg","img/neutralC/CFD-LF-216-121-N.jpg","img/neutralC/CFD-AM-215-120-N.jpg","0","1","1","0","1","1","0.285408700001426","0.499750799965113","0.519938300014473","1","1","1","1","1","1","1","1","1"
"250033","img/neutralC/CFD-AM-215-120-N.jpg","img/neutralC/CFD-WM-040-022-N.jpg","img/neutralC/CFD-WF-026-002-N.jpg","1","0","1","1","0","1","0.519938300014473","0.285408700001426","0.40928130003158","1","1","1","1","1","1","1","1","1"
"250033","img/neutralC/CFD-WF-026-002-N.jpg","img/neutralC/CFD-AM-215-120-N.jpg","img/neutralC/CFD-BM-015-015-N.jpg","1","1","0","1","1","0","0.40928130003158","0.519938300014473","0.366108999936841","1","1","1","1","1","1","1","1","1"
"250033","img/neutralC/CFD-BM-015-015-N.jpg","img/neutralC/CFD-WF-026-002-N.jpg","img/neutralC/CFD-AM-235-241-N.jpg","0","1","1","0","1","0","0.366108999936841","0.40928130003158","0.933353299973533","1","1","1","1","1","1","1","1","1"
"250033","img/neutralC/CFD-AM-235-241-N.jpg","img/neutralC/CFD-BM-015-015-N.jpg","img/neutralC/CFD-IM-728-041-N.jpg","1","0","1","0","0","0","0.933353299973533","0.366108999936841","0.997170599992387","1","1","1","1","1","1","1","1","1"
"250033","img/neutralC/CFD-IM-728-041-N.jpg","img/neutralC/CFD-AM-235-241-N.jpg","img/neutralC/CFD-IF-718-001-N.jpg","1","1","1","0","0","1","0.997170599992387","0.933353299973533","0.437090099905618","1","1","1","1","1","1","1","1","1"
"250033","img/neutralC/CFD-IF-718-001-N.jpg","img/neutralC/CFD-IM-728-041-N.jpg","img/neutralC/CFD-AM-217-085-N.jpg","1","1","1","1","0","0","0.437090099905618","0.997170599992387","0.678200400085188","1","1","1","1","1","1","1","1","1"
"250033","img/neutralC/CFD-AM-217-085-N.jpg","img/neutralC/CFD-IF-718-001-N.jpg","img/neutralC/CFD-BF-208-266-N.jpg","1","1","1","0","1","0","0.678200400085188","0.437090099905618","0.937647200073116","1","1","1","1","1","1","1","1","1"
"250033","img/neutralC/CFD-BF-208-266-N.jpg","img/neutralC/CFD-AM-217-085-N.jpg","img/neutralC/CFD-BF-255-140-N.jpg","1","1","1","0","0","1","0.937647200073116","0.678200400085188","0.501273699919693","1","1","1","1","1","1","1","1","1"
"250033","img/neutralC/CFD-BF-255-140-N.jpg","img/neutralC/CFD-BF-208-266-N.jpg","img/neutralC/CFD-WM-225-127-N.jpg","1","1","1","1","0","0","0.501273699919693","0.937647200073116","0.479803399997763","1","1","1","1","1","1","1","1","1"
"250033","img/neutralC/CFD-WM-225-127-N.jpg","img/neutralC/CFD-BF-255-140-N.jpg","img/neutralC/CFD-BF-204-189-N.jpg","1","1","1","0","1","1","0.479803399997763","0.501273699919693","0.334030600031838","1","1","1","1","1","1","1","1","1"
"250033","img/neutralC/CFD-BF-204-189-N.jpg","img/neutralC/CFD-WM-225-127-N.jpg","img/neutralC/CFD-MM-319-052-N.jpg","1","1","1","1","0","1","0.334030600031838","0.479803399997763","0.339632299961522","1","1","1","1","1","1","1","1","1"
"250033","img/neutralC/CFD-MM-319-052-N.jpg","img/neutralC/CFD-BF-204-189-N.jpg","img/neutralC/CFD-IM-674-281-N.jpg","1","1","1","1","1","1","0.339632299961522","0.334030600031838","0.471560499980114","1","1","1","1","1","1","1","1","1"
"250033","img/neutralC/CFD-IM-674-281-N.jpg","img/neutralC/CFD-MM-319-052-N.jpg","img/neutralC/CFD-BF-028-001-N.jpg","1","1","1","1","1","1","0.471560499980114","0.339632299961522","0.336178599973209","1","1","1","1","1","1","1","1","1"
"250033","img/neutralC/CFD-BF-028-001-N.jpg","img/neutralC/CFD-IM-674-281-N.jpg","img/neutralC/CFD-WM-002-009-N.jpg","1","1","0","1","1","0","0.336178599973209","0.471560499980114","0.487683500046842","1","1","1","1","1","1","1","1","1"
"250033","img/neutralC/CFD-WM-002-009-N.jpg","img/neutralC/CFD-BF-028-001-N.jpg","img/neutralC/CFD-BM-029-024-N.jpg","0","1","1","0","1","1","0.487683500046842","0.336178599973209","0.489127299981192","1","1","1","1","1","1","1","1","1"
"250033","img/neutralC/CFD-BM-029-024-N.jpg","img/neutralC/CFD-WM-002-009-N.jpg","img/neutralC/CFD-IF-672-305-N.jpg","1","0","1","1","0","0","0.489127299981192","0.487683500046842","0.578180399956182","1","1","1","1","1","1","1","1","1"
"250033","img/neutralC/CFD-IF-672-305-N.jpg","img/neutralC/CFD-BM-029-024-N.jpg","img/neutralC/CFD-IM-639-263-N.jpg","1","1","1","0","1","1","0.578180399956182","0.489127299981192","0.449023900087923","1","1","1","1","1","1","1","1","1"
"250033","img/neutralC/CFD-IM-639-263-N.jpg","img/neutralC/CFD-IF-672-305-N.jpg","img/neutralC/CFD-BF-201-080-N.jpg","1","1","1","1","0","1","0.449023900087923","0.578180399956182","0.6897799000144","1","1","1","1","1","1","1","1","1"
"250033","img/neutralC/CFD-BF-201-080-N.jpg","img/neutralC/CFD-IM-639-263-N.jpg","img/neutralC/CFD-BM-247-240-N.jpg","1","1","1","1","1","0","0.6897799000144","0.449023900087923","0.596113999956287","1","1","1","1","1","1","1","1","1"
"250033","img/neutralC/CFD-BM-247-240-N.jpg","img/neutralC/CFD-BF-201-080-N.jpg","img/neutralC/CFD-LF-236-221-N.jpg","1","1","1","0","1","1","0.596113999956287","0.6897799000144","0.426407000049949","1","1","1","1","1","1","1","1","1"
"250033","img/neutralC/CFD-LF-236-221-N.jpg","img/neutralC/CFD-BM-247-240-N.jpg","img/neutralC/CFD-WF-002-004-N.jpg","1","1","0","1","0","0","0.426407000049949","0.596113999956287","0.72954920004122","1","1","1","1","1","1","1","1","1"
"250033","img/neutralC/CFD-WF-002-004-N.jpg","img/neutralC/CFD-LF-236-221-N.jpg","img/neutralC/CFD-BM-211-174-N.jpg","0","1","1","0","1","0","0.72954920004122","0.426407000049949","0.439376199967228","1","1","1","1","1","1","1","1","1"
"250033","img/neutralC/CFD-BM-211-174-N.jpg","img/neutralC/CFD-WF-002-004-N.jpg","img/neutralC/CFD-WM-257-161-N.jpg","1","0","1","0","0","1","0.439376199967228","0.72954920004122","0.604403500095941","1","1","1","1","1","1","1","1","1"
"250033","img/neutralC/CFD-WM-257-161-N.jpg","img/neutralC/CFD-BM-211-174-N.jpg",NA,"1","1",NA,"1","0",NA,"0.604403500095941","0.439376199967228",NA,"1","1",NA,"1","1",NA,"1","1",NA
"250033","img/neutralC/CFD-BF-025-002-N.jpg",NA,"img/neutralC/CFD-WF-017-003-N.jpg","0",NA,"1","0",NA,"1","0.977019499987364",NA,"0.837537600076757","1",NA,"1","1",NA,"1","1",NA,"1"
"250033","img/neutralC/CFD-WF-017-003-N.jpg","img/neutralC/CFD-BF-025-002-N.jpg","img/neutralC/CFD-WM-012-001-N.jpg","1","0","1","1","0","1","0.837537600076757","0.977019499987364","0.54591560002882","1","1","1","1","1","1","1","1","1"
"250033","img/neutralC/CFD-WM-012-001-N.jpg","img/neutralC/CFD-WF-017-003-N.jpg","img/neutralC/CFD-WF-005-010-N.jpg","1","1","1","1","1","0","0.54591560002882","0.837537600076757","0.523546500015073","1","1","1","1","1","1","1","1","1"
"250033","img/neutralC/CFD-WF-005-010-N.jpg","img/neutralC/CFD-WM-012-001-N.jpg","img/neutralC/CFD-AF-240-206-N.jpg","1","1","0","0","1","0","0.523546500015073","0.54591560002882","0.581499499967322","1","1","1","1","1","1","1","1","2"
"250033","img/neutralC/CFD-AF-240-206-N.jpg","img/neutralC/CFD-WF-005-010-N.jpg","img/neutralC/CFD-IM-646-023-N.jpg","0","1","1","0","0","1","0.581499499967322","0.523546500015073","0.51530750002712","1","1","1","1","1","1","2","1","1"
"250033","img/neutralC/CFD-IM-646-023-N.jpg","img/neutralC/CFD-AF-240-206-N.jpg","img/neutralC/CFD-AM-247-165-N.jpg","1","0","1","1","0","1","0.51530750002712","0.581499499967322","0.614245600067079","1","1","1","1","1","1","1","2","1"
"250033","img/neutralC/CFD-AM-247-165-N.jpg","img/neutralC/CFD-IM-646-023-N.jpg","img/neutralC/CFD-BF-228-212-N.jpg","1","1","0","1","1","0","0.614245600067079","0.51530750002712","0.490092199994251","1","1","1","1","1","1","1","1","1"
"250033","img/neutralC/CFD-BF-228-212-N.jpg","img/neutralC/CFD-AM-247-165-N.jpg","img/neutralC/CFD-WM-215-041-N.jpg","0","1","1","0","1","0","0.490092199994251","0.614245600067079","0.56036900007166","1","1","1","1","1","1","1","1","1"
"250033","img/neutralC/CFD-WM-215-041-N.jpg","img/neutralC/CFD-BF-228-212-N.jpg","img/neutralC/CFD-LM-201-057-N.jpg","1","0","1","0","0","1","0.56036900007166","0.490092199994251","0.387863499927334","1","1","1","1","1","1","1","1","1"
"250033","img/neutralC/CFD-LM-201-057-N.jpg","img/neutralC/CFD-WM-215-041-N.jpg","img/neutralC/CFD-WM-019-003-N.jpg","1","1","1","1","0","1","0.387863499927334","0.56036900007166","0.41643149999436","1","1","1","1","1","1","1","1","1"
"250033","img/neutralC/CFD-WM-019-003-N.jpg","img/neutralC/CFD-LM-201-057-N.jpg","img/neutralC/CFD-BM-251-013-N.jpg","1","1","1","1","1","1","0.41643149999436","0.387863499927334","0.432041799998842","1","1","1","1","1","1","1","1","1"
"250033","img/neutralC/CFD-BM-251-013-N.jpg","img/neutralC/CFD-WM-019-003-N.jpg","img/neutralC/CFD-MF-309-002-N.jpg","1","1","1","1","1","0","0.432041799998842","0.41643149999436","0.57507090002764","1","1","1","1","1","1","1","1","1"
"250033","img/neutralC/CFD-MF-309-002-N.jpg","img/neutralC/CFD-BM-251-013-N.jpg","img/neutralC/CFD-WM-212-097-N.jpg","1","1","1","0","1","0","0.57507090002764","0.432041799998842","0.77326200006064","1","1","1","1","1","1","1","1","1"
"250033","img/neutralC/CFD-WM-212-097-N.jpg","img/neutralC/CFD-MF-309-002-N.jpg","img/neutralC/CFD-IF-642-295-N.jpg","1","1","1","0","0","1","0.77326200006064","0.57507090002764","0.500225199968554","1","1","1","1","1","1","1","1","1"
"250033","img/neutralC/CFD-IF-642-295-N.jpg","img/neutralC/CFD-WM-212-097-N.jpg","img/neutralC/CFD-MM-317-061-N.jpg","1","1","1","1","0","1","0.500225199968554","0.77326200006064","0.664250900037587","1","1","1","1","1","1","1","1","1"
"250033","img/neutralC/CFD-MM-317-061-N.jpg","img/neutralC/CFD-IF-642-295-N.jpg","img/neutralC/CFD-BF-202-109-N.jpg","1","1","1","1","1","1","0.664250900037587","0.500225199968554","0.440968699986115","1","1","1","1","1","1","1","1","1"
"250033","img/neutralC/CFD-BF-202-109-N.jpg","img/neutralC/CFD-MM-317-061-N.jpg","img/neutralC/CFD-WM-026-001-N.jpg","1","1","1","1","1","1","0.440968699986115","0.664250900037587","0.540370000060648","1","1","1","1","1","1","1","1","1"
"250033","img/neutralC/CFD-WM-026-001-N.jpg","img/neutralC/CFD-BF-202-109-N.jpg","img/neutralC/CFD-BM-205-001-N.jpg","1","1","1","1","1","0","0.540370000060648","0.440968699986115","0.784484699950553","1","1","1","1","1","1","1","1","1"
"250033","img/neutralC/CFD-BM-205-001-N.jpg","img/neutralC/CFD-WM-026-001-N.jpg","img/neutralC/CFD-WF-228-196-N.jpg","1","1","1","0","1","0","0.784484699950553","0.540370000060648","0.917530699982308","1","1","1","1","1","1","1","1","1"
"250033","img/neutralC/CFD-WF-228-196-N.jpg","img/neutralC/CFD-BM-205-001-N.jpg","img/neutralC/CFD-WM-249-239-N.jpg","1","1","1","0","0","1","0.917530699982308","0.784484699950553","0.608892999938689","1","1","1","1","1","1","1","1","1"
"250033","img/neutralC/CFD-WM-249-239-N.jpg","img/neutralC/CFD-WF-228-196-N.jpg","img/neutralC/CFD-LM-214-165-N.jpg","1","1","1","1","0","1","0.608892999938689","0.917530699982308","0.477206400013529","1","1","1","1","1","1","1","1","1"
"250033","img/neutralC/CFD-LM-214-165-N.jpg","img/neutralC/CFD-WM-249-239-N.jpg","img/neutralC/CFD-BF-212-315-N.jpg","1","1","1","1","1","1","0.477206400013529","0.608892999938689","0.456613300018944","1","1","1","1","1","1","1","1","1"
"250033","img/neutralC/CFD-BF-212-315-N.jpg","img/neutralC/CFD-LM-214-165-N.jpg","img/neutralC/CFD-BF-041-001-N.jpg","1","1","1","1","1","1","0.456613300018944","0.477206400013529","0.646566799958237","1","1","1","1","1","1","1","1","1"
"250033","img/neutralC/CFD-BF-041-001-N.jpg","img/neutralC/CFD-BF-212-315-N.jpg","img/neutralC/CFD-LM-216-082-N.jpg","1","1","1","1","1","0","0.646566799958237","0.456613300018944","0.570741100003943","1","1","1","1","1","1","1","1","1"
"250033","img/neutralC/CFD-LM-216-082-N.jpg","img/neutralC/CFD-BF-041-001-N.jpg","img/neutralC/CFD-WM-006-002-N.jpg","1","1","1","0","1","0","0.570741100003943","0.646566799958237","0.47401590005029","1","1","1","1","1","1","1","1","1"
"250033","img/neutralC/CFD-WM-006-002-N.jpg","img/neutralC/CFD-LM-216-082-N.jpg","img/neutralC/CFD-BM-248-128-N.jpg","1","1","1","0","0","0","0.47401590005029","0.570741100003943","0.527996200020425","1","1","1","1","1","1","1","1","1"
"250033","img/neutralC/CFD-BM-248-128-N.jpg","img/neutralC/CFD-WM-006-002-N.jpg","img/neutralC/CFD-MF-335-002-N.jpg","1","1","1","0","0","0","0.527996200020425","0.47401590005029","0.50105890003033","1","1","1","1","1","1","1","1","1"
"250033","img/neutralC/CFD-MF-335-002-N.jpg","img/neutralC/CFD-BM-248-128-N.jpg","img/neutralC/CFD-LM-244-068-N.jpg","1","1","1","0","0","1","0.50105890003033","0.527996200020425","0.458829600014724","1","1","1","1","1","1","1","1","1"
"250033","img/neutralC/CFD-LM-244-068-N.jpg","img/neutralC/CFD-MF-335-002-N.jpg","img/neutralC/CFD-IM-648-337-N.jpg","1","1","0","1","0","0","0.458829600014724","0.50105890003033","0.49646259995643","1","1","1","1","1","1","1","1","1"
"250033","img/neutralC/CFD-IM-648-337-N.jpg","img/neutralC/CFD-LM-244-068-N.jpg","img/neutralC/CFD-WF-240-083-N.jpg","0","1","1","0","1","0","0.49646259995643","0.458829600014724","0.57957850000821","1","1","1","1","1","1","1","1","1"
"250033","img/neutralC/CFD-WF-240-083-N.jpg","img/neutralC/CFD-IM-648-337-N.jpg","img/neutralC/CFD-LM-243-075-N.jpg","1","0","1","0","0","0","0.57957850000821","0.49646259995643","0.483679400058463","1","1","1","1","1","1","1","1","1"
"250033","img/neutralC/CFD-LM-243-075-N.jpg","img/neutralC/CFD-WF-240-083-N.jpg",NA,"1","1",NA,"0","0",NA,"0.483679400058463","0.57957850000821",NA,"1","1",NA,"1","1",NA,"1","1",NA
"250033","img/neutralC/CFD-IM-721-341-N.jpg",NA,"img/neutralC/CFD-WM-014-002-N.jpg","1",NA,"0","1",NA,"0","0.504598700092174",NA,"0.541456499951892","1",NA,"1","1",NA,"1","1",NA,"1"
"250033","img/neutralC/CFD-WM-014-002-N.jpg","img/neutralC/CFD-IM-721-341-N.jpg","img/neutralC/CFD-BF-011-002-N.jpg","0","1","1","0","1","1","0.541456499951892","0.504598700092174","0.763623800012283","1","1","1","1","1","1","1","1","1"
"250033","img/neutralC/CFD-BF-011-002-N.jpg","img/neutralC/CFD-WM-014-002-N.jpg","img/neutralC/CFD-BF-027-002-N.jpg","1","0","1","1","0","1","0.763623800012283","0.541456499951892","0.49564510001801","1","1","1","1","1","1","1","1","1"
"250033","img/neutralC/CFD-BF-027-002-N.jpg","img/neutralC/CFD-BF-011-002-N.jpg","img/neutralC/CFD-LM-213-061-N.jpg","1","1","1","1","1","0","0.49564510001801","0.763623800012283","1.05473539989907","1","1","1","1","1","1","1","1","1"
"250033","img/neutralC/CFD-LM-213-061-N.jpg","img/neutralC/CFD-BF-027-002-N.jpg","img/neutralC/CFD-IF-742-103-N.jpg","1","1","1","0","1","1","1.05473539989907","0.49564510001801","0.410800499957986","1","1","1","1","1","1","1","1","1"
"250033","img/neutralC/CFD-IF-742-103-N.jpg","img/neutralC/CFD-LM-213-061-N.jpg","img/neutralC/CFD-BF-247-179-N.jpg","1","1","1","1","0","0","0.410800499957986","1.05473539989907","0.534562099957839","1","1","1","1","1","1","1","1","1"
"250033","img/neutralC/CFD-BF-247-179-N.jpg","img/neutralC/CFD-IF-742-103-N.jpg","img/neutralC/CFD-BF-044-034-N.jpg","1","1","1","0","1","0","0.534562099957839","0.410800499957986","0.628764200024307","1","1","1","1","1","1","1","1","1"
"250033","img/neutralC/CFD-BF-044-034-N.jpg","img/neutralC/CFD-BF-247-179-N.jpg","img/neutralC/CFD-BF-236-177-N.jpg","1","1","1","0","0","0","0.628764200024307","0.534562099957839","1.00561290001497","1","1","1","1","1","1","1","1","1"
"250033","img/neutralC/CFD-BF-236-177-N.jpg","img/neutralC/CFD-BF-044-034-N.jpg","img/neutralC/CFD-BM-238-242-N.jpg","1","1","1","0","0","0","1.00561290001497","0.628764200024307","0.695508099975996","1","1","1","1","1","1","1","1","1"
"250033","img/neutralC/CFD-BM-238-242-N.jpg","img/neutralC/CFD-BF-236-177-N.jpg","img/neutralC/CFD-IF-677-452-1-N.jpg","1","1","1","0","0","1","0.695508099975996","1.00561290001497","0.468448699917644","1","1","1","1","1","1","1","1","1"
"250033","img/neutralC/CFD-IF-677-452-1-N.jpg","img/neutralC/CFD-BM-238-242-N.jpg","img/neutralC/CFD-BF-036-027-N.jpg","1","1","1","1","0","0","0.468448699917644","0.695508099975996","0.661680199904367","1","1","1","1","1","1","1","1","1"
"250033","img/neutralC/CFD-BF-036-027-N.jpg","img/neutralC/CFD-IF-677-452-1-N.jpg","img/neutralC/CFD-LF-204-133-N.jpg","1","1","1","0","1","1","0.661680199904367","0.468448699917644","0.51493369997479","1","1","1","1","1","1","1","1","1"
"250033","img/neutralC/CFD-LF-204-133-N.jpg","img/neutralC/CFD-BF-036-027-N.jpg","img/neutralC/CFD-WF-233-112-N.jpg","1","1","1","1","0","1","0.51493369997479","0.661680199904367","0.623800799949095","1","1","1","1","1","1","1","1","1"
"250033","img/neutralC/CFD-WF-233-112-N.jpg","img/neutralC/CFD-LF-204-133-N.jpg","img/neutralC/CFD-IM-696-001-N.jpg","1","1","1","1","1","0","0.623800799949095","0.51493369997479","0.607927100034431","1","1","1","1","1","1","1","1","1"
"250033","img/neutralC/CFD-IM-696-001-N.jpg","img/neutralC/CFD-WF-233-112-N.jpg","img/neutralC/CFD-BF-214-308-N.jpg","1","1","1","0","1","1","0.607927100034431","0.623800799949095","0.488975799991749","1","1","1","1","1","1","1","1","1"
"250033","img/neutralC/CFD-BF-214-308-N.jpg","img/neutralC/CFD-IM-696-001-N.jpg","img/neutralC/CFD-BM-036-003-N.jpg","1","1","1","1","0","1","0.488975799991749","0.607927100034431","0.617224500048906","1","1","1","1","1","1","1","1","1"
"250033","img/neutralC/CFD-BM-036-003-N.jpg","img/neutralC/CFD-BF-214-308-N.jpg","img/neutralC/CFD-MF-301-024-N.jpg","1","1","0","1","1","0","0.617224500048906","0.488975799991749","0.470302700065076","1","1","1","1","1","1","1","1","1"
"250033","img/neutralC/CFD-MF-301-024-N.jpg","img/neutralC/CFD-BM-036-003-N.jpg","img/neutralC/CFD-IF-729-393-N.jpg","0","1","1","0","1","0","0.470302700065076","0.617224500048906","0.73757180001121","1","1","1","1","1","1","1","1","1"
"250033","img/neutralC/CFD-IF-729-393-N.jpg","img/neutralC/CFD-MF-301-024-N.jpg","img/neutralC/CFD-WM-248-036-N.jpg","1","0","1","0","0","1","0.73757180001121","0.470302700065076","0.530140700051561","1","1","1","1","1","1","1","1","1"
"250033","img/neutralC/CFD-WM-248-036-N.jpg","img/neutralC/CFD-IF-729-393-N.jpg","img/neutralC/CFD-AM-230-150-N.jpg","1","1","1","1","0","0","0.530140700051561","0.73757180001121","0.383159100078046","1","1","1","1","1","1","1","1","1"
"250033","img/neutralC/CFD-AM-230-150-N.jpg","img/neutralC/CFD-WM-248-036-N.jpg","img/neutralC/CFD-BF-207-004-N.jpg","1","1","1","0","1","1","0.383159100078046","0.530140700051561","0.499006400001235","1","1","1","1","1","1","1","1","1"
"250033","img/neutralC/CFD-BF-207-004-N.jpg","img/neutralC/CFD-AM-230-150-N.jpg","img/neutralC/CFD-WF-234-086-N.jpg","1","1","1","1","0","1","0.499006400001235","0.383159100078046","0.467188699985854","1","1","1","1","1","1","1","1","1"
"250033","img/neutralC/CFD-WF-234-086-N.jpg","img/neutralC/CFD-BF-207-004-N.jpg","img/neutralC/CFD-WM-034-030-N.jpg","1","1","1","1","1","1","0.467188699985854","0.499006400001235","0.423914000042714","1","1","1","1","1","1","1","1","1"
"250033","img/neutralC/CFD-WM-034-030-N.jpg","img/neutralC/CFD-WF-234-086-N.jpg","img/neutralC/CFD-BF-006-017-N.jpg","1","1","1","1","1","0","0.423914000042714","0.467188699985854","0.596669199992903","1","1","1","1","1","1","1","1","1"
"250033","img/neutralC/CFD-BF-006-017-N.jpg","img/neutralC/CFD-WM-034-030-N.jpg","img/neutralC/CFD-IM-707-105-N.jpg","1","1","1","0","1","1","0.596669199992903","0.423914000042714","0.58214059995953","1","1","1","1","1","1","1","1","1"
"250033","img/neutralC/CFD-IM-707-105-N.jpg","img/neutralC/CFD-BF-006-017-N.jpg","img/neutralC/CFD-WF-208-068-N.jpg","1","1","1","1","0","1","0.58214059995953","0.596669199992903","0.392766999895684","1","1","1","1","1","1","1","1","1"
"250033","img/neutralC/CFD-WF-208-068-N.jpg","img/neutralC/CFD-IM-707-105-N.jpg","img/neutralC/CFD-BM-241-235-N.jpg","1","1","1","1","1","0","0.392766999895684","0.58214059995953","0.487184099969454","1","1","1","1","1","1","1","1","1"
"250033","img/neutralC/CFD-BM-241-235-N.jpg","img/neutralC/CFD-WF-208-068-N.jpg","img/neutralC/CFD-BM-207-024-N.jpg","1","1","1","0","1","1","0.487184099969454","0.392766999895684","0.370049999910407","1","1","1","1","1","1","1","1","1"
"250033","img/neutralC/CFD-BM-207-024-N.jpg","img/neutralC/CFD-BM-241-235-N.jpg","img/neutralC/CFD-IM-726-248-N.jpg","1","1","1","1","0","0","0.370049999910407","0.487184099969454","0.67063850001432","1","1","1","1","1","1","1","1","1"
"250033","img/neutralC/CFD-IM-726-248-N.jpg","img/neutralC/CFD-BM-207-024-N.jpg","img/neutralC/CFD-BF-002-001-N.jpg","1","1","1","0","1","0","0.67063850001432","0.370049999910407","0.827399899950251","1","1","1","1","1","1","1","1","1"
"250033","img/neutralC/CFD-BF-002-001-N.jpg","img/neutralC/CFD-IM-726-248-N.jpg","img/neutralC/CFD-WF-029-002-N.jpg","1","1","1","0","0","0","0.827399899950251","0.67063850001432","0.665983100072481","1","1","1","1","1","1","1","1","1"
"250033","img/neutralC/CFD-WF-029-002-N.jpg","img/neutralC/CFD-BF-002-001-N.jpg",NA,"1","1",NA,"0","0",NA,"0.665983100072481","0.827399899950251",NA,"1","1",NA,"1","1",NA,"1","1",NA
"250033","img/neutralC/CFD-WM-258-125-N.jpg",NA,"img/neutralC/CFD-WM-242-011-N.jpg","1",NA,"1","0",NA,"0","0.464550300035626",NA,"0.71254640002735","1",NA,"1","1",NA,"1","1",NA,"1"
"250033","img/neutralC/CFD-WM-242-011-N.jpg","img/neutralC/CFD-WM-258-125-N.jpg","img/neutralC/CFD-BF-238-190-N.jpg","1","1","1","0","0","1","0.71254640002735","0.464550300035626","0.369124399963766","1","1","1","1","1","1","1","1","1"
"250033","img/neutralC/CFD-BF-238-190-N.jpg","img/neutralC/CFD-WM-242-011-N.jpg","img/neutralC/CFD-BF-010-001-N.jpg","1","1","1","1","0","1","0.369124399963766","0.71254640002735","0.45708880003076","1","1","1","1","1","1","1","1","1"
"250033","img/neutralC/CFD-BF-010-001-N.jpg","img/neutralC/CFD-BF-238-190-N.jpg","img/neutralC/CFD-BM-212-117-N.jpg","1","1","1","1","1","0","0.45708880003076","0.369124399963766","0.392440899973735","1","1","1","1","1","1","1","1","1"
"250033","img/neutralC/CFD-BM-212-117-N.jpg","img/neutralC/CFD-BF-010-001-N.jpg","img/neutralC/CFD-BM-018-001-N.jpg","1","1","1","0","1","1","0.392440899973735","0.45708880003076","0.543408800032921","1","1","1","1","1","1","1","1","1"
"250033","img/neutralC/CFD-BM-018-001-N.jpg","img/neutralC/CFD-BM-212-117-N.jpg","img/neutralC/CFD-AF-206-079-N.jpg","1","1","1","1","0","1","0.543408800032921","0.392440899973735","0.528901999932714","1","1","1","1","1","1","1","1","1"
"250033","img/neutralC/CFD-AF-206-079-N.jpg","img/neutralC/CFD-BM-018-001-N.jpg","img/neutralC/CFD-BF-033-028-N.jpg","1","1","0","1","1","0","0.528901999932714","0.543408800032921","0.498306700028479","1","1","1","1","1","1","1","1","1"
"250033","img/neutralC/CFD-BF-033-028-N.jpg","img/neutralC/CFD-AF-206-079-N.jpg","img/neutralC/CFD-MF-313-002-N.jpg","0","1","1","0","1","0","0.498306700028479","0.528901999932714","0.504870399949141","1","1","1","1","1","1","1","1","1"
"250033","img/neutralC/CFD-MF-313-002-N.jpg","img/neutralC/CFD-BF-033-028-N.jpg","img/neutralC/CFD-IM-657-308-N.jpg","1","0","0","0","0","0","0.504870399949141","0.498306700028479","0.430494999978691","1","1","1","1","1","1","1","1","1"
"250033","img/neutralC/CFD-IM-657-308-N.jpg","img/neutralC/CFD-MF-313-002-N.jpg","img/neutralC/CFD-AF-202-122-N.jpg","0","1","1","0","0","1","0.430494999978691","0.504870399949141","0.482993399957195","1","1","1","1","1","1","1","1","1"
"250033","img/neutralC/CFD-AF-202-122-N.jpg","img/neutralC/CFD-IM-657-308-N.jpg","img/neutralC/CFD-IF-665-015-N.jpg","1","0","1","1","0","0","0.482993399957195","0.430494999978691","0.423775299917907","1","1","1","1","1","1","1","1","1"
"250033","img/neutralC/CFD-IF-665-015-N.jpg","img/neutralC/CFD-AF-202-122-N.jpg","img/neutralC/CFD-LM-233-171-N.jpg","1","1","1","0","1","0","0.423775299917907","0.482993399957195","0.71534039999824","1","1","1","1","1","1","1","1","1"
"250033","img/neutralC/CFD-LM-233-171-N.jpg","img/neutralC/CFD-IF-665-015-N.jpg","img/neutralC/CFD-IM-686-097-N.jpg","1","1","1","0","0","0","0.71534039999824","0.423775299917907","0.585851300042123","1","1","1","1","1","1","1","1","1"
"250033","img/neutralC/CFD-IM-686-097-N.jpg","img/neutralC/CFD-LM-233-171-N.jpg","img/neutralC/CFD-IM-727-195-N.jpg","1","1","1","0","0","1","0.585851300042123","0.71534039999824","0.489556899992749","1","1","1","1","1","1","1","1","1"
"250033","img/neutralC/CFD-IM-727-195-N.jpg","img/neutralC/CFD-IM-686-097-N.jpg","img/neutralC/CFD-BM-231-155-N.jpg","1","1","1","1","0","1","0.489556899992749","0.585851300042123","0.605741199920885","1","1","1","1","1","1","1","1","1"
"250033","img/neutralC/CFD-BM-231-155-N.jpg","img/neutralC/CFD-IM-727-195-N.jpg","img/neutralC/CFD-LM-226-175-N.jpg","1","1","1","1","1","0","0.605741199920885","0.489556899992749","0.463327499921434","1","1","1","1","1","1","1","1","1"
"250033","img/neutralC/CFD-LM-226-175-N.jpg","img/neutralC/CFD-BM-231-155-N.jpg","img/neutralC/CFD-WF-209-052-N.jpg","1","1","1","0","1","1","0.463327499921434","0.605741199920885","0.537970499950461","1","1","1","1","1","1","1","1","1"
"250033","img/neutralC/CFD-WF-209-052-N.jpg","img/neutralC/CFD-LM-226-175-N.jpg","img/neutralC/CFD-IM-638-250-1-N.jpg","1","1","1","1","0","1","0.537970499950461","0.463327499921434","0.48399600002449","1","1","1","1","1","1","1","1","1"
"250033","img/neutralC/CFD-IM-638-250-1-N.jpg","img/neutralC/CFD-WF-209-052-N.jpg","img/neutralC/CFD-LF-242-121-N.jpg","1","1","0","1","1","0","0.48399600002449","0.537970499950461","0.592950399965048","1","1","1","1","1","1","1","1","1"
"250033","img/neutralC/CFD-LF-242-121-N.jpg","img/neutralC/CFD-IM-638-250-1-N.jpg","img/neutralC/CFD-LF-250-169-N.jpg","0","1","1","0","1","1","0.592950399965048","0.48399600002449","0.529066499904729","1","1","1","1","1","1","1","1","1"
"250033","img/neutralC/CFD-LF-250-169-N.jpg","img/neutralC/CFD-LF-242-121-N.jpg","img/neutralC/CFD-IM-653-008-N.jpg","1","0","1","1","0","0","0.529066499904729","0.592950399965048","0.436922400025651","1","1","1","1","1","1","1","1","1"
"250033","img/neutralC/CFD-IM-653-008-N.jpg","img/neutralC/CFD-LF-250-169-N.jpg","img/neutralC/CFD-WM-017-002-N.jpg","1","1","1","0","1","0","0.436922400025651","0.529066499904729","0.53172640001867","1","1","1","1","1","1","1","1","1"
"250033","img/neutralC/CFD-WM-017-002-N.jpg","img/neutralC/CFD-IM-653-008-N.jpg","img/neutralC/CFD-LF-247-051-N.jpg","1","1","1","0","0","1","0.53172640001867","0.436922400025651","0.542300400091335","1","1","1","1","1","1","1","1","1"
"250033","img/neutralC/CFD-LF-247-051-N.jpg","img/neutralC/CFD-WM-017-002-N.jpg","img/neutralC/CFD-IF-620-218-N.jpg","1","1","1","1","0","0","0.542300400091335","0.53172640001867","0.833792399964295","1","1","1","1","1","1","1","1","1"
"250033","img/neutralC/CFD-IF-620-218-N.jpg","img/neutralC/CFD-LF-247-051-N.jpg","img/neutralC/CFD-WM-227-099-N.jpg","1","1","1","0","1","1","0.833792399964295","0.542300400091335","0.490620599943213","1","1","1","1","1","1","1","1","1"
"250033","img/neutralC/CFD-WM-227-099-N.jpg","img/neutralC/CFD-IF-620-218-N.jpg","img/neutralC/CFD-IM-617-174-N.jpg","1","1","1","1","0","0","0.490620599943213","0.833792399964295","0.555654200026765","1","1","1","1","1","1","1","1","1"
"250033","img/neutralC/CFD-IM-617-174-N.jpg","img/neutralC/CFD-WM-227-099-N.jpg","img/neutralC/CFD-LF-245-166-N.jpg","1","1","1","0","1","1","0.555654200026765","0.490620599943213","0.562641400028951","1","1","1","1","1","1","1","1","1"
"250033","img/neutralC/CFD-LF-245-166-N.jpg","img/neutralC/CFD-IM-617-174-N.jpg","img/neutralC/CFD-AF-241-141-N.jpg","1","1","1","1","0","1","0.562641400028951","0.555654200026765","0.429525500047021","1","1","1","1","1","1","1","1","1"
"250033","img/neutralC/CFD-AF-241-141-N.jpg","img/neutralC/CFD-LF-245-166-N.jpg","img/neutralC/CFD-LM-219-295-N.jpg","1","1","1","1","1","1","0.429525500047021","0.562641400028951","0.338852199958637","1","1","1","1","1","1","1","1","1"
"250033","img/neutralC/CFD-LM-219-295-N.jpg","img/neutralC/CFD-AF-241-141-N.jpg","img/neutralC/CFD-BM-026-002-N.jpg","1","1","1","1","1","0","0.338852199958637","0.429525500047021","0.618306100019254","1","1","1","1","1","1","1","1","1"
"250033","img/neutralC/CFD-BM-026-002-N.jpg","img/neutralC/CFD-LM-219-295-N.jpg","img/neutralC/CFD-BM-005-003-N.jpg","1","1","1","0","1","1","0.618306100019254","0.338852199958637","0.465500299935229","1","1","1","1","1","1","1","1","1"
"250033","img/neutralC/CFD-BM-005-003-N.jpg","img/neutralC/CFD-BM-026-002-N.jpg",NA,"1","1",NA,"1","0",NA,"0.465500299935229","0.618306100019254",NA,"1","1",NA,"1","1",NA,"1","1",NA
"250033","img/neutralC/CFD-BM-041-035-N.jpg",NA,"img/neutralC/CFD-BF-205-141-N.jpg","1",NA,"1","0",NA,"0","0.766658299951814",NA,"0.439180999994278","1",NA,"1","1",NA,"1","1",NA,"1"
"250033","img/neutralC/CFD-BF-205-141-N.jpg","img/neutralC/CFD-BM-041-035-N.jpg","img/neutralC/CFD-AM-201-076-N.jpg","1","1","1","0","0","1","0.439180999994278","0.766658299951814","0.553726100013591","1","1","1","1","1","1","1","1","1"
"250033","img/neutralC/CFD-AM-201-076-N.jpg","img/neutralC/CFD-BF-205-141-N.jpg","img/neutralC/CFD-IM-684-008-N.jpg","1","1","1","1","0","1","0.553726100013591","0.439180999994278","0.357716199941933","1","1","1","1","1","1","1","1","1"
"250033","img/neutralC/CFD-IM-684-008-N.jpg","img/neutralC/CFD-AM-201-076-N.jpg","img/neutralC/CFD-WF-250-167-N.jpg","1","1","1","1","1","1","0.357716199941933","0.553726100013591","0.392867099959403","1","1","1","1","1","1","1","1","1"
"250033","img/neutralC/CFD-WF-250-167-N.jpg","img/neutralC/CFD-IM-684-008-N.jpg","img/neutralC/CFD-BM-033-003-N.jpg","1","1","1","1","1","0","0.392867099959403","0.357716199941933","0.664816499920562","1","1","1","1","1","1","1","1","1"
"250033","img/neutralC/CFD-BM-033-003-N.jpg","img/neutralC/CFD-WF-250-167-N.jpg","img/neutralC/CFD-IF-693-172-N.jpg","1","1","1","0","1","0","0.664816499920562","0.392867099959403","0.581082100048661","1","1","1","1","1","1","1","1","1"
"250033","img/neutralC/CFD-IF-693-172-N.jpg","img/neutralC/CFD-BM-033-003-N.jpg","img/neutralC/CFD-BM-239-136-N.jpg","1","1","1","0","0","1","0.581082100048661","0.664816499920562","0.369007000001147","1","1","1","1","1","1","1","1","1"
"250033","img/neutralC/CFD-BM-239-136-N.jpg","img/neutralC/CFD-IF-693-172-N.jpg","img/neutralC/CFD-IF-634-382-N.jpg","1","1","1","1","0","1","0.369007000001147","0.581082100048661","0.571635100059211","1","1","1","1","1","1","1","1","1"
"250033","img/neutralC/CFD-IF-634-382-N.jpg","img/neutralC/CFD-BM-239-136-N.jpg","img/neutralC/CFD-WM-011-002-N.jpg","1","1","1","1","1","0","0.571635100059211","0.369007000001147","1.09807079995517","1","1","1","1","1","1","1","1","1"
"250033","img/neutralC/CFD-WM-011-002-N.jpg","img/neutralC/CFD-IF-634-382-N.jpg","img/neutralC/CFD-IF-710-016-N.jpg","1","1","1","0","1","0","1.09807079995517","0.571635100059211","0.623510600067675","1","1","1","1","1","1","1","1","1"
"250033","img/neutralC/CFD-IF-710-016-N.jpg","img/neutralC/CFD-WM-011-002-N.jpg","img/neutralC/CFD-MM-316-156-N.jpg","1","1","1","0","0","1","0.623510600067675","1.09807079995517","0.910187699948438","1","1","1","1","1","1","1","1","1"
"250033","img/neutralC/CFD-MM-316-156-N.jpg","img/neutralC/CFD-IF-710-016-N.jpg","img/neutralC/CFD-LF-205-100-N.jpg","1","1","1","1","0","1","0.910187699948438","0.623510600067675","0.637381699983962","1","1","1","1","1","1","1","1","1"
"250033","img/neutralC/CFD-LF-205-100-N.jpg","img/neutralC/CFD-MM-316-156-N.jpg","img/neutralC/CFD-WM-021-001-N.jpg","1","1","1","1","1","1","0.637381699983962","0.910187699948438","0.507750499993563","1","1","1","1","1","1","1","1","1"
"250033","img/neutralC/CFD-WM-021-001-N.jpg","img/neutralC/CFD-LF-205-100-N.jpg","img/neutralC/CFD-WF-213-031-N.jpg","1","1","1","1","1","1","0.507750499993563","0.637381699983962","0.519307400099933","1","1","1","1","1","1","1","1","1"
"250033","img/neutralC/CFD-WF-213-031-N.jpg","img/neutralC/CFD-WM-021-001-N.jpg","img/neutralC/CFD-LF-203-066-N.jpg","1","1","1","1","1","0","0.519307400099933","0.507750499993563","0.575906600104645","1","1","1","1","1","1","1","1","1"
"250033","img/neutralC/CFD-LF-203-066-N.jpg","img/neutralC/CFD-WF-213-031-N.jpg","img/neutralC/CFD-BF-039-031-N.jpg","1","1","1","0","1","1","0.575906600104645","0.519307400099933","0.525990699999966","1","1","1","1","1","1","1","1","1"
"250033","img/neutralC/CFD-BF-039-031-N.jpg","img/neutralC/CFD-LF-203-066-N.jpg","img/neutralC/CFD-BF-213-188-N.jpg","1","1","1","1","0","1","0.525990699999966","0.575906600104645","0.57941090001259","1","1","1","1","1","1","1","1","1"
"250033","img/neutralC/CFD-BF-213-188-N.jpg","img/neutralC/CFD-BF-039-031-N.jpg","img/neutralC/CFD-BM-019-002-N.jpg","1","1","1","1","1","0","0.57941090001259","0.525990699999966","0.997297000023536","1","1","1","1","1","1","1","1","1"
"250033","img/neutralC/CFD-BM-019-002-N.jpg","img/neutralC/CFD-BF-213-188-N.jpg","img/neutralC/CFD-AF-231-357-N.jpg","1","1","1","0","1","1","0.997297000023536","0.57941090001259","0.491090600029565","1","1","1","1","1","1","1","1","1"
"250033","img/neutralC/CFD-AF-231-357-N.jpg","img/neutralC/CFD-BM-019-002-N.jpg","img/neutralC/CFD-BF-253-202-N.jpg","1","1","0","1","0","0","0.491090600029565","0.997297000023536","0.52263459993992","1","1","1","1","1","1","1","1","1"
"250033","img/neutralC/CFD-BF-253-202-N.jpg","img/neutralC/CFD-AF-231-357-N.jpg","img/neutralC/CFD-LF-224-176-N.jpg","0","1","1","0","1","0","0.52263459993992","0.491090600029565","0.682876099948771","1","1","1","1","1","1","1","1","1"
"250033","img/neutralC/CFD-LF-224-176-N.jpg","img/neutralC/CFD-BF-253-202-N.jpg","img/neutralC/CFD-MF-337-026-N.jpg","1","0","1","0","0","1","0.682876099948771","0.52263459993992","0.425113399978727","1","1","1","1","1","1","1","1","1"
"250033","img/neutralC/CFD-MF-337-026-N.jpg","img/neutralC/CFD-LF-224-176-N.jpg","img/neutralC/CFD-LF-214-090-N.jpg","1","1","1","1","0","0","0.425113399978727","0.682876099948771","0.618623499991372","1","1","1","1","1","1","1","1","1"
"250033","img/neutralC/CFD-LF-214-090-N.jpg","img/neutralC/CFD-MF-337-026-N.jpg","img/neutralC/CFD-LM-215-247-N.jpg","1","1","1","0","1","0","0.618623499991372","0.425113399978727","0.608398600015789","1","1","1","1","1","1","1","1","1"
"250033","img/neutralC/CFD-LM-215-247-N.jpg","img/neutralC/CFD-LF-214-090-N.jpg","img/neutralC/CFD-LF-230-203-N.jpg","1","1","1","0","0","0","0.608398600015789","0.618623499991372","0.579516500001773","1","1","1","1","1","1","1","1","1"
"250033","img/neutralC/CFD-LF-230-203-N.jpg","img/neutralC/CFD-LM-215-247-N.jpg","img/neutralC/CFD-LM-218-183-N.jpg","1","1","1","0","0","1","0.579516500001773","0.608398600015789","0.641272600041702","1","1","1","1","1","1","1","1","1"
"250033","img/neutralC/CFD-LM-218-183-N.jpg","img/neutralC/CFD-LF-230-203-N.jpg","img/neutralC/CFD-WM-041-021-N.jpg","1","1","0","1","0","0","0.641272600041702","0.579516500001773","0.442931900033727","1","1","1","1","1","1","1","1","1"
"250033","img/neutralC/CFD-WM-041-021-N.jpg","img/neutralC/CFD-LM-218-183-N.jpg","img/neutralC/CFD-IM-651-308-N.jpg","0","1","1","0","1","0","0.442931900033727","0.641272600041702","0.587004699977115","1","1","1","1","1","1","1","1","1"
"250033","img/neutralC/CFD-IM-651-308-N.jpg","img/neutralC/CFD-WM-041-021-N.jpg","img/neutralC/CFD-WF-224-099-N.jpg","1","0","1","0","0","0","0.587004699977115","0.442931900033727","0.514673999976367","1","1","1","1","1","1","1","1","1"
"250033","img/neutralC/CFD-WF-224-099-N.jpg","img/neutralC/CFD-IM-651-308-N.jpg","img/neutralC/CFD-AM-212-050-N.jpg","1","1","1","0","0","1","0.514673999976367","0.587004699977115","0.546641900087707","1","1","1","1","1","1","1","1","1"
"250033","img/neutralC/CFD-AM-212-050-N.jpg","img/neutralC/CFD-WF-224-099-N.jpg","img/neutralC/CFD-BF-029-031-N.jpg","1","1","1","1","0","1","0.546641900087707","0.514673999976367","0.475077599985525","1","1","1","1","1","1","1","1","1"
"250033","img/neutralC/CFD-BF-029-031-N.jpg","img/neutralC/CFD-AM-212-050-N.jpg",NA,"1","1",NA,"1","1",NA,"0.475077599985525","0.546641900087707",NA,"1","1",NA,"1","1",NA,"1","1",NA
"250033","img/neutralC/CFD-MM-304-002-N.jpg",NA,"img/neutralC/CFD-MF-327-002-N.jpg","1",NA,"0","1",NA,"0","2.40482459997293",NA,"0.512202900019474","1",NA,"1","1",NA,"1","1",NA,"1"
"250033","img/neutralC/CFD-MF-327-002-N.jpg","img/neutralC/CFD-MM-304-002-N.jpg","img/neutralC/CFD-WF-212-050-N.jpg","0","1","1","0","1","0","0.512202900019474","2.40482459997293","0.686494699912146","1","1","1","1","1","1","1","1","1"
"250033","img/neutralC/CFD-WF-212-050-N.jpg","img/neutralC/CFD-MF-327-002-N.jpg","img/neutralC/CFD-IM-709-103-N.jpg","1","0","1","0","0","0","0.686494699912146","0.512202900019474","0.669462700025178","1","1","1","1","1","1","1","1","1"
"250033","img/neutralC/CFD-IM-709-103-N.jpg","img/neutralC/CFD-WF-212-050-N.jpg","img/neutralC/CFD-WM-213-076-N.jpg","1","1","1","0","0","1","0.669462700025178","0.686494699912146","0.49271060002502","1","1","1","1","1","1","1","1","1"
"250033","img/neutralC/CFD-WM-213-076-N.jpg","img/neutralC/CFD-IM-709-103-N.jpg","img/neutralC/CFD-LF-226-174-N.jpg","1","1","1","1","0","0","0.49271060002502","0.669462700025178","0.682102399994619","1","1","1","1","1","1","1","1","1"
"250033","img/neutralC/CFD-LF-226-174-N.jpg","img/neutralC/CFD-WM-213-076-N.jpg","img/neutralC/CFD-IM-637-007-N.jpg","1","1","1","0","1","0","0.682102399994619","0.49271060002502","0.765221199952066","1","1","1","1","1","1","1","1","1"
"250033","img/neutralC/CFD-IM-637-007-N.jpg","img/neutralC/CFD-LF-226-174-N.jpg","img/neutralC/CFD-IM-685-004-N.jpg","1","1","1","0","0","1","0.765221199952066","0.682102399994619","0.592582699959166","1","1","1","1","1","1","1","1","1"
"250033","img/neutralC/CFD-IM-685-004-N.jpg","img/neutralC/CFD-IM-637-007-N.jpg","img/neutralC/CFD-WF-008-002-N.jpg","1","1","1","1","0","1","0.592582699959166","0.765221199952066","0.948307799990289","1","1","1","1","1","1","1","1","1"
"250033","img/neutralC/CFD-WF-008-002-N.jpg","img/neutralC/CFD-IM-685-004-N.jpg","img/neutralC/CFD-IF-608-390-N.jpg","1","1","1","1","1","1","0.948307799990289","0.592582699959166","0.483702099998482","1","1","1","1","1","1","1","1","1"
"250033","img/neutralC/CFD-IF-608-390-N.jpg","img/neutralC/CFD-WF-008-002-N.jpg","img/neutralC/CFD-AF-254-167-N.jpg","1","1","1","1","1","1","0.483702099998482","0.948307799990289","0.515264199930243","1","1","1","1","1","1","1","1","1"
"250033","img/neutralC/CFD-AF-254-167-N.jpg","img/neutralC/CFD-IF-608-390-N.jpg","img/neutralC/CFD-MF-340-026-N.jpg","1","1","1","1","1","1","0.515264199930243","0.483702099998482","0.410277899936773","1","1","1","1","1","1","1","1","1"
"250033","img/neutralC/CFD-MF-340-026-N.jpg","img/neutralC/CFD-AF-254-167-N.jpg","img/neutralC/CFD-BM-243-218-N.jpg","1","1","1","1","1","1","0.410277899936773","0.515264199930243","0.493826899910346","1","1","1","1","1","1","1","1","1"
"250033","img/neutralC/CFD-BM-243-218-N.jpg","img/neutralC/CFD-MF-340-026-N.jpg","img/neutralC/CFD-BF-224-002-N.jpg","1","1","1","1","1","1","0.493826899910346","0.410277899936773","0.66772399994079","1","1","1","1","1","1","1","1","1"
"250033","img/neutralC/CFD-BF-224-002-N.jpg","img/neutralC/CFD-BM-243-218-N.jpg","img/neutralC/CFD-BF-051-035-N.jpg","1","1","1","1","1","0","0.66772399994079","0.493826899910346","0.871790300006978","1","1","1","1","1","1","1","1","1"
"250033","img/neutralC/CFD-BF-051-035-N.jpg","img/neutralC/CFD-BF-224-002-N.jpg","img/neutralC/CFD-LF-201-035-N.jpg","1","1","1","0","1","1","0.871790300006978","0.66772399994079","0.619544600020163","1","1","1","1","1","1","1","1","1"
"250033","img/neutralC/CFD-LF-201-035-N.jpg","img/neutralC/CFD-BF-051-035-N.jpg","img/neutralC/CFD-BM-039-029-N.jpg","1","1","1","1","0","1","0.619544600020163","0.871790300006978","0.503439799998887","1","1","1","1","1","1","1","1","1"
"250033","img/neutralC/CFD-BM-039-029-N.jpg","img/neutralC/CFD-LF-201-035-N.jpg","img/neutralC/CFD-WF-217-085-N.jpg","1","1","1","1","1","1","0.503439799998887","0.619544600020163","0.858564599999227","1","1","1","1","1","1","1","1","1"
"250033","img/neutralC/CFD-WF-217-085-N.jpg","img/neutralC/CFD-BM-039-029-N.jpg","img/neutralC/CFD-BF-043-003-N.jpg","1","1","1","1","1","0","0.858564599999227","0.503439799998887","1.14525190007407","1","1","1","1","1","1","1","1","1"
"250033","img/neutralC/CFD-BF-043-003-N.jpg","img/neutralC/CFD-WF-217-085-N.jpg","img/neutralC/CFD-MF-329-001-N.jpg","1","1","1","0","1","0","1.14525190007407","0.858564599999227","0.624198299949057","1","1","1","1","1","1","1","1","1"
"250033","img/neutralC/CFD-MF-329-001-N.jpg","img/neutralC/CFD-BF-043-003-N.jpg","img/neutralC/CFD-WM-024-015-N.jpg","1","1","1","0","0","1","0.624198299949057","1.14525190007407","0.45634220005013","1","1","1","1","1","1","1","1","1"
"250033","img/neutralC/CFD-WM-024-015-N.jpg","img/neutralC/CFD-MF-329-001-N.jpg","img/neutralC/CFD-WF-012-002-N.jpg","1","1","1","1","0","1","0.45634220005013","0.624198299949057","0.711549100000411","1","1","1","1","1","1","1","1","1"
"250033","img/neutralC/CFD-WF-012-002-N.jpg","img/neutralC/CFD-WM-024-015-N.jpg","img/neutralC/CFD-WF-248-129-N.jpg","1","1","1","1","1","0","0.711549100000411","0.45634220005013","1.07658359990455","1","1","1","1","1","1","1","1","1"
"250033","img/neutralC/CFD-WF-248-129-N.jpg","img/neutralC/CFD-WF-012-002-N.jpg","img/neutralC/CFD-LM-217-162-N.jpg","1","1","0","0","1","0","1.07658359990455","0.711549100000411","0.456085999961942","1","1","1","1","1","1","1","1","1"
"250033","img/neutralC/CFD-LM-217-162-N.jpg","img/neutralC/CFD-WF-248-129-N.jpg","img/neutralC/CFD-AF-215-70-N.jpg","0","1","1","0","0","0","0.456085999961942","1.07658359990455","0.668986700009555","1","1","1","1","1","1","1","1","1"
"250033","img/neutralC/CFD-AF-215-70-N.jpg","img/neutralC/CFD-LM-217-162-N.jpg","img/neutralC/CFD-IM-604-014-N.jpg","1","0","1","0","0","0","0.668986700009555","0.456085999961942","0.94351250003092","1","1","1","1","1","1","1","1","1"
"250033","img/neutralC/CFD-IM-604-014-N.jpg","img/neutralC/CFD-AF-215-70-N.jpg","img/neutralC/CFD-IM-675-015-N.jpg","1","1","1","0","0","1","0.94351250003092","0.668986700009555","0.526214699959382","1","1","1","1","1","1","1","1","1"
"250033","img/neutralC/CFD-IM-675-015-N.jpg","img/neutralC/CFD-IM-604-014-N.jpg","img/neutralC/CFD-WM-232-070-N.jpg","1","1","1","1","0","0","0.526214699959382","0.94351250003092","0.673731400049292","1","1","1","1","1","1","1","1","1"
"250033","img/neutralC/CFD-WM-232-070-N.jpg","img/neutralC/CFD-IM-675-015-N.jpg","img/neutralC/CFD-AM-236-090-N.jpg","1","1","1","0","1","1","0.673731400049292","0.526214699959382","0.701984300045297","1","1","1","1","1","1","1","1","1"
"250033","img/neutralC/CFD-AM-236-090-N.jpg","img/neutralC/CFD-WM-232-070-N.jpg","img/neutralC/CFD-MF-300-002-N.jpg","1","1","0","1","0","0","0.701984300045297","0.673731400049292","1.15552030003164","1","1","1","1","1","1","1","1","1"
"250033","img/neutralC/CFD-MF-300-002-N.jpg","img/neutralC/CFD-AM-236-090-N.jpg","img/neutralC/CFD-IF-619-197-N.jpg","0","1","1","0","1","0","1.15552030003164","0.701984300045297","0.629415599978529","1","1","1","1","1","1","1","1","1"
"250033","img/neutralC/CFD-IF-619-197-N.jpg","img/neutralC/CFD-MF-300-002-N.jpg","img/neutralC/CFD-AF-229-160-N.jpg","1","0","1","0","0","0","0.629415599978529","1.15552030003164","0.709266999969259","1","1","1","1","1","1","1","1","1"
"250033","img/neutralC/CFD-AF-229-160-N.jpg","img/neutralC/CFD-IF-619-197-N.jpg",NA,"1","1",NA,"0","0",NA,"0.709266999969259","0.629415599978529",NA,"1","1",NA,"1","1",NA,"1","1",NA
"250033","img/neutralC/CFD-LF-241-188-N.jpg",NA,"img/neutralC/CFD-BM-013-002-N.jpg","1",NA,"1","0",NA,"1","0.668480599997565",NA,"0.495706799905747","1",NA,"1","1",NA,"1","1",NA,"1"
"250033","img/neutralC/CFD-BM-013-002-N.jpg","img/neutralC/CFD-LF-241-188-N.jpg","img/neutralC/CFD-IF-673-389-N.jpg","1","1","1","1","0","0","0.495706799905747","0.668480599997565","0.538482400006615","1","1","1","1","1","1","1","1","1"
"250033","img/neutralC/CFD-IF-673-389-N.jpg","img/neutralC/CFD-BM-013-002-N.jpg","img/neutralC/CFD-AM-221-184-N.jpg","1","1","1","0","1","1","0.538482400006615","0.495706799905747","0.71267049992457","1","1","1","1","1","1","1","1","1"
"250033","img/neutralC/CFD-AM-221-184-N.jpg","img/neutralC/CFD-IF-673-389-N.jpg","img/neutralC/CFD-WF-033-002-N.jpg","1","1","1","1","0","1","0.71267049992457","0.538482400006615","0.511553300078958","1","1","1","1","1","1","1","1","1"
"250033","img/neutralC/CFD-WF-033-002-N.jpg","img/neutralC/CFD-AM-221-184-N.jpg","img/neutralC/CFD-BM-003-003-N.jpg","1","1","1","1","1","0","0.511553300078958","0.71267049992457","0.541114499908872","1","1","1","1","1","1","1","1","1"
"250033","img/neutralC/CFD-BM-003-003-N.jpg","img/neutralC/CFD-WF-033-002-N.jpg","img/neutralC/CFD-WF-223-133-N.jpg","1","1","1","0","1","0","0.541114499908872","0.511553300078958","0.427127000060864","1","1","1","1","1","1","1","1","1"
"250033","img/neutralC/CFD-WF-223-133-N.jpg","img/neutralC/CFD-BM-003-003-N.jpg","img/neutralC/CFD-IF-625-225-N.jpg","1","1","1","0","0","0","0.427127000060864","0.541114499908872","0.558074599946849","1","1","1","1","1","1","1","1","1"
"250033","img/neutralC/CFD-IF-625-225-N.jpg","img/neutralC/CFD-WF-223-133-N.jpg","img/neutralC/CFD-WM-228-065-N.jpg","1","1","1","0","0","0","0.558074599946849","0.427127000060864","0.552406699978746","1","1","1","1","1","1","1","1","1"
"250033","img/neutralC/CFD-WM-228-065-N.jpg","img/neutralC/CFD-IF-625-225-N.jpg","img/neutralC/CFD-AF-239-171-N.jpg","1","1","1","0","0","1","0.552406699978746","0.558074599946849","0.667372399941087","1","1","1","1","1","1","1","1","1"
"250033","img/neutralC/CFD-AF-239-171-N.jpg","img/neutralC/CFD-WM-228-065-N.jpg","img/neutralC/CFD-IM-738-191-N.jpg","1","1","1","1","0","0","0.667372399941087","0.552406699978746","0.617506499984302","1","1","1","1","1","1","1","1","1"
"250033","img/neutralC/CFD-IM-738-191-N.jpg","img/neutralC/CFD-AF-239-171-N.jpg","img/neutralC/CFD-MF-336-016-N.jpg","1","1","1","0","1","1","0.617506499984302","0.667372399941087","0.695143499993719","1","1","1","1","1","1","1","1","1"
"250033","img/neutralC/CFD-MF-336-016-N.jpg","img/neutralC/CFD-IM-738-191-N.jpg","img/neutralC/CFD-LF-210-220-N.jpg","1","1","1","1","0","1","0.695143499993719","0.617506499984302","0.599265299970284","1","1","1","1","1","1","1","1","1"
"250033","img/neutralC/CFD-LF-210-220-N.jpg","img/neutralC/CFD-MF-336-016-N.jpg","img/neutralC/CFD-MF-312-002-N.jpg","1","1","1","1","1","1","0.599265299970284","0.695143499993719","0.692260700045153","1","1","1","1","1","1","1","1","1"
"250033","img/neutralC/CFD-MF-312-002-N.jpg","img/neutralC/CFD-LF-210-220-N.jpg","img/neutralC/CFD-BM-010-003-N.jpg","1","1","1","1","1","0","0.692260700045153","0.599265299970284","0.865670599974692","1","1","1","1","1","1","1","1","1"
"250033","img/neutralC/CFD-BM-010-003-N.jpg","img/neutralC/CFD-MF-312-002-N.jpg","img/neutralC/CFD-LF-225-164-N.jpg","1","1","1","0","1","1","0.865670599974692","0.692260700045153","0.565246199956164","1","1","1","1","1","1","1","1","1"
"250033","img/neutralC/CFD-LF-225-164-N.jpg","img/neutralC/CFD-BM-010-003-N.jpg","img/neutralC/CFD-LM-247-095-N.jpg","1","1","1","1","0","0","0.565246199956164","0.865670599974692","0.920179900014773","1","1","1","1","1","1","1","1","1"
"250033","img/neutralC/CFD-LM-247-095-N.jpg","img/neutralC/CFD-LF-225-164-N.jpg","img/neutralC/CFD-BF-004-014-N.jpg","1","1","1","0","1","1","0.920179900014773","0.565246199956164","0.44414370006416","1","1","1","1","1","1","1","1","1"
"250033","img/neutralC/CFD-BF-004-014-N.jpg","img/neutralC/CFD-LM-247-095-N.jpg","img/neutralC/CFD-WM-202-107-N.jpg","1","1","1","1","0","1","0.44414370006416","0.920179900014773","0.488045200007036","1","1","1","1","1","1","1","1","1"
"250033","img/neutralC/CFD-WM-202-107-N.jpg","img/neutralC/CFD-BF-004-014-N.jpg","img/neutralC/CFD-BF-222-240-N.jpg","1","1","1","1","1","0","0.488045200007036","0.44414370006416","0.579324300051667","1","1","1","1","1","1","1","1","1"
"250033","img/neutralC/CFD-BF-222-240-N.jpg","img/neutralC/CFD-WM-202-107-N.jpg","img/neutralC/CFD-BM-213-134-N.jpg","1","1","1","0","1","1","0.579324300051667","0.488045200007036","0.824235699954443","1","1","1","1","1","1","1","1","1"
"250033","img/neutralC/CFD-BM-213-134-N.jpg","img/neutralC/CFD-BF-222-240-N.jpg","img/neutralC/CFD-WF-006-002-N.jpg","1","1","1","1","0","0","0.824235699954443","0.579324300051667","0.511982399970293","1","1","1","1","1","1","1","1","1"
"250033","img/neutralC/CFD-WF-006-002-N.jpg","img/neutralC/CFD-BM-213-134-N.jpg","img/neutralC/CFD-AF-227-207-N.jpg","1","1","1","0","1","1","0.511982399970293","0.824235699954443","0.728117700084113","1","1","1","1","1","1","1","1","1"
"250033","img/neutralC/CFD-AF-227-207-N.jpg","img/neutralC/CFD-WF-006-002-N.jpg","img/neutralC/CFD-WM-254-152-N.jpg","1","1","1","1","0","1","0.728117700084113","0.511982399970293","0.57658100000117","1","1","1","1","1","1","1","1","1"
"250033","img/neutralC/CFD-WM-254-152-N.jpg","img/neutralC/CFD-AF-227-207-N.jpg","img/neutralC/CFD-BF-045-003-N.jpg","1","1","1","1","1","0","0.57658100000117","0.728117700084113","0.572884100023657","1","1","1","1","1","1","1","1","1"
"250033","img/neutralC/CFD-BF-045-003-N.jpg","img/neutralC/CFD-WM-254-152-N.jpg","img/neutralC/CFD-BM-028-002-N.jpg","1","1","1","0","1","1","0.572884100023657","0.57658100000117","0.501624100026675","1","1","1","1","1","1","1","1","1"
"250033","img/neutralC/CFD-BM-028-002-N.jpg","img/neutralC/CFD-BF-045-003-N.jpg","img/neutralC/CFD-IM-659-359-N.jpg","1","1","1","1","0","0","0.501624100026675","0.572884100023657","0.727667300030589","1","1","1","1","1","1","1","1","1"
"250033","img/neutralC/CFD-IM-659-359-N.jpg","img/neutralC/CFD-BM-028-002-N.jpg","img/neutralC/CFD-IM-701-312-N.jpg","1","1","0","0","1","0","0.727667300030589","0.501624100026675","0.497139499988407","1","1","1","1","1","1","1","1","1"
"250033","img/neutralC/CFD-IM-701-312-N.jpg","img/neutralC/CFD-IM-659-359-N.jpg","img/neutralC/CFD-IF-744-114-N.jpg","0","1","1","0","0","0","0.497139499988407","0.727667300030589","0.570697599905543","1","1","1","1","1","1","1","1","1"
"250033","img/neutralC/CFD-IF-744-114-N.jpg","img/neutralC/CFD-IM-701-312-N.jpg","img/neutralC/CFD-LM-238-129-N.jpg","1","0","1","0","0","1","0.570697599905543","0.497139499988407","0.457299800007604","1","1","1","1","1","1","1","1","1"
"250033","img/neutralC/CFD-LM-238-129-N.jpg","img/neutralC/CFD-IF-744-114-N.jpg","img/neutralC/CFD-LF-208-127-N.jpg","1","1","1","1","0","0","0.457299800007604","0.570697599905543","0.285390999983065","1","1","1","1","1","1","1","1","1"
"250033","img/neutralC/CFD-LF-208-127-N.jpg","img/neutralC/CFD-LM-238-129-N.jpg","img/neutralC/CFD-AF-210-050-N.jpg","1","1","1","0","1","1","0.285390999983065","0.457299800007604","0.491602199967019","1","1","1","1","1","1","1","1","1"
"250033","img/neutralC/CFD-AF-210-050-N.jpg","img/neutralC/CFD-LF-208-127-N.jpg",NA,"1","1",NA,"1","0",NA,"0.491602199967019","0.285390999983065",NA,"1","1",NA,"1","1",NA,"1","1",NA
"250033","img/neutralC/CFD-MF-352-054-N.jpg",NA,"img/neutralC/CFD-BM-253-004-N.jpg","0",NA,"1","0",NA,"1","0.409260299988091",NA,"0.663860999979079","1",NA,"1","1",NA,"1","1",NA,"1"
"250033","img/neutralC/CFD-BM-253-004-N.jpg","img/neutralC/CFD-MF-352-054-N.jpg","img/neutralC/CFD-IM-743-006-N.jpg","1","0","1","1","0","1","0.663860999979079","0.409260299988091","0.511351100052707","1","1","1","1","1","1","1","1","1"
"250033","img/neutralC/CFD-IM-743-006-N.jpg","img/neutralC/CFD-BM-253-004-N.jpg","img/neutralC/CFD-WM-004-010-N.jpg","1","1","0","1","1","0","0.511351100052707","0.663860999979079","0.471437499974854","1","1","1","1","1","1","1","1","1"
"250033","img/neutralC/CFD-WM-004-010-N.jpg","img/neutralC/CFD-IM-743-006-N.jpg","img/neutralC/CFD-BF-038-037-N.jpg","0","1","1","0","1","1","0.471437499974854","0.511351100052707","0.637729600071907","1","1","1","1","1","1","1","1","1"
"250033","img/neutralC/CFD-BF-038-037-N.jpg","img/neutralC/CFD-WM-004-010-N.jpg","img/neutralC/CFD-IF-623-129-N.jpg","1","0","1","1","0","1","0.637729600071907","0.471437499974854","0.398929400020279","1","1","1","1","1","1","1","1","1"
"250033","img/neutralC/CFD-IF-623-129-N.jpg","img/neutralC/CFD-BF-038-037-N.jpg","img/neutralC/CFD-LF-220-120-N.jpg","1","1","1","1","1","1","0.398929400020279","0.637729600071907","0.604215400060639","1","1","1","1","1","1","1","1","1"
"250033","img/neutralC/CFD-LF-220-120-N.jpg","img/neutralC/CFD-IF-623-129-N.jpg","img/neutralC/CFD-WM-235-147-N.jpg","1","1","1","1","1","0","0.604215400060639","0.398929400020279","0.564972399966791","1","1","1","1","1","1","1","1","1"
"250033","img/neutralC/CFD-WM-235-147-N.jpg","img/neutralC/CFD-LF-220-120-N.jpg","img/neutralC/CFD-IM-671-601-N.jpg","1","1","0","0","1","0","0.564972399966791","0.604215400060639","0.434289600001648","1","1","1","1","1","1","1","1","1"
"250033","img/neutralC/CFD-IM-671-601-N.jpg","img/neutralC/CFD-WM-235-147-N.jpg","img/neutralC/CFD-AM-242-176-N.jpg","0","1","1","0","0","1","0.434289600001648","0.564972399966791","0.662366800010204","1","1","1","1","1","1","1","1","1"
"250033","img/neutralC/CFD-AM-242-176-N.jpg","img/neutralC/CFD-IM-671-601-N.jpg","img/neutralC/CFD-LM-228-188-N.jpg","1","0","1","1","0","1","0.662366800010204","0.434289600001648","0.453557100030594","1","1","1","1","1","1","1","1","1"
"250033","img/neutralC/CFD-LM-228-188-N.jpg","img/neutralC/CFD-AM-242-176-N.jpg","img/neutralC/CFD-IF-650-315-N.jpg","1","1","1","1","1","0","0.453557100030594","0.662366800010204","0.637149699963629","1","1","1","1","1","1","1","1","1"
"250033","img/neutralC/CFD-IF-650-315-N.jpg","img/neutralC/CFD-LM-228-188-N.jpg","img/neutralC/CFD-WM-033-025-N.jpg","1","1","1","0","1","1","0.637149699963629","0.453557100030594","0.497882499941625","1","1","1","1","1","1","1","1","1"
"250033","img/neutralC/CFD-WM-033-025-N.jpg","img/neutralC/CFD-IF-650-315-N.jpg","img/neutralC/CFD-WF-214-122-N.jpg","1","1","1","1","0","1","0.497882499941625","0.637149699963629","0.554085599957034","1","1","1","1","1","1","1","1","1"
"250033","img/neutralC/CFD-WF-214-122-N.jpg","img/neutralC/CFD-WM-033-025-N.jpg","img/neutralC/CFD-BF-226-119-N.jpg","1","1","1","1","1","1","0.554085599957034","0.497882499941625","0.565804600017145","1","1","1","1","1","1","1","1","1"
"250033","img/neutralC/CFD-BF-226-119-N.jpg","img/neutralC/CFD-WF-214-122-N.jpg","img/neutralC/CFD-IM-616-214-N.jpg","1","1","1","1","1","0","0.565804600017145","0.554085599957034","0.574577699997462","1","1","1","1","1","1","1","1","1"
"250033","img/neutralC/CFD-IM-616-214-N.jpg","img/neutralC/CFD-BF-226-119-N.jpg","img/neutralC/CFD-MF-333-012-N.jpg","1","1","1","0","1","0","0.574577699997462","0.565804600017145","0.754221500013955","1","1","1","1","1","1","1","1","1"
"250033","img/neutralC/CFD-MF-333-012-N.jpg","img/neutralC/CFD-IM-616-214-N.jpg","img/neutralC/CFD-WF-036-023-N.jpg","1","1","1","0","0","0","0.754221500013955","0.574577699997462","0.710380499949679","1","1","1","1","1","1","1","1","1"
"250033","img/neutralC/CFD-WF-036-023-N.jpg","img/neutralC/CFD-MF-333-012-N.jpg","img/neutralC/CFD-WF-001-003-N.jpg","1","1","1","0","0","1","0.710380499949679","0.754221500013955","0.79360839992296","1","1","1","1","1","1","1","1","1"
"250033","img/neutralC/CFD-WF-001-003-N.jpg","img/neutralC/CFD-WF-036-023-N.jpg","img/neutralC/CFD-WM-020-001-N.jpg","1","1","1","1","0","1","0.79360839992296","0.710380499949679","0.503352000028826","1","1","1","1","1","1","1","1","1"
"250033","img/neutralC/CFD-WM-020-001-N.jpg","img/neutralC/CFD-WF-001-003-N.jpg","img/neutralC/CFD-LF-218-072-N.jpg","1","1","1","1","1","0","0.503352000028826","0.79360839992296","0.649768600007519","1","1","1","1","1","1","1","1","1"
"250033","img/neutralC/CFD-LF-218-072-N.jpg","img/neutralC/CFD-WM-020-001-N.jpg","img/neutralC/CFD-MF-359-019-N.jpg","1","1","1","0","1","0","0.649768600007519","0.503352000028826","0.485160700045526","1","1","1","1","1","1","1","1","1"
"250033","img/neutralC/CFD-MF-359-019-N.jpg","img/neutralC/CFD-LF-218-072-N.jpg","img/neutralC/CFD-WM-219-008-N.jpg","1","1","1","0","0","0","0.485160700045526","0.649768600007519","0.494330100016668","1","1","1","1","1","1","1","1","1"
"250033","img/neutralC/CFD-WM-219-008-N.jpg","img/neutralC/CFD-MF-359-019-N.jpg","img/neutralC/CFD-IM-645-001-N.jpg","1","1","1","0","0","0","0.494330100016668","0.485160700045526","0.552673700032756","1","1","1","1","1","1","1","1","1"
"250033","img/neutralC/CFD-IM-645-001-N.jpg","img/neutralC/CFD-WM-219-008-N.jpg","img/neutralC/CFD-BM-225-154-N.jpg","1","1","1","0","0","1","0.552673700032756","0.494330100016668","1.18249500007369","1","1","1","1","1","1","1","1","1"
"250033","img/neutralC/CFD-BM-225-154-N.jpg","img/neutralC/CFD-IM-645-001-N.jpg","img/neutralC/CFD-AM-211-052-N.jpg","1","1","1","1","0","1","1.18249500007369","0.552673700032756","0.431500399950892","1","1","1","1","1","1","1","1","1"
"250033","img/neutralC/CFD-AM-211-052-N.jpg","img/neutralC/CFD-BM-225-154-N.jpg","img/neutralC/CFD-BF-232-187-N.jpg","1","1","1","1","1","1","0.431500399950892","1.18249500007369","0.963567400001921","1","1","1","1","1","1","1","1","1"
"250033","img/neutralC/CFD-BF-232-187-N.jpg","img/neutralC/CFD-AM-211-052-N.jpg","img/neutralC/CFD-WF-200-099-N.jpg","1","1","1","1","1","0","0.963567400001921","0.431500399950892","0.548054200015031","1","1","1","1","1","1","1","1","1"
"250033","img/neutralC/CFD-WF-200-099-N.jpg","img/neutralC/CFD-BF-232-187-N.jpg","img/neutralC/CFD-BF-229-179-N.jpg","1","1","1","0","1","0","0.548054200015031","0.963567400001921","0.555242000031285","1","1","1","1","1","1","1","1","1"
"250033","img/neutralC/CFD-BF-229-179-N.jpg","img/neutralC/CFD-WF-200-099-N.jpg","img/neutralC/CFD-LM-237-264-N.jpg","1","1","0","0","0","0","0.555242000031285","0.548054200015031","0.479849199997261","1","1","1","1","1","1","1","1","1"
"250033","img/neutralC/CFD-LM-237-264-N.jpg","img/neutralC/CFD-BF-229-179-N.jpg","img/neutralC/CFD-AM-251-124-N.jpg","0","1","1","0","0","0","0.479849199997261","0.555242000031285","0.810036699986085","1","1","1","1","1","1","1","1","1"
"250033","img/neutralC/CFD-AM-251-124-N.jpg","img/neutralC/CFD-LM-237-264-N.jpg","img/neutralC/CFD-IM-703-182-N.jpg","1","0","1","0","0","1","0.810036699986085","0.479849199997261","0.4704580999678","1","1","1","1","1","1","1","1","1"
"250033","img/neutralC/CFD-IM-703-182-N.jpg","img/neutralC/CFD-AM-251-124-N.jpg",NA,"1","1",NA,"1","0",NA,"0.4704580999678","0.810036699986085",NA,"1","1",NA,"1","1",NA,"1","1",NA
"250033","img/neutralC/CFD-LF-215-157-N.jpg",NA,"img/neutralC/CFD-BM-023-029-N.jpg","0",NA,"1","0",NA,"1",NA,NA,"0.576177999959327","0",NA,"1","0",NA,"1","0",NA,"1"
"250033","img/neutralC/CFD-BM-023-029-N.jpg","img/neutralC/CFD-LF-215-157-N.jpg","img/neutralC/CFD-BF-218-207-N.jpg","1","0","0","1","0","1","0.576177999959327",NA,"0.324722600053065","1","0","1","1","0","1","1","0","1"
"250033","img/neutralC/CFD-BF-218-207-N.jpg","img/neutralC/CFD-BM-023-029-N.jpg","img/neutralC/CFD-AF-221-147-N.jpg","0","1","1","1","1","0","0.324722600053065","0.576177999959327","0.490373600041494","1","1","1","1","1","1","1","1","1"
"250033","img/neutralC/CFD-AF-221-147-N.jpg","img/neutralC/CFD-BF-218-207-N.jpg","img/neutralC/CFD-WF-018-017-N.jpg","1","0","1","0","1","1","0.490373600041494","0.324722600053065","0.45253040001262","1","1","1","1","1","1","1","1","1"
"250033","img/neutralC/CFD-WF-018-017-N.jpg","img/neutralC/CFD-AF-221-147-N.jpg","img/neutralC/CFD-WM-013-001-N.jpg","1","1","1","1","0","1","0.45253040001262","0.490373600041494","0.700676699983887","1","1","1","1","1","1","1","1","1"
"250033","img/neutralC/CFD-WM-013-001-N.jpg","img/neutralC/CFD-WF-018-017-N.jpg","img/neutralC/CFD-WM-237-052-N.jpg","1","1","1","1","1","1","0.700676699983887","0.45253040001262","0.541253899922594","1","1","1","1","1","1","1","1","1"
"250033","img/neutralC/CFD-WM-237-052-N.jpg","img/neutralC/CFD-WM-013-001-N.jpg","img/neutralC/CFD-IM-627-178-N.jpg","1","1","1","1","1","1","0.541253899922594","0.700676699983887","0.56290459993761","1","1","1","1","1","1","1","1","1"
"250033","img/neutralC/CFD-IM-627-178-N.jpg","img/neutralC/CFD-WM-237-052-N.jpg","img/neutralC/CFD-MF-321-003-N.jpg","1","1","1","1","1","0","0.56290459993761","0.541253899922594","0.444358700071461","1","1","1","1","1","1","1","1","1"
"250033","img/neutralC/CFD-MF-321-003-N.jpg","img/neutralC/CFD-IM-627-178-N.jpg","img/neutralC/CFD-AF-232-078-N.jpg","1","1","1","0","1","1","0.444358700071461","0.56290459993761","0.488236799952574","1","1","1","1","1","1","1","1","1"
"250033","img/neutralC/CFD-AF-232-078-N.jpg","img/neutralC/CFD-MF-321-003-N.jpg","img/neutralC/CFD-LM-253-075-N.jpg","1","1","0","1","0","0","0.488236799952574","0.444358700071461","0.497776999953203","1","1","1","1","1","1","1","1","1"
"250033","img/neutralC/CFD-LM-253-075-N.jpg","img/neutralC/CFD-AF-232-078-N.jpg","img/neutralC/CFD-BF-254-201-N.jpg","0","1","1","0","1","0","0.497776999953203","0.488236799952574","0.439721500035375","1","1","1","1","1","1","1","1","1"
"250033","img/neutralC/CFD-BF-254-201-N.jpg","img/neutralC/CFD-LM-253-075-N.jpg","img/neutralC/CFD-BM-204-003-N.jpg","1","0","0","0","0","0","0.439721500035375","0.497776999953203","1.02536870003678","1","1","1","1","1","1","1","1","1"
"250033","img/neutralC/CFD-BM-204-003-N.jpg","img/neutralC/CFD-BF-254-201-N.jpg","img/neutralC/CFD-WM-009-002-N.jpg","0","1","0","0","0","0","1.02536870003678","0.439721500035375","0.565853800042532","1","1","1","1","1","1","1","1","1"
"250033","img/neutralC/CFD-WM-009-002-N.jpg","img/neutralC/CFD-BM-204-003-N.jpg","img/neutralC/CFD-WM-255-219-N.jpg","0","0","0","0","0","0","0.565853800042532","1.02536870003678","0.699030700023286","1","1","1","1","1","1","1","1","1"
"250033","img/neutralC/CFD-WM-255-219-N.jpg","img/neutralC/CFD-WM-009-002-N.jpg","img/neutralC/CFD-WF-226-095-N.jpg","0","0","1","0","0","1","0.699030700023286","0.565853800042532","0.509908300009556","1","1","1","1","1","1","1","1","1"
"250033","img/neutralC/CFD-WF-226-095-N.jpg","img/neutralC/CFD-WM-255-219-N.jpg","img/neutralC/CFD-MF-342-022-N.jpg","1","0","1","1","0","1","0.509908300009556","0.699030700023286","0.401120499940589","1","1","1","1","1","1","1","1","1"
"250033","img/neutralC/CFD-MF-342-022-N.jpg","img/neutralC/CFD-WF-226-095-N.jpg","img/neutralC/CFD-BM-200-046-N.jpg","1","1","1","1","1","0","0.401120499940589","0.509908300009556","0.537590599968098","1","1","1","1","1","1","1","1","1"
"250033","img/neutralC/CFD-BM-200-046-N.jpg","img/neutralC/CFD-MF-342-022-N.jpg","img/neutralC/CFD-BF-018-039-N.jpg","1","1","0","0","1","1","0.537590599968098","0.401120499940589","0.444358899956569","1","1","1","1","1","1","1","1","1"
"250033","img/neutralC/CFD-BF-018-039-N.jpg","img/neutralC/CFD-BM-200-046-N.jpg","img/neutralC/CFD-WF-023-003-N.jpg","0","1","1","1","0","1","0.444358899956569","0.537590599968098","0.580222500022501","1","1","1","1","1","1","1","1","1"
"250033","img/neutralC/CFD-WF-023-003-N.jpg","img/neutralC/CFD-BF-018-039-N.jpg","img/neutralC/CFD-MM-321-021-N.jpg","1","0","1","1","1","0","0.580222500022501","0.444358899956569","0.72703890001867","1","1","1","1","1","1","1","1","1"
"250033","img/neutralC/CFD-MM-321-021-N.jpg","img/neutralC/CFD-WF-023-003-N.jpg","img/neutralC/CFD-WM-201-063-N.jpg","1","1","1","0","1","1","0.72703890001867","0.580222500022501","0.562884399900213","1","1","1","1","1","1","1","1","1"
"250033","img/neutralC/CFD-WM-201-063-N.jpg","img/neutralC/CFD-MM-321-021-N.jpg","img/neutralC/CFD-WM-221-091-N.jpg","1","1","0","1","0","0","0.562884399900213","0.72703890001867","0.80269059992861","1","1","1","1","1","1","1","1","1"
"250033","img/neutralC/CFD-WM-221-091-N.jpg","img/neutralC/CFD-WM-201-063-N.jpg","img/neutralC/CFD-LF-211-003-N.jpg","0","1","1","0","1","0","0.80269059992861","0.562884399900213","0.735252499929629","1","1","1","1","1","1","1","1","1"
"250033","img/neutralC/CFD-LF-211-003-N.jpg","img/neutralC/CFD-WM-221-091-N.jpg","img/neutralC/CFD-AM-244-222-N.jpg","1","0","1","0","0","0","0.735252499929629","0.80269059992861","0.547783699934371","1","1","1","1","1","1","1","1","1"
"250033","img/neutralC/CFD-AM-244-222-N.jpg","img/neutralC/CFD-LF-211-003-N.jpg","img/neutralC/CFD-IM-700-009-N.jpg","1","1","1","0","0","1","0.547783699934371","0.735252499929629","0.411256199935451","1","1","1","1","1","1","1","1","1"
"250033","img/neutralC/CFD-IM-700-009-N.jpg","img/neutralC/CFD-AM-244-222-N.jpg","img/neutralC/CFD-IM-719-221-N.jpg","1","1","1","1","0","0","0.411256199935451","0.547783699934371","0.591910099959932","1","1","1","1","1","1","1","1","1"
"250033","img/neutralC/CFD-IM-719-221-N.jpg","img/neutralC/CFD-IM-700-009-N.jpg","img/neutralC/CFD-WF-027-003-N.jpg","1","1","1","0","1","1","0.591910099959932","0.411256199935451","0.352631899993867","1","1","1","1","1","1","1","1","1"
"250033","img/neutralC/CFD-WF-027-003-N.jpg","img/neutralC/CFD-IM-719-221-N.jpg","img/neutralC/CFD-WF-238-023-N.jpg","1","1","0","1","0","0","0.352631899993867","0.591910099959932","0.320033699972555","1","1","1","1","1","1","1","1","1"
"250033","img/neutralC/CFD-WF-238-023-N.jpg","img/neutralC/CFD-WF-027-003-N.jpg","img/neutralC/CFD-MF-318-022-N.jpg","0","1","1","0","1","1","0.320033699972555","0.352631899993867","0.444796800031327","1","1","1","1","1","1","1","1","1"
"250033","img/neutralC/CFD-MF-318-022-N.jpg","img/neutralC/CFD-WF-238-023-N.jpg","img/neutralC/CFD-IF-629-234-N.jpg","1","0","0","1","0","0","0.444796800031327","0.320033699972555","0.579585099942051","1","1","1","1","1","1","1","1","1"
"250033","img/neutralC/CFD-IF-629-234-N.jpg","img/neutralC/CFD-MF-318-022-N.jpg","img/neutralC/CFD-WF-245-084-N.jpg","0","1","1","0","1","1","0.579585099942051","0.444796800031327","0.459300599992275","1","1","1","1","1","1","1","1","1"
"250033","img/neutralC/CFD-WF-245-084-N.jpg","img/neutralC/CFD-IF-629-234-N.jpg",NA,"1","0",NA,"1","0",NA,"0.459300599992275","0.579585099942051",NA,"1","1",NA,"1","1",NA,"1","1",NA
