"participant_id","current_trial_face","pre_trial_face","post_trial_face","current_trial_accuracy","pre_trial_accuracy","post_trial_accuracy","current_trial_congruency","pre_trial_congruency","post_trial_congruency","current_trial_rt","pre_trial_rt","post_trial_rt","current_trial_responded","pre_trial_responded","post_trial_responded","current_trial_legitResponse","pre_trial_legitResponse","post_trial_legitResponse","current_trial_resp_nums","pre_trial_resp_nums","post_trial_resp_nums"
"250049","img/neutralC/CFD-WM-028-003-N.jpg",NA,"img/neutralC/CFD-AM-219-101-N.jpg","1",NA,"1","1",NA,"0","0.766529000131413",NA,"0.483616499928758","1",NA,"1","1",NA,"1","1",NA,"1"
"250049","img/neutralC/CFD-AM-219-101-N.jpg","img/neutralC/CFD-WM-028-003-N.jpg","img/neutralC/CFD-BF-012-001-N.jpg","1","1","1","0","1","0","0.483616499928758","0.766529000131413","0.442003400065005","1","1","1","1","1","1","1","1","1"
"250049","img/neutralC/CFD-BF-012-001-N.jpg","img/neutralC/CFD-AM-219-101-N.jpg","img/neutralC/CFD-IM-606-008-N.jpg","1","1","1","0","0","0","0.442003400065005","0.483616499928758","0.433696800144389","1","1","1","1","1","1","1","1","1"
"250049","img/neutralC/CFD-IM-606-008-N.jpg","img/neutralC/CFD-BF-012-001-N.jpg","img/neutralC/CFD-WF-221-005-N.jpg","1","1","1","0","0","0","0.433696800144389","0.442003400065005","0.469231300288811","1","1","1","1","1","1","1","1","1"
"250049","img/neutralC/CFD-WF-221-005-N.jpg","img/neutralC/CFD-IM-606-008-N.jpg","img/neutralC/CFD-IM-697-015-N.jpg","1","1","1","0","0","1","0.469231300288811","0.433696800144389","0.442056000232696","1","1","1","1","1","1","1","1","1"
"250049","img/neutralC/CFD-IM-697-015-N.jpg","img/neutralC/CFD-WF-221-005-N.jpg","img/neutralC/CFD-WF-207-014-N.jpg","1","1","1","1","0","1","0.442056000232696","0.469231300288811","0.392244200222194","1","1","1","1","1","1","1","1","1"
"250049","img/neutralC/CFD-WF-207-014-N.jpg","img/neutralC/CFD-IM-697-015-N.jpg","img/neutralC/CFD-IF-676-017-N.jpg","1","1","1","1","1","1","0.392244200222194","0.442056000232696","0.414771500276402","1","1","1","1","1","1","1","1","1"
"250049","img/neutralC/CFD-IF-676-017-N.jpg","img/neutralC/CFD-WF-207-014-N.jpg","img/neutralC/CFD-LF-222-147-N.jpg","1","1","1","1","1","0","0.414771500276402","0.392244200222194","0.45279230014421","1","1","1","1","1","1","1","1","1"
"250049","img/neutralC/CFD-LF-222-147-N.jpg","img/neutralC/CFD-IF-676-017-N.jpg","img/neutralC/CFD-LF-212-066-N.jpg","1","1","1","0","1","1","0.45279230014421","0.414771500276402","0.456171300262213","1","1","1","1","1","1","1","1","1"
"250049","img/neutralC/CFD-LF-212-066-N.jpg","img/neutralC/CFD-LF-222-147-N.jpg","img/neutralC/CFD-AM-243-212-N.jpg","1","1","1","1","0","1","0.456171300262213","0.45279230014421","0.470988299930468","1","1","1","1","1","1","1","1","1"
"250049","img/neutralC/CFD-AM-243-212-N.jpg","img/neutralC/CFD-LF-212-066-N.jpg","img/neutralC/CFD-AF-237-223-N.jpg","1","1","0","1","1","0","0.470988299930468","0.456171300262213","0.481098200194538","1","1","1","1","1","1","1","1","1"
"250049","img/neutralC/CFD-AF-237-223-N.jpg","img/neutralC/CFD-AM-243-212-N.jpg","img/neutralC/CFD-BM-227-191-N.jpg","0","1","1","0","1","1","0.481098200194538","0.470988299930468","0.51456220028922","1","1","1","1","1","1","1","1","1"
"250049","img/neutralC/CFD-BM-227-191-N.jpg","img/neutralC/CFD-AF-237-223-N.jpg","img/neutralC/CFD-AM-205-153-N.jpg","1","0","1","1","0","1","0.51456220028922","0.481098200194538","0.489783900091425","1","1","1","1","1","1","1","1","1"
"250049","img/neutralC/CFD-AM-205-153-N.jpg","img/neutralC/CFD-BM-227-191-N.jpg","img/neutralC/CFD-BM-043-071-N.jpg","1","1","1","1","1","0","0.489783900091425","0.51456220028922","0.5124423999805","1","1","1","1","1","1","1","1","1"
"250049","img/neutralC/CFD-BM-043-071-N.jpg","img/neutralC/CFD-AM-205-153-N.jpg","img/neutralC/CFD-AM-249-163-N.jpg","1","1","1","0","1","1","0.5124423999805","0.489783900091425","0.455297100124881","1","1","1","1","1","1","1","1","1"
"250049","img/neutralC/CFD-AM-249-163-N.jpg","img/neutralC/CFD-BM-043-071-N.jpg","img/neutralC/CFD-BM-020-001-N.jpg","1","1","1","1","0","0","0.455297100124881","0.5124423999805","0.603093300247565","1","1","1","1","1","1","1","1","1"
"250049","img/neutralC/CFD-BM-020-001-N.jpg","img/neutralC/CFD-AM-249-163-N.jpg","img/neutralC/CFD-WF-009-001-N.jpg","1","1","1","0","1","1","0.603093300247565","0.455297100124881","0.432176100090146","1","1","1","1","1","1","1","1","1"
"250049","img/neutralC/CFD-WF-009-001-N.jpg","img/neutralC/CFD-BM-020-001-N.jpg","img/neutralC/CFD-WM-025-002-N.jpg","1","1","0","1","0","0","0.432176100090146","0.603093300247565","0.400782299926504","1","1","1","1","1","1","1","1","1"
"250049","img/neutralC/CFD-WM-025-002-N.jpg","img/neutralC/CFD-WF-009-001-N.jpg","img/neutralC/CFD-IM-689-263-N.jpg","0","1","1","0","1","1","0.400782299926504","0.432176100090146","0.458956199930981","1","1","1","1","1","1","1","1","1"
"250049","img/neutralC/CFD-IM-689-263-N.jpg","img/neutralC/CFD-WM-025-002-N.jpg","img/neutralC/CFD-BM-021-021-N.jpg","1","0","1","1","0","1","0.458956199930981","0.400782299926504","0.443852500058711","1","1","1","1","1","1","1","1","1"
"250049","img/neutralC/CFD-BM-021-021-N.jpg","img/neutralC/CFD-IM-689-263-N.jpg","img/neutralC/CFD-MF-328-020-N.jpg","1","1","1","1","1","0","0.443852500058711","0.458956199930981","0.479169700061902","1","1","1","1","1","1","1","1","1"
"250049","img/neutralC/CFD-MF-328-020-N.jpg","img/neutralC/CFD-BM-021-021-N.jpg","img/neutralC/CFD-BF-244-231-N.jpg","1","1","1","0","1","1","0.479169700061902","0.443852500058711","0.406547200167552","1","1","1","1","1","1","1","1","1"
"250049","img/neutralC/CFD-BF-244-231-N.jpg","img/neutralC/CFD-MF-328-020-N.jpg","img/neutralC/CFD-BM-009-002-N.jpg","1","1","1","1","0","1","0.406547200167552","0.479169700061902","0.441148600075394","1","1","1","1","1","1","1","1","1"
"250049","img/neutralC/CFD-BM-009-002-N.jpg","img/neutralC/CFD-BF-244-231-N.jpg","img/neutralC/CFD-WF-241-210-N.jpg","1","1","1","1","1","0","0.441148600075394","0.406547200167552","0.525139299919829","1","1","1","1","1","1","1","1","1"
"250049","img/neutralC/CFD-WF-241-210-N.jpg","img/neutralC/CFD-BM-009-002-N.jpg","img/neutralC/CFD-WM-023-001-N.jpg","1","1","1","0","1","0","0.525139299919829","0.441148600075394","0.459816100075841","1","1","1","1","1","1","1","1","1"
"250049","img/neutralC/CFD-WM-023-001-N.jpg","img/neutralC/CFD-WF-241-210-N.jpg","img/neutralC/CFD-WF-243-148-N.jpg","1","1","1","0","0","0","0.459816100075841","0.525139299919829","0.460582600207999","1","1","1","1","1","1","1","1","1"
"250049","img/neutralC/CFD-WF-243-148-N.jpg","img/neutralC/CFD-WM-023-001-N.jpg","img/neutralC/CFD-MM-306-010-N.jpg","1","1","1","0","0","0","0.460582600207999","0.459816100075841","0.412544999970123","1","1","1","1","1","1","1","1","1"
"250049","img/neutralC/CFD-MM-306-010-N.jpg","img/neutralC/CFD-WF-243-148-N.jpg","img/neutralC/CFD-LF-238-154-N.jpg","1","1","1","0","0","1","0.412544999970123","0.460582600207999","0.452775000128895","1","1","1","1","1","1","1","1","1"
"250049","img/neutralC/CFD-LF-238-154-N.jpg","img/neutralC/CFD-MM-306-010-N.jpg","img/neutralC/CFD-LM-240-013-N.jpg","1","1","1","1","0","1","0.452775000128895","0.412544999970123","0.502772100036964","1","1","1","1","1","1","1","1","1"
"250049","img/neutralC/CFD-LM-240-013-N.jpg","img/neutralC/CFD-LF-238-154-N.jpg","img/neutralC/CFD-BM-030-003-N.jpg","1","1","0","1","1","0","0.502772100036964","0.452775000128895","0.402524100150913","1","1","1","1","1","1","1","1","1"
"250049","img/neutralC/CFD-BM-030-003-N.jpg","img/neutralC/CFD-LM-240-013-N.jpg","img/neutralC/CFD-IM-615-167-N.jpg","0","1","1","0","1","0","0.402524100150913","0.502772100036964","0.663026900263503","1","1","1","1","1","1","1","1","1"
"250049","img/neutralC/CFD-IM-615-167-N.jpg","img/neutralC/CFD-BM-030-003-N.jpg",NA,"1","0",NA,"0","0",NA,"0.663026900263503","0.402524100150913",NA,"1","1",NA,"1","1",NA,"1","1",NA
"250049","img/neutralC/CFD-BM-023-029-N.jpg",NA,"img/neutralC/CFD-AM-244-222-N.jpg","1",NA,"1","1",NA,"0","0.395035400055349",NA,"0.546280500246212","1",NA,"1","1",NA,"1","1",NA,"1"
"250049","img/neutralC/CFD-AM-244-222-N.jpg","img/neutralC/CFD-BM-023-029-N.jpg","img/neutralC/CFD-BF-018-039-N.jpg","1","1","1","0","1","1","0.546280500246212","0.395035400055349","0.343345399945974","1","1","1","1","1","1","1","1","1"
"250049","img/neutralC/CFD-BF-018-039-N.jpg","img/neutralC/CFD-AM-244-222-N.jpg","img/neutralC/CFD-MF-321-003-N.jpg","1","1","1","1","0","0","0.343345399945974","0.546280500246212","0.515719500137493","1","1","1","1","1","1","1","1","1"
"250049","img/neutralC/CFD-MF-321-003-N.jpg","img/neutralC/CFD-BF-018-039-N.jpg","img/neutralC/CFD-IM-627-178-N.jpg","1","1","1","0","1","1","0.515719500137493","0.343345399945974","0.393029400147498","1","1","1","1","1","1","1","1","1"
"250049","img/neutralC/CFD-IM-627-178-N.jpg","img/neutralC/CFD-MF-321-003-N.jpg","img/neutralC/CFD-BM-200-046-N.jpg","1","1","0","1","0","0","0.393029400147498","0.515719500137493","0.422615700168535","1","1","1","1","1","1","1","1","1"
"250049","img/neutralC/CFD-BM-200-046-N.jpg","img/neutralC/CFD-IM-627-178-N.jpg","img/neutralC/CFD-IF-629-234-N.jpg","0","1","1","0","1","0","0.422615700168535","0.393029400147498","0.613238400081173","1","1","1","1","1","1","1","1","1"
"250049","img/neutralC/CFD-IF-629-234-N.jpg","img/neutralC/CFD-BM-200-046-N.jpg","img/neutralC/CFD-IM-700-009-N.jpg","1","0","1","0","0","1","0.613238400081173","0.422615700168535","0.389629800105467","1","1","1","1","1","1","1","1","1"
"250049","img/neutralC/CFD-IM-700-009-N.jpg","img/neutralC/CFD-IF-629-234-N.jpg","img/neutralC/CFD-LF-215-157-N.jpg","1","1","1","1","0","0","0.389629800105467","0.613238400081173","0.435598700074479","1","1","1","1","1","1","1","1","1"
"250049","img/neutralC/CFD-LF-215-157-N.jpg","img/neutralC/CFD-IM-700-009-N.jpg","img/neutralC/CFD-MM-321-021-N.jpg","1","1","1","0","1","0","0.435598700074479","0.389629800105467","0.464507600059733","1","1","1","1","1","1","1","1","1"
"250049","img/neutralC/CFD-MM-321-021-N.jpg","img/neutralC/CFD-LF-215-157-N.jpg","img/neutralC/CFD-WM-201-063-N.jpg","1","1","1","0","0","1","0.464507600059733","0.435598700074479","0.404089900199324","1","1","1","1","1","1","1","1","1"
"250049","img/neutralC/CFD-WM-201-063-N.jpg","img/neutralC/CFD-MM-321-021-N.jpg","img/neutralC/CFD-WM-221-091-N.jpg","1","1","1","1","0","0","0.404089900199324","0.464507600059733","0.42960870009847","1","1","1","1","1","1","1","1","1"
"250049","img/neutralC/CFD-WM-221-091-N.jpg","img/neutralC/CFD-WM-201-063-N.jpg","img/neutralC/CFD-WF-018-017-N.jpg","1","1","1","0","1","1","0.42960870009847","0.404089900199324","0.40731959999539","1","1","1","1","1","1","1","1","1"
"250049","img/neutralC/CFD-WF-018-017-N.jpg","img/neutralC/CFD-WM-221-091-N.jpg","img/neutralC/CFD-LF-211-003-N.jpg","1","1","1","1","0","0","0.40731959999539","0.42960870009847","0.548966800095513","1","1","1","1","1","1","1","1","1"
"250049","img/neutralC/CFD-LF-211-003-N.jpg","img/neutralC/CFD-WF-018-017-N.jpg","img/neutralC/CFD-MF-342-022-N.jpg","1","1","1","0","1","1","0.548966800095513","0.40731959999539","0.359382300172001","1","1","1","1","1","1","1","1","1"
"250049","img/neutralC/CFD-MF-342-022-N.jpg","img/neutralC/CFD-LF-211-003-N.jpg","img/neutralC/CFD-WM-255-219-N.jpg","1","1","0","1","0","0","0.359382300172001","0.548966800095513","0.489300099899992","1","1","1","1","1","1","1","1","1"
"250049","img/neutralC/CFD-WM-255-219-N.jpg","img/neutralC/CFD-MF-342-022-N.jpg","img/neutralC/CFD-WF-238-023-N.jpg","0","1","1","0","1","0","0.489300099899992","0.359382300172001","0.645744600100443","1","1","1","1","1","1","1","1","1"
"250049","img/neutralC/CFD-WF-238-023-N.jpg","img/neutralC/CFD-WM-255-219-N.jpg","img/neutralC/CFD-AF-221-147-N.jpg","1","0","1","0","0","0","0.645744600100443","0.489300099899992","0.47183379996568","1","1","1","1","1","1","1","1","1"
"250049","img/neutralC/CFD-AF-221-147-N.jpg","img/neutralC/CFD-WF-238-023-N.jpg","img/neutralC/CFD-WM-237-052-N.jpg","1","1","1","0","0","1","0.47183379996568","0.645744600100443","0.431141700129956","1","1","1","1","1","1","1","1","1"
"250049","img/neutralC/CFD-WM-237-052-N.jpg","img/neutralC/CFD-AF-221-147-N.jpg","img/neutralC/CFD-LM-253-075-N.jpg","1","1","1","1","0","0","0.431141700129956","0.47183379996568","0.465703899972141","1","1","1","1","1","1","1","1","1"
"250049","img/neutralC/CFD-LM-253-075-N.jpg","img/neutralC/CFD-WM-237-052-N.jpg","img/neutralC/CFD-WM-013-001-N.jpg","1","1","1","0","1","1","0.465703899972141","0.431141700129956","0.439654700225219","1","1","1","1","1","1","1","1","1"
"250049","img/neutralC/CFD-WM-013-001-N.jpg","img/neutralC/CFD-LM-253-075-N.jpg","img/neutralC/CFD-IM-719-221-N.jpg","1","1","1","1","0","0","0.439654700225219","0.465703899972141","0.532583500025794","1","1","1","1","1","1","1","1","1"
"250049","img/neutralC/CFD-IM-719-221-N.jpg","img/neutralC/CFD-WM-013-001-N.jpg","img/neutralC/CFD-WF-226-095-N.jpg","1","1","1","0","1","1","0.532583500025794","0.439654700225219","0.402754900045693","1","1","1","1","1","1","1","1","1"
"250049","img/neutralC/CFD-WF-226-095-N.jpg","img/neutralC/CFD-IM-719-221-N.jpg","img/neutralC/CFD-WF-245-084-N.jpg","1","1","1","1","0","1","0.402754900045693","0.532583500025794","0.40711269993335","1","1","1","1","1","1","1","1","1"
"250049","img/neutralC/CFD-WF-245-084-N.jpg","img/neutralC/CFD-WF-226-095-N.jpg","img/neutralC/CFD-WF-027-003-N.jpg","1","1","1","1","1","1","0.40711269993335","0.402754900045693","0.431832100031897","1","1","1","1","1","1","1","1","1"
"250049","img/neutralC/CFD-WF-027-003-N.jpg","img/neutralC/CFD-WF-245-084-N.jpg","img/neutralC/CFD-MF-318-022-N.jpg","1","1","1","1","1","1","0.431832100031897","0.40711269993335","0.457444000057876","1","1","1","1","1","1","1","1","1"
"250049","img/neutralC/CFD-MF-318-022-N.jpg","img/neutralC/CFD-WF-027-003-N.jpg","img/neutralC/CFD-WM-009-002-N.jpg","1","1","1","1","1","0","0.457444000057876","0.431832100031897","0.405595000134781","1","1","1","1","1","1","1","1","1"
"250049","img/neutralC/CFD-WM-009-002-N.jpg","img/neutralC/CFD-MF-318-022-N.jpg","img/neutralC/CFD-BM-204-003-N.jpg","1","1","1","0","1","0","0.405595000134781","0.457444000057876","0.416152400197461","1","1","1","1","1","1","1","1","1"
"250049","img/neutralC/CFD-BM-204-003-N.jpg","img/neutralC/CFD-WM-009-002-N.jpg","img/neutralC/CFD-BF-254-201-N.jpg","1","1","0","0","0","0","0.416152400197461","0.405595000134781","0.380180400097743","1","1","1","1","1","1","1","1","1"
"250049","img/neutralC/CFD-BF-254-201-N.jpg","img/neutralC/CFD-BM-204-003-N.jpg","img/neutralC/CFD-WF-023-003-N.jpg","0","1","1","0","0","1","0.380180400097743","0.416152400197461","0.405072699999437","1","1","1","1","1","1","1","1","1"
"250049","img/neutralC/CFD-WF-023-003-N.jpg","img/neutralC/CFD-BF-254-201-N.jpg","img/neutralC/CFD-AF-232-078-N.jpg","1","0","1","1","0","1","0.405072699999437","0.380180400097743","0.444049700163305","1","1","1","1","1","1","1","1","1"
"250049","img/neutralC/CFD-AF-232-078-N.jpg","img/neutralC/CFD-WF-023-003-N.jpg","img/neutralC/CFD-BF-218-207-N.jpg","1","1","1","1","1","1","0.444049700163305","0.405072699999437","0.46144360024482","1","1","1","1","1","1","1","1","1"
"250049","img/neutralC/CFD-BF-218-207-N.jpg","img/neutralC/CFD-AF-232-078-N.jpg",NA,"1","1",NA,"1","1",NA,"0.46144360024482","0.444049700163305",NA,"1","1",NA,"1","1",NA,"1","1",NA
"250049","img/neutralC/CFD-WM-213-076-N.jpg",NA,"img/neutralC/CFD-IM-604-014-N.jpg","1",NA,"0","1",NA,"0","0.421499400166795",NA,"0.363438900094479","1",NA,"1","1",NA,"1","1",NA,"1"
"250049","img/neutralC/CFD-IM-604-014-N.jpg","img/neutralC/CFD-WM-213-076-N.jpg","img/neutralC/CFD-BF-224-002-N.jpg","0","1","1","0","1","1","0.363438900094479","0.421499400166795","0.394362000050023","1","1","1","1","1","1","1","1","1"
"250049","img/neutralC/CFD-BF-224-002-N.jpg","img/neutralC/CFD-IM-604-014-N.jpg","img/neutralC/CFD-IF-619-197-N.jpg","1","0","1","1","0","0","0.394362000050023","0.363438900094479","0.360243699979037","1","1","1","1","1","1","1","1","1"
"250049","img/neutralC/CFD-IF-619-197-N.jpg","img/neutralC/CFD-BF-224-002-N.jpg","img/neutralC/CFD-IM-685-004-N.jpg","1","1","1","0","1","1","0.360243699979037","0.394362000050023","0.409102300181985","1","1","1","1","1","1","1","1","1"
"250049","img/neutralC/CFD-IM-685-004-N.jpg","img/neutralC/CFD-IF-619-197-N.jpg","img/neutralC/CFD-BF-051-035-N.jpg","1","1","1","1","0","0","0.409102300181985","0.360243699979037","0.417170000029728","1","1","1","1","1","1","1","1","1"
"250049","img/neutralC/CFD-BF-051-035-N.jpg","img/neutralC/CFD-IM-685-004-N.jpg","img/neutralC/CFD-BM-039-029-N.jpg","1","1","1","0","1","1","0.417170000029728","0.409102300181985","0.347421700134873","1","1","1","1","1","1","1","1","1"
"250049","img/neutralC/CFD-BM-039-029-N.jpg","img/neutralC/CFD-BF-051-035-N.jpg","img/neutralC/CFD-MF-340-026-N.jpg","1","1","1","1","0","1","0.347421700134873","0.417170000029728","0.446623000083491","1","1","1","1","1","1","1","1","1"
"250049","img/neutralC/CFD-MF-340-026-N.jpg","img/neutralC/CFD-BM-039-029-N.jpg","img/neutralC/CFD-LF-226-174-N.jpg","1","1","0","1","1","0","0.446623000083491","0.347421700134873","0.382888100109994","1","1","1","1","1","1","1","1","1"
"250049","img/neutralC/CFD-LF-226-174-N.jpg","img/neutralC/CFD-MF-340-026-N.jpg","img/neutralC/CFD-IM-675-015-N.jpg","0","1","1","0","1","1","0.382888100109994","0.446623000083491","0.394739900017157","1","1","1","1","1","1","1","1","1"
"250049","img/neutralC/CFD-IM-675-015-N.jpg","img/neutralC/CFD-LF-226-174-N.jpg","img/neutralC/CFD-MF-327-002-N.jpg","1","0","1","1","0","0","0.394739900017157","0.382888100109994","0.423735600197688","1","1","1","1","1","1","1","1","1"
"250049","img/neutralC/CFD-MF-327-002-N.jpg","img/neutralC/CFD-IM-675-015-N.jpg","img/neutralC/CFD-LM-217-162-N.jpg","1","1","0","0","1","0","0.423735600197688","0.394739900017157","0.334680000087246","1","1","1","1","1","1","1","1","1"
"250049","img/neutralC/CFD-LM-217-162-N.jpg","img/neutralC/CFD-MF-327-002-N.jpg","img/neutralC/CFD-MF-329-001-N.jpg","0","1","1","0","0","0","0.334680000087246","0.423735600197688","0.580191700020805","1","1","1","1","1","1","1","1","1"
"250049","img/neutralC/CFD-MF-329-001-N.jpg","img/neutralC/CFD-LM-217-162-N.jpg","img/neutralC/CFD-WF-008-002-N.jpg","1","0","1","0","0","1","0.580191700020805","0.334680000087246","0.466883799992502","1","1","1","1","1","1","1","1","1"
"250049","img/neutralC/CFD-WF-008-002-N.jpg","img/neutralC/CFD-MF-329-001-N.jpg","img/neutralC/CFD-WF-248-129-N.jpg","1","1","1","1","0","0","0.466883799992502","0.580191700020805","0.500348600093275","1","1","1","1","1","1","1","1","1"
"250049","img/neutralC/CFD-WF-248-129-N.jpg","img/neutralC/CFD-WF-008-002-N.jpg","img/neutralC/CFD-WM-232-070-N.jpg","1","1","1","0","1","0","0.500348600093275","0.466883799992502","0.572372399969026","1","1","1","1","1","1","1","1","1"
"250049","img/neutralC/CFD-WM-232-070-N.jpg","img/neutralC/CFD-WF-248-129-N.jpg","img/neutralC/CFD-AF-215-70-N.jpg","1","1","1","0","0","0","0.572372399969026","0.500348600093275","0.476923600072041","1","1","1","1","1","1","1","1","1"
"250049","img/neutralC/CFD-AF-215-70-N.jpg","img/neutralC/CFD-WM-232-070-N.jpg","img/neutralC/CFD-WF-217-085-N.jpg","1","1","1","0","0","1","0.476923600072041","0.572372399969026","0.359657800057903","1","1","1","1","1","1","1","1","1"
"250049","img/neutralC/CFD-WF-217-085-N.jpg","img/neutralC/CFD-AF-215-70-N.jpg","img/neutralC/CFD-IF-608-390-N.jpg","1","1","1","1","0","1","0.359657800057903","0.476923600072041","0.352567600086331","1","1","1","1","1","1","1","1","1"
"250049","img/neutralC/CFD-IF-608-390-N.jpg","img/neutralC/CFD-WF-217-085-N.jpg","img/neutralC/CFD-WM-024-015-N.jpg","1","1","1","1","1","1","0.352567600086331","0.359657800057903","0.391909900121391","1","1","1","1","1","1","1","1","1"
"250049","img/neutralC/CFD-WM-024-015-N.jpg","img/neutralC/CFD-IF-608-390-N.jpg","img/neutralC/CFD-AF-254-167-N.jpg","1","1","1","1","1","1","0.391909900121391","0.352567600086331","0.445273800054565","1","1","1","1","1","1","1","1","1"
"250049","img/neutralC/CFD-AF-254-167-N.jpg","img/neutralC/CFD-WM-024-015-N.jpg","img/neutralC/CFD-BM-243-218-N.jpg","1","1","1","1","1","1","0.445273800054565","0.391909900121391","0.399152700090781","1","1","1","1","1","1","1","1","1"
"250049","img/neutralC/CFD-BM-243-218-N.jpg","img/neutralC/CFD-AF-254-167-N.jpg","img/neutralC/CFD-IM-637-007-N.jpg","1","1","1","1","1","0","0.399152700090781","0.445273800054565","0.577228000154719","1","1","1","1","1","1","1","1","1"
"250049","img/neutralC/CFD-IM-637-007-N.jpg","img/neutralC/CFD-BM-243-218-N.jpg","img/neutralC/CFD-LF-201-035-N.jpg","1","1","0","0","1","1","0.577228000154719","0.399152700090781","0.480289299972355","1","1","1","1","1","1","1","1","1"
"250049","img/neutralC/CFD-LF-201-035-N.jpg","img/neutralC/CFD-IM-637-007-N.jpg","img/neutralC/CFD-MM-304-002-N.jpg","0","1","1","1","0","1","0.480289299972355","0.577228000154719","0.367297400021926","1","1","1","1","1","1","1","1","1"
"250049","img/neutralC/CFD-MM-304-002-N.jpg","img/neutralC/CFD-LF-201-035-N.jpg","img/neutralC/CFD-AM-236-090-N.jpg","1","0","1","1","1","1","0.367297400021926","0.480289299972355","0.394551400095224","1","1","1","1","1","1","1","1","1"
"250049","img/neutralC/CFD-AM-236-090-N.jpg","img/neutralC/CFD-MM-304-002-N.jpg","img/neutralC/CFD-IM-709-103-N.jpg","1","1","1","1","1","0","0.394551400095224","0.367297400021926","0.470060100080445","1","1","1","1","1","1","1","1","1"
"250049","img/neutralC/CFD-IM-709-103-N.jpg","img/neutralC/CFD-AM-236-090-N.jpg","img/neutralC/CFD-WF-012-002-N.jpg","1","1","1","0","1","1","0.470060100080445","0.394551400095224","0.327252400107682","1","1","1","1","1","1","1","1","1"
"250049","img/neutralC/CFD-WF-012-002-N.jpg","img/neutralC/CFD-IM-709-103-N.jpg","img/neutralC/CFD-WF-212-050-N.jpg","1","1","1","1","0","0","0.327252400107682","0.470060100080445","0.439055000199005","1","1","1","1","1","1","1","1","1"
"250049","img/neutralC/CFD-WF-212-050-N.jpg","img/neutralC/CFD-WF-012-002-N.jpg","img/neutralC/CFD-BF-043-003-N.jpg","1","1","1","0","1","0","0.439055000199005","0.327252400107682","0.446198800113052","1","1","1","1","1","1","1","1","1"
"250049","img/neutralC/CFD-BF-043-003-N.jpg","img/neutralC/CFD-WF-212-050-N.jpg","img/neutralC/CFD-AF-229-160-N.jpg","1","1","0","0","0","0","0.446198800113052","0.439055000199005","0.392900200095028","1","1","1","1","1","1","1","1","2"
"250049","img/neutralC/CFD-AF-229-160-N.jpg","img/neutralC/CFD-BF-043-003-N.jpg","img/neutralC/CFD-MF-300-002-N.jpg","0","1","1","0","0","0","0.392900200095028","0.446198800113052","0.536106100073084","1","1","1","1","1","1","2","1","1"
"250049","img/neutralC/CFD-MF-300-002-N.jpg","img/neutralC/CFD-AF-229-160-N.jpg",NA,"1","0",NA,"0","0",NA,"0.536106100073084","0.392900200095028",NA,"1","1",NA,"1","1",NA,"1","2",NA
"250049","img/neutralC/CFD-WM-012-001-N.jpg",NA,"img/neutralC/CFD-LM-244-068-N.jpg","1",NA,"1","1",NA,"1","0.513519400265068",NA,"0.36770540010184","1",NA,"1","1",NA,"1","1",NA,"1"
"250049","img/neutralC/CFD-LM-244-068-N.jpg","img/neutralC/CFD-WM-012-001-N.jpg","img/neutralC/CFD-WF-240-083-N.jpg","1","1","1","1","1","0","0.36770540010184","0.513519400265068","0.475660200230777","1","1","1","1","1","1","1","1","1"
"250049","img/neutralC/CFD-WF-240-083-N.jpg","img/neutralC/CFD-LM-244-068-N.jpg","img/neutralC/CFD-WM-249-239-N.jpg","1","1","1","0","1","1","0.475660200230777","0.36770540010184","0.404242600081488","1","1","1","1","1","1","1","1","1"
"250049","img/neutralC/CFD-WM-249-239-N.jpg","img/neutralC/CFD-WF-240-083-N.jpg","img/neutralC/CFD-AM-247-165-N.jpg","1","1","1","1","0","1","0.404242600081488","0.475660200230777","0.442029800033197","1","1","1","1","1","1","1","1","1"
"250049","img/neutralC/CFD-AM-247-165-N.jpg","img/neutralC/CFD-WM-249-239-N.jpg","img/neutralC/CFD-WF-005-010-N.jpg","1","1","1","1","1","0","0.442029800033197","0.404242600081488","0.42664170009084","1","1","1","1","1","1","1","1","1"
"250049","img/neutralC/CFD-WF-005-010-N.jpg","img/neutralC/CFD-AM-247-165-N.jpg","img/neutralC/CFD-WM-019-003-N.jpg","1","1","1","0","1","1","0.42664170009084","0.442029800033197","0.466693400172517","1","1","1","1","1","1","1","1","1"
"250049","img/neutralC/CFD-WM-019-003-N.jpg","img/neutralC/CFD-WF-005-010-N.jpg","img/neutralC/CFD-WM-006-002-N.jpg","1","1","1","1","0","0","0.466693400172517","0.42664170009084","0.523208200000226","1","1","1","1","1","1","1","1","1"
"250049","img/neutralC/CFD-WM-006-002-N.jpg","img/neutralC/CFD-WM-019-003-N.jpg","img/neutralC/CFD-LM-201-057-N.jpg","1","1","1","0","1","1","0.523208200000226","0.466693400172517","0.433911900036037","1","1","1","1","1","1","1","1","1"
"250049","img/neutralC/CFD-LM-201-057-N.jpg","img/neutralC/CFD-WM-006-002-N.jpg","img/neutralC/CFD-BF-228-212-N.jpg","1","1","0","1","0","0","0.433911900036037","0.523208200000226","0.334073800127953","1","1","1","1","1","1","1","1","1"
"250049","img/neutralC/CFD-BF-228-212-N.jpg","img/neutralC/CFD-LM-201-057-N.jpg","img/neutralC/CFD-WM-215-041-N.jpg","0","1","1","0","1","0","0.334073800127953","0.433911900036037","0.492464600130916","1","1","1","1","1","1","1","1","1"
"250049","img/neutralC/CFD-WM-215-041-N.jpg","img/neutralC/CFD-BF-228-212-N.jpg","img/neutralC/CFD-IM-646-023-N.jpg","1","0","1","0","0","1","0.492464600130916","0.334073800127953","0.383542299969122","1","1","1","1","1","1","1","1","1"
"250049","img/neutralC/CFD-IM-646-023-N.jpg","img/neutralC/CFD-WM-215-041-N.jpg","img/neutralC/CFD-AF-240-206-N.jpg","1","1","0","1","0","0","0.383542299969122","0.492464600130916","0.390028499998152","1","1","1","1","1","1","1","1","1"
"250049","img/neutralC/CFD-AF-240-206-N.jpg","img/neutralC/CFD-IM-646-023-N.jpg","img/neutralC/CFD-BF-202-109-N.jpg","0","1","1","0","1","1","0.390028499998152","0.383542299969122","0.432120000012219","1","1","1","1","1","1","1","1","1"
"250049","img/neutralC/CFD-BF-202-109-N.jpg","img/neutralC/CFD-AF-240-206-N.jpg","img/neutralC/CFD-BM-248-128-N.jpg","1","0","1","1","0","0","0.432120000012219","0.390028499998152","0.439013400115073","1","1","1","1","1","1","1","1","1"
"250049","img/neutralC/CFD-BM-248-128-N.jpg","img/neutralC/CFD-BF-202-109-N.jpg","img/neutralC/CFD-IM-648-337-N.jpg","1","1","1","0","1","0","0.439013400115073","0.432120000012219","0.489387800218538","1","1","1","1","1","1","1","1","1"
"250049","img/neutralC/CFD-IM-648-337-N.jpg","img/neutralC/CFD-BM-248-128-N.jpg","img/neutralC/CFD-BM-205-001-N.jpg","1","1","1","0","0","0","0.489387800218538","0.439013400115073","0.524231200106442","1","1","1","1","1","1","1","1","1"
"250049","img/neutralC/CFD-BM-205-001-N.jpg","img/neutralC/CFD-IM-648-337-N.jpg","img/neutralC/CFD-LM-216-082-N.jpg","1","1","1","0","0","0","0.524231200106442","0.489387800218538","0.472585300216451","1","1","1","1","1","1","1","1","1"
"250049","img/neutralC/CFD-LM-216-082-N.jpg","img/neutralC/CFD-BM-205-001-N.jpg","img/neutralC/CFD-WF-017-003-N.jpg","1","1","1","0","0","1","0.472585300216451","0.524231200106442","0.395508200163022","1","1","1","1","1","1","1","1","1"
"250049","img/neutralC/CFD-WF-017-003-N.jpg","img/neutralC/CFD-LM-216-082-N.jpg","img/neutralC/CFD-MF-309-002-N.jpg","1","1","1","1","0","0","0.395508200163022","0.472585300216451","0.445678099989891","1","1","1","1","1","1","1","1","1"
"250049","img/neutralC/CFD-MF-309-002-N.jpg","img/neutralC/CFD-WF-017-003-N.jpg","img/neutralC/CFD-MF-335-002-N.jpg","1","1","0","0","1","0","0.445678099989891","0.395508200163022","0.418391400016844","1","1","1","1","1","1","1","1","1"
"250049","img/neutralC/CFD-MF-335-002-N.jpg","img/neutralC/CFD-MF-309-002-N.jpg","img/neutralC/CFD-WM-212-097-N.jpg","0","1","1","0","0","0","0.418391400016844","0.445678099989891","0.437133200233802","1","1","1","1","1","1","1","1","1"
"250049","img/neutralC/CFD-WM-212-097-N.jpg","img/neutralC/CFD-MF-335-002-N.jpg","img/neutralC/CFD-BF-212-315-N.jpg","1","0","1","0","0","1","0.437133200233802","0.418391400016844","0.403332400135696","1","1","1","1","1","1","1","1","1"
"250049","img/neutralC/CFD-BF-212-315-N.jpg","img/neutralC/CFD-WM-212-097-N.jpg","img/neutralC/CFD-BM-251-013-N.jpg","1","1","1","1","0","1","0.403332400135696","0.437133200233802","0.378847599960864","1","1","1","1","1","1","1","1","1"
"250049","img/neutralC/CFD-BM-251-013-N.jpg","img/neutralC/CFD-BF-212-315-N.jpg","img/neutralC/CFD-MM-317-061-N.jpg","1","1","1","1","1","1","0.378847599960864","0.403332400135696","0.366728100227192","1","1","1","1","1","1","1","1","1"
"250049","img/neutralC/CFD-MM-317-061-N.jpg","img/neutralC/CFD-BM-251-013-N.jpg","img/neutralC/CFD-WM-026-001-N.jpg","1","1","1","1","1","1","0.366728100227192","0.378847599960864","0.402015100233257","1","1","1","1","1","1","1","1","1"
"250049","img/neutralC/CFD-WM-026-001-N.jpg","img/neutralC/CFD-MM-317-061-N.jpg","img/neutralC/CFD-WF-228-196-N.jpg","1","1","0","1","1","0","0.402015100233257","0.366728100227192","0.416160800028592","1","1","1","1","1","1","1","1","1"
"250049","img/neutralC/CFD-WF-228-196-N.jpg","img/neutralC/CFD-WM-026-001-N.jpg","img/neutralC/CFD-LM-243-075-N.jpg","0","1","1","0","1","0","0.416160800028592","0.402015100233257","0.451485200086608","1","1","1","1","1","1","1","1","1"
"250049","img/neutralC/CFD-LM-243-075-N.jpg","img/neutralC/CFD-WF-228-196-N.jpg","img/neutralC/CFD-BF-041-001-N.jpg","1","0","1","0","0","1","0.451485200086608","0.416160800028592","0.419903100235388","1","1","1","1","1","1","1","1","1"
"250049","img/neutralC/CFD-BF-041-001-N.jpg","img/neutralC/CFD-LM-243-075-N.jpg","img/neutralC/CFD-LM-214-165-N.jpg","1","1","1","1","0","1","0.419903100235388","0.451485200086608","0.401872500078753","1","1","1","1","1","1","1","1","1"
"250049","img/neutralC/CFD-LM-214-165-N.jpg","img/neutralC/CFD-BF-041-001-N.jpg","img/neutralC/CFD-BF-025-002-N.jpg","1","1","1","1","1","0","0.401872500078753","0.419903100235388","0.422274100128561","1","1","1","1","1","1","1","1","1"
"250049","img/neutralC/CFD-BF-025-002-N.jpg","img/neutralC/CFD-LM-214-165-N.jpg","img/neutralC/CFD-IF-642-295-N.jpg","1","1","1","0","1","1","0.422274100128561","0.401872500078753","0.435225600143895","1","1","1","1","1","1","1","1","1"
"250049","img/neutralC/CFD-IF-642-295-N.jpg","img/neutralC/CFD-BF-025-002-N.jpg",NA,"1","1",NA,"1","0",NA,"0.435225600143895","0.422274100128561",NA,"1","1",NA,"1","1",NA,"1","1",NA
"250049","img/neutralC/CFD-WF-200-099-N.jpg",NA,"img/neutralC/CFD-IM-671-601-N.jpg","1",NA,"1","0",NA,"0","0.595848599914461",NA,"0.507318600080907","1",NA,"1","1",NA,"1","1",NA,"1"
"250049","img/neutralC/CFD-IM-671-601-N.jpg","img/neutralC/CFD-WF-200-099-N.jpg","img/neutralC/CFD-IF-650-315-N.jpg","1","1","1","0","0","0","0.507318600080907","0.595848599914461","0.561586800264195","1","1","1","1","1","1","1","1","1"
"250049","img/neutralC/CFD-IF-650-315-N.jpg","img/neutralC/CFD-IM-671-601-N.jpg","img/neutralC/CFD-MF-352-054-N.jpg","1","1","1","0","0","0","0.561586800264195","0.507318600080907","0.464359200093895","1","1","1","1","1","1","1","1","1"
"250049","img/neutralC/CFD-MF-352-054-N.jpg","img/neutralC/CFD-IF-650-315-N.jpg","img/neutralC/CFD-MF-333-012-N.jpg","1","1","1","0","0","0","0.464359200093895","0.561586800264195","0.5490778000094","1","1","1","1","1","1","1","1","1"
"250049","img/neutralC/CFD-MF-333-012-N.jpg","img/neutralC/CFD-MF-352-054-N.jpg","img/neutralC/CFD-IM-645-001-N.jpg","1","1","1","0","0","0","0.5490778000094","0.464359200093895","0.488931700121611","1","1","1","1","1","1","1","1","1"
"250049","img/neutralC/CFD-IM-645-001-N.jpg","img/neutralC/CFD-MF-333-012-N.jpg","img/neutralC/CFD-WM-033-025-N.jpg","1","1","1","0","0","1","0.488931700121611","0.5490778000094","0.435024300124496","1","1","1","1","1","1","1","1","1"
"250049","img/neutralC/CFD-WM-033-025-N.jpg","img/neutralC/CFD-IM-645-001-N.jpg","img/neutralC/CFD-IM-616-214-N.jpg","1","1","1","1","0","0","0.435024300124496","0.488931700121611","0.47297630016692","1","1","1","1","1","1","1","1","1"
"250049","img/neutralC/CFD-IM-616-214-N.jpg","img/neutralC/CFD-WM-033-025-N.jpg","img/neutralC/CFD-BM-253-004-N.jpg","1","1","1","0","1","1","0.47297630016692","0.435024300124496","0.411927200155333","1","1","1","1","1","1","1","1","1"
"250049","img/neutralC/CFD-BM-253-004-N.jpg","img/neutralC/CFD-IM-616-214-N.jpg","img/neutralC/CFD-LF-218-072-N.jpg","1","1","1","1","0","0","0.411927200155333","0.47297630016692","0.522251700051129","1","1","1","1","1","1","1","1","1"
"250049","img/neutralC/CFD-LF-218-072-N.jpg","img/neutralC/CFD-BM-253-004-N.jpg","img/neutralC/CFD-AM-211-052-N.jpg","1","1","1","0","1","1","0.522251700051129","0.411927200155333","0.443277400219813","1","1","1","1","1","1","1","1","1"
"250049","img/neutralC/CFD-AM-211-052-N.jpg","img/neutralC/CFD-LF-218-072-N.jpg","img/neutralC/CFD-BF-232-187-N.jpg","1","1","1","1","0","1","0.443277400219813","0.522251700051129","0.459808200132102","1","1","1","1","1","1","1","1","1"
"250049","img/neutralC/CFD-BF-232-187-N.jpg","img/neutralC/CFD-AM-211-052-N.jpg","img/neutralC/CFD-IF-623-129-N.jpg","1","1","1","1","1","1","0.459808200132102","0.443277400219813","0.371773100225255","1","1","1","1","1","1","1","1","1"
"250049","img/neutralC/CFD-IF-623-129-N.jpg","img/neutralC/CFD-BF-232-187-N.jpg","img/neutralC/CFD-IM-743-006-N.jpg","1","1","1","1","1","1","0.371773100225255","0.459808200132102","0.412617000052705","1","1","1","1","1","1","1","1","1"
"250049","img/neutralC/CFD-IM-743-006-N.jpg","img/neutralC/CFD-IF-623-129-N.jpg","img/neutralC/CFD-LM-228-188-N.jpg","1","1","1","1","1","1","0.412617000052705","0.371773100225255","0.373234500177205","1","1","1","1","1","1","1","1","1"
"250049","img/neutralC/CFD-LM-228-188-N.jpg","img/neutralC/CFD-IM-743-006-N.jpg","img/neutralC/CFD-WF-214-122-N.jpg","1","1","1","1","1","1","0.373234500177205","0.412617000052705","0.474004600197077","1","1","1","1","1","1","1","1","1"
"250049","img/neutralC/CFD-WF-214-122-N.jpg","img/neutralC/CFD-LM-228-188-N.jpg","img/neutralC/CFD-BF-226-119-N.jpg","1","1","1","1","1","1","0.474004600197077","0.373234500177205","0.459722300060093","1","1","1","1","1","1","1","1","1"
"250049","img/neutralC/CFD-BF-226-119-N.jpg","img/neutralC/CFD-WF-214-122-N.jpg","img/neutralC/CFD-WM-020-001-N.jpg","1","1","1","1","1","1","0.459722300060093","0.474004600197077","0.414320700103417","1","1","1","1","1","1","1","1","1"
"250049","img/neutralC/CFD-WM-020-001-N.jpg","img/neutralC/CFD-BF-226-119-N.jpg","img/neutralC/CFD-BF-038-037-N.jpg","1","1","1","1","1","1","0.414320700103417","0.459722300060093","0.399063300108537","1","1","1","1","1","1","1","1","1"
"250049","img/neutralC/CFD-BF-038-037-N.jpg","img/neutralC/CFD-WM-020-001-N.jpg","img/neutralC/CFD-BM-225-154-N.jpg","1","1","1","1","1","1","0.399063300108537","0.414320700103417","0.438543500145897","1","1","1","1","1","1","1","1","1"
"250049","img/neutralC/CFD-BM-225-154-N.jpg","img/neutralC/CFD-BF-038-037-N.jpg","img/neutralC/CFD-LM-237-264-N.jpg","1","1","1","1","1","0","0.438543500145897","0.399063300108537","0.563676699995995","1","1","1","1","1","1","1","1","1"
"250049","img/neutralC/CFD-LM-237-264-N.jpg","img/neutralC/CFD-BM-225-154-N.jpg","img/neutralC/CFD-LF-220-120-N.jpg","1","1","1","0","1","1","0.563676699995995","0.438543500145897","0.439923699945211","1","1","1","1","1","1","1","1","1"
"250049","img/neutralC/CFD-LF-220-120-N.jpg","img/neutralC/CFD-LM-237-264-N.jpg","img/neutralC/CFD-IM-703-182-N.jpg","1","1","1","1","0","1","0.439923699945211","0.563676699995995","0.387265400029719","1","1","1","1","1","1","1","1","1"
"250049","img/neutralC/CFD-IM-703-182-N.jpg","img/neutralC/CFD-LF-220-120-N.jpg","img/neutralC/CFD-AM-242-176-N.jpg","1","1","1","1","1","1","0.387265400029719","0.439923699945211","0.357033500215039","1","1","1","1","1","1","1","1","1"
"250049","img/neutralC/CFD-AM-242-176-N.jpg","img/neutralC/CFD-IM-703-182-N.jpg","img/neutralC/CFD-WM-004-010-N.jpg","1","1","1","1","1","0","0.357033500215039","0.387265400029719","0.500300600193441","1","1","1","1","1","1","1","1","1"
"250049","img/neutralC/CFD-WM-004-010-N.jpg","img/neutralC/CFD-AM-242-176-N.jpg","img/neutralC/CFD-WF-036-023-N.jpg","1","1","1","0","1","0","0.500300600193441","0.357033500215039","0.484571800101548","1","1","1","1","1","1","1","1","1"
"250049","img/neutralC/CFD-WF-036-023-N.jpg","img/neutralC/CFD-WM-004-010-N.jpg","img/neutralC/CFD-WM-235-147-N.jpg","1","1","1","0","0","0","0.484571800101548","0.500300600193441","0.418128299992532","1","1","1","1","1","1","1","1","1"
"250049","img/neutralC/CFD-WM-235-147-N.jpg","img/neutralC/CFD-WF-036-023-N.jpg","img/neutralC/CFD-AM-251-124-N.jpg","1","1","1","0","0","0","0.418128299992532","0.484571800101548","0.535127800190821","1","1","1","1","1","1","1","1","1"
"250049","img/neutralC/CFD-AM-251-124-N.jpg","img/neutralC/CFD-WM-235-147-N.jpg","img/neutralC/CFD-BF-229-179-N.jpg","1","1","0","0","0","0","0.535127800190821","0.418128299992532","0.56105830008164","1","1","1","1","1","1","1","1","1"
"250049","img/neutralC/CFD-BF-229-179-N.jpg","img/neutralC/CFD-AM-251-124-N.jpg","img/neutralC/CFD-WM-219-008-N.jpg","0","1","1","0","0","0","0.56105830008164","0.535127800190821","0.431652200175449","1","1","1","1","1","1","1","1","1"
"250049","img/neutralC/CFD-WM-219-008-N.jpg","img/neutralC/CFD-BF-229-179-N.jpg","img/neutralC/CFD-MF-359-019-N.jpg","1","0","0","0","0","0","0.431652200175449","0.56105830008164","0.416996200103313","1","1","1","1","1","1","1","1","1"
"250049","img/neutralC/CFD-MF-359-019-N.jpg","img/neutralC/CFD-WM-219-008-N.jpg","img/neutralC/CFD-WF-001-003-N.jpg","0","1","1","0","0","1","0.416996200103313","0.431652200175449","0.378543400205672","1","1","1","1","1","1","1","1","1"
"250049","img/neutralC/CFD-WF-001-003-N.jpg","img/neutralC/CFD-MF-359-019-N.jpg",NA,"1","0",NA,"1","0",NA,"0.378543400205672","0.416996200103313",NA,"1","1",NA,"1","1",NA,"1","1",NA
"250049","img/neutralC/CFD-BM-013-002-N.jpg",NA,"img/neutralC/CFD-AF-239-171-N.jpg","1",NA,"1","1",NA,"1","0.468031600117683",NA,"0.387763899983838","1",NA,"1","1",NA,"1","1",NA,"1"
"250049","img/neutralC/CFD-AF-239-171-N.jpg","img/neutralC/CFD-BM-013-002-N.jpg","img/neutralC/CFD-IM-738-191-N.jpg","1","1","0","1","1","0","0.387763899983838","0.468031600117683","0.411762300180271","1","1","1","1","1","1","1","1","1"
"250049","img/neutralC/CFD-IM-738-191-N.jpg","img/neutralC/CFD-AF-239-171-N.jpg","img/neutralC/CFD-WM-254-152-N.jpg","0","1","1","0","1","1","0.411762300180271","0.387763899983838","0.423077300190926","1","1","1","1","1","1","1","1","1"
"250049","img/neutralC/CFD-WM-254-152-N.jpg","img/neutralC/CFD-IM-738-191-N.jpg","img/neutralC/CFD-BF-045-003-N.jpg","1","0","1","1","0","0","0.423077300190926","0.411762300180271","0.494268199894577","1","1","1","1","1","1","1","1","1"
"250049","img/neutralC/CFD-BF-045-003-N.jpg","img/neutralC/CFD-WM-254-152-N.jpg","img/neutralC/CFD-WF-006-002-N.jpg","1","1","0","0","1","0","0.494268199894577","0.423077300190926","0.391073999926448","1","1","1","1","1","1","1","1","1"
"250049","img/neutralC/CFD-WF-006-002-N.jpg","img/neutralC/CFD-BF-045-003-N.jpg","img/neutralC/CFD-WF-223-133-N.jpg","0","1","1","0","0","0","0.391073999926448","0.494268199894577","0.395676400046796","1","1","1","1","1","1","1","1","1"
"250049","img/neutralC/CFD-WF-223-133-N.jpg","img/neutralC/CFD-WF-006-002-N.jpg","img/neutralC/CFD-BM-003-003-N.jpg","1","0","0","0","0","0","0.395676400046796","0.391073999926448","0.36375749995932","1","1","1","1","1","1","1","1","1"
"250049","img/neutralC/CFD-BM-003-003-N.jpg","img/neutralC/CFD-WF-223-133-N.jpg","img/neutralC/CFD-BF-222-240-N.jpg","0","1","1","0","0","0","0.36375749995932","0.395676400046796","0.493924800073728","1","1","1","1","1","1","1","1","1"
"250049","img/neutralC/CFD-BF-222-240-N.jpg","img/neutralC/CFD-BM-003-003-N.jpg","img/neutralC/CFD-AF-227-207-N.jpg","1","0","1","0","0","1","0.493924800073728","0.36375749995932","0.385688900016248","1","1","1","1","1","1","1","1","1"
"250049","img/neutralC/CFD-AF-227-207-N.jpg","img/neutralC/CFD-BF-222-240-N.jpg","img/neutralC/CFD-IM-659-359-N.jpg","1","1","1","1","0","0","0.385688900016248","0.493924800073728","0.517080300254747","1","1","1","1","1","1","1","1","1"
"250049","img/neutralC/CFD-IM-659-359-N.jpg","img/neutralC/CFD-AF-227-207-N.jpg","img/neutralC/CFD-LM-238-129-N.jpg","1","1","1","0","1","1","0.517080300254747","0.385688900016248","0.374201000202447","1","1","1","1","1","1","1","1","1"
"250049","img/neutralC/CFD-LM-238-129-N.jpg","img/neutralC/CFD-IM-659-359-N.jpg","img/neutralC/CFD-LF-210-220-N.jpg","1","1","1","1","0","1","0.374201000202447","0.517080300254747","0.385403800057247","1","1","1","1","1","1","1","1","1"
"250049","img/neutralC/CFD-LF-210-220-N.jpg","img/neutralC/CFD-LM-238-129-N.jpg","img/neutralC/CFD-AF-210-050-N.jpg","1","1","1","1","1","1","0.385403800057247","0.374201000202447","0.443720100214705","1","1","1","1","1","1","1","1","1"
"250049","img/neutralC/CFD-AF-210-050-N.jpg","img/neutralC/CFD-LF-210-220-N.jpg","img/neutralC/CFD-WM-202-107-N.jpg","1","1","1","1","1","1","0.443720100214705","0.385403800057247","0.395030200015754","1","1","1","1","1","1","1","1","1"
"250049","img/neutralC/CFD-WM-202-107-N.jpg","img/neutralC/CFD-AF-210-050-N.jpg","img/neutralC/CFD-LF-208-127-N.jpg","1","1","0","1","1","0","0.395030200015754","0.443720100214705","0.393914100248367","1","1","1","1","1","1","1","1","1"
"250049","img/neutralC/CFD-LF-208-127-N.jpg","img/neutralC/CFD-WM-202-107-N.jpg","img/neutralC/CFD-LF-225-164-N.jpg","0","1","1","0","1","1","0.393914100248367","0.395030200015754","0.45651900023222","1","1","1","1","1","1","1","1","1"
"250049","img/neutralC/CFD-LF-225-164-N.jpg","img/neutralC/CFD-LF-208-127-N.jpg","img/neutralC/CFD-MF-336-016-N.jpg","1","0","1","1","0","1","0.45651900023222","0.393914100248367","0.37961950013414","1","1","1","1","1","1","1","1","1"
"250049","img/neutralC/CFD-MF-336-016-N.jpg","img/neutralC/CFD-LF-225-164-N.jpg","img/neutralC/CFD-BM-213-134-N.jpg","1","1","1","1","1","1","0.37961950013414","0.45651900023222","0.379287400050089","1","1","1","1","1","1","1","1","1"
"250049","img/neutralC/CFD-BM-213-134-N.jpg","img/neutralC/CFD-MF-336-016-N.jpg","img/neutralC/CFD-MF-312-002-N.jpg","1","1","1","1","1","1","0.379287400050089","0.37961950013414","0.448721900116652","1","1","1","1","1","1","1","1","1"
"250049","img/neutralC/CFD-MF-312-002-N.jpg","img/neutralC/CFD-BM-213-134-N.jpg","img/neutralC/CFD-AM-221-184-N.jpg","1","1","1","1","1","1","0.448721900116652","0.379287400050089","0.405307200038806","1","1","1","1","1","1","1","1","1"
"250049","img/neutralC/CFD-AM-221-184-N.jpg","img/neutralC/CFD-MF-312-002-N.jpg","img/neutralC/CFD-IF-673-389-N.jpg","1","1","1","1","1","0","0.405307200038806","0.448721900116652","0.496189899975434","1","1","1","1","1","1","1","1","1"
"250049","img/neutralC/CFD-IF-673-389-N.jpg","img/neutralC/CFD-AM-221-184-N.jpg","img/neutralC/CFD-BF-004-014-N.jpg","1","1","1","0","1","1","0.496189899975434","0.405307200038806","0.404213600093499","1","1","1","1","1","1","1","1","1"
"250049","img/neutralC/CFD-BF-004-014-N.jpg","img/neutralC/CFD-IF-673-389-N.jpg","img/neutralC/CFD-BM-028-002-N.jpg","1","1","1","1","0","1","0.404213600093499","0.496189899975434","0.358991400105879","1","1","1","1","1","1","1","1","1"
"250049","img/neutralC/CFD-BM-028-002-N.jpg","img/neutralC/CFD-BF-004-014-N.jpg","img/neutralC/CFD-WF-033-002-N.jpg","1","1","1","1","1","1","0.358991400105879","0.404213600093499","0.402815600158647","1","1","1","1","1","1","1","1","1"
"250049","img/neutralC/CFD-WF-033-002-N.jpg","img/neutralC/CFD-BM-028-002-N.jpg","img/neutralC/CFD-IM-701-312-N.jpg","1","1","1","1","1","0","0.402815600158647","0.358991400105879","0.4168198001571","1","1","1","1","1","1","1","1","1"
"250049","img/neutralC/CFD-IM-701-312-N.jpg","img/neutralC/CFD-WF-033-002-N.jpg","img/neutralC/CFD-LF-241-188-N.jpg","1","1","1","0","1","0","0.4168198001571","0.402815600158647","0.490233400138095","1","1","1","1","1","1","1","1","1"
"250049","img/neutralC/CFD-LF-241-188-N.jpg","img/neutralC/CFD-IM-701-312-N.jpg","img/neutralC/CFD-IF-744-114-N.jpg","1","1","0","0","0","0","0.490233400138095","0.4168198001571","0.376645300071687","1","1","1","1","1","1","1","1","1"
"250049","img/neutralC/CFD-IF-744-114-N.jpg","img/neutralC/CFD-LF-241-188-N.jpg","img/neutralC/CFD-LM-247-095-N.jpg","0","1","1","0","0","0","0.376645300071687","0.490233400138095","0.433726500254124","1","1","1","1","1","1","1","1","1"
"250049","img/neutralC/CFD-LM-247-095-N.jpg","img/neutralC/CFD-IF-744-114-N.jpg","img/neutralC/CFD-IF-625-225-N.jpg","1","0","1","0","0","0","0.433726500254124","0.376645300071687","0.443127700127661","1","1","1","1","1","1","1","1","1"
"250049","img/neutralC/CFD-IF-625-225-N.jpg","img/neutralC/CFD-LM-247-095-N.jpg","img/neutralC/CFD-WM-228-065-N.jpg","1","1","0","0","0","0","0.443127700127661","0.433726500254124","0.416433700127527","1","1","1","1","1","1","1","1","1"
"250049","img/neutralC/CFD-WM-228-065-N.jpg","img/neutralC/CFD-IF-625-225-N.jpg","img/neutralC/CFD-BM-010-003-N.jpg","0","1","1","0","0","0","0.416433700127527","0.443127700127661","0.449539200169966","1","1","1","1","1","1","1","1","1"
"250049","img/neutralC/CFD-BM-010-003-N.jpg","img/neutralC/CFD-WM-228-065-N.jpg",NA,"1","0",NA,"0","0",NA,"0.449539200169966","0.416433700127527",NA,"1","1",NA,"1","1",NA,"1","1",NA
"250049","img/neutralC/CFD-BF-011-002-N.jpg",NA,"img/neutralC/CFD-IF-677-452-1-N.jpg","1",NA,"1","1",NA,"1","0.467192200012505",NA,"0.435297700110823","1",NA,"1","1",NA,"1","1",NA,"1"
"250049","img/neutralC/CFD-IF-677-452-1-N.jpg","img/neutralC/CFD-BF-011-002-N.jpg","img/neutralC/CFD-BM-207-024-N.jpg","1","1","1","1","1","1","0.435297700110823","0.467192200012505","0.343264000257477","1","1","1","1","1","1","1","1","1"
"250049","img/neutralC/CFD-BM-207-024-N.jpg","img/neutralC/CFD-IF-677-452-1-N.jpg","img/neutralC/CFD-WF-233-112-N.jpg","1","1","1","1","1","1","0.343264000257477","0.435297700110823","0.386863600229845","1","1","1","1","1","1","1","1","1"
"250049","img/neutralC/CFD-WF-233-112-N.jpg","img/neutralC/CFD-BM-207-024-N.jpg","img/neutralC/CFD-BF-207-004-N.jpg","1","1","1","1","1","1","0.386863600229845","0.343264000257477","0.367000000085682","1","1","1","1","1","1","1","1","1"
"250049","img/neutralC/CFD-BF-207-004-N.jpg","img/neutralC/CFD-WF-233-112-N.jpg","img/neutralC/CFD-IF-729-393-N.jpg","1","1","1","1","1","0","0.367000000085682","0.386863600229845","0.531777000054717","1","1","1","1","1","1","1","1","1"
"250049","img/neutralC/CFD-IF-729-393-N.jpg","img/neutralC/CFD-BF-207-004-N.jpg","img/neutralC/CFD-IM-721-341-N.jpg","1","1","1","0","1","1","0.531777000054717","0.367000000085682","0.397385400254279","1","1","1","1","1","1","1","1","1"
"250049","img/neutralC/CFD-IM-721-341-N.jpg","img/neutralC/CFD-IF-729-393-N.jpg","img/neutralC/CFD-IM-726-248-N.jpg","1","1","1","1","0","0","0.397385400254279","0.531777000054717","0.556187800131738","1","1","1","1","1","1","1","1","1"
"250049","img/neutralC/CFD-IM-726-248-N.jpg","img/neutralC/CFD-IM-721-341-N.jpg","img/neutralC/CFD-BF-214-308-N.jpg","1","1","1","0","1","1","0.556187800131738","0.397385400254279","0.469261200167239","1","1","1","1","1","1","1","1","1"
"250049","img/neutralC/CFD-BF-214-308-N.jpg","img/neutralC/CFD-IM-726-248-N.jpg","img/neutralC/CFD-WF-234-086-N.jpg","1","1","1","1","0","1","0.469261200167239","0.556187800131738","0.40717690018937","1","1","1","1","1","1","1","1","1"
"250049","img/neutralC/CFD-WF-234-086-N.jpg","img/neutralC/CFD-BF-214-308-N.jpg","img/neutralC/CFD-BM-241-235-N.jpg","1","1","1","1","1","0","0.40717690018937","0.469261200167239","0.453922000015154","1","1","1","1","1","1","1","1","1"
"250049","img/neutralC/CFD-BM-241-235-N.jpg","img/neutralC/CFD-WF-234-086-N.jpg","img/neutralC/CFD-BF-044-034-N.jpg","1","1","1","0","1","0","0.453922000015154","0.40717690018937","0.405695300316438","1","1","1","1","1","1","1","1","1"
"250049","img/neutralC/CFD-BF-044-034-N.jpg","img/neutralC/CFD-BM-241-235-N.jpg","img/neutralC/CFD-BM-238-242-N.jpg","1","1","1","0","0","0","0.405695300316438","0.453922000015154","0.448963900096714","1","1","1","1","1","1","1","1","1"
"250049","img/neutralC/CFD-BM-238-242-N.jpg","img/neutralC/CFD-BF-044-034-N.jpg","img/neutralC/CFD-MF-301-024-N.jpg","1","1","1","0","0","0","0.448963900096714","0.405695300316438","0.491132100112736","1","1","1","1","1","1","1","1","1"
"250049","img/neutralC/CFD-MF-301-024-N.jpg","img/neutralC/CFD-BM-238-242-N.jpg","img/neutralC/CFD-BF-002-001-N.jpg","1","1","0","0","0","0","0.491132100112736","0.448963900096714","0.41443040012382","1","1","1","1","1","1","1","1","1"
"250049","img/neutralC/CFD-BF-002-001-N.jpg","img/neutralC/CFD-MF-301-024-N.jpg","img/neutralC/CFD-WF-029-002-N.jpg","0","1","1","0","0","0","0.41443040012382","0.491132100112736","0.564455500105396","1","1","1","1","1","1","1","1","1"
"250049","img/neutralC/CFD-WF-029-002-N.jpg","img/neutralC/CFD-BF-002-001-N.jpg","img/neutralC/CFD-WF-208-068-N.jpg","1","0","1","0","0","1","0.564455500105396","0.41443040012382","0.645314000081271","1","1","1","1","1","1","1","1","1"
"250049","img/neutralC/CFD-WF-208-068-N.jpg","img/neutralC/CFD-WF-029-002-N.jpg","img/neutralC/CFD-BM-036-003-N.jpg","1","1","1","1","0","1","0.645314000081271","0.564455500105396","0.379449000116438","1","1","1","1","1","1","1","1","1"
"250049","img/neutralC/CFD-BM-036-003-N.jpg","img/neutralC/CFD-WF-208-068-N.jpg","img/neutralC/CFD-BF-247-179-N.jpg","1","1","1","1","1","0","0.379449000116438","0.645314000081271","0.596217999933288","1","1","1","1","1","1","1","1","1"
"250049","img/neutralC/CFD-BF-247-179-N.jpg","img/neutralC/CFD-BM-036-003-N.jpg","img/neutralC/CFD-IF-742-103-N.jpg","1","1","1","0","1","1","0.596217999933288","0.379449000116438","0.417465400183573","1","1","1","1","1","1","1","1","1"
"250049","img/neutralC/CFD-IF-742-103-N.jpg","img/neutralC/CFD-BF-247-179-N.jpg","img/neutralC/CFD-BF-036-027-N.jpg","1","1","1","1","0","0","0.417465400183573","0.596217999933288","0.49757600016892","1","1","1","1","1","1","1","1","1"
"250049","img/neutralC/CFD-BF-036-027-N.jpg","img/neutralC/CFD-IF-742-103-N.jpg","img/neutralC/CFD-WM-248-036-N.jpg","1","1","1","0","1","1","0.49757600016892","0.417465400183573","0.380952600156888","1","1","1","1","1","1","1","1","1"
"250049","img/neutralC/CFD-WM-248-036-N.jpg","img/neutralC/CFD-BF-036-027-N.jpg","img/neutralC/CFD-BF-027-002-N.jpg","1","1","1","1","0","1","0.380952600156888","0.49757600016892","0.399387300247326","1","1","1","1","1","1","1","1","1"
"250049","img/neutralC/CFD-BF-027-002-N.jpg","img/neutralC/CFD-WM-248-036-N.jpg","img/neutralC/CFD-LM-213-061-N.jpg","1","1","1","1","1","0","0.399387300247326","0.380952600156888","0.405446200165898","1","1","1","1","1","1","1","1","1"
"250049","img/neutralC/CFD-LM-213-061-N.jpg","img/neutralC/CFD-BF-027-002-N.jpg","img/neutralC/CFD-WM-014-002-N.jpg","1","1","1","0","1","0","0.405446200165898","0.399387300247326","0.406970200128853","1","1","1","1","1","1","1","1","1"
"250049","img/neutralC/CFD-WM-014-002-N.jpg","img/neutralC/CFD-LM-213-061-N.jpg","img/neutralC/CFD-IM-696-001-N.jpg","1","1","1","0","0","0","0.406970200128853","0.405446200165898","0.451558300061151","1","1","1","1","1","1","1","1","1"
"250049","img/neutralC/CFD-IM-696-001-N.jpg","img/neutralC/CFD-WM-014-002-N.jpg","img/neutralC/CFD-IM-707-105-N.jpg","1","1","1","0","0","1","0.451558300061151","0.406970200128853","0.465646200114861","1","1","1","1","1","1","1","1","1"
"250049","img/neutralC/CFD-IM-707-105-N.jpg","img/neutralC/CFD-IM-696-001-N.jpg","img/neutralC/CFD-AM-230-150-N.jpg","1","1","1","1","0","0","0.465646200114861","0.451558300061151","0.536132300272584","1","1","1","1","1","1","1","1","1"
"250049","img/neutralC/CFD-AM-230-150-N.jpg","img/neutralC/CFD-IM-707-105-N.jpg","img/neutralC/CFD-LF-204-133-N.jpg","1","1","1","0","1","1","0.536132300272584","0.465646200114861","0.40976050007157","1","1","1","1","1","1","1","1","1"
"250049","img/neutralC/CFD-LF-204-133-N.jpg","img/neutralC/CFD-AM-230-150-N.jpg","img/neutralC/CFD-WM-034-030-N.jpg","1","1","1","1","0","1","0.40976050007157","0.536132300272584","0.41782690002583","1","1","1","1","1","1","1","1","1"
"250049","img/neutralC/CFD-WM-034-030-N.jpg","img/neutralC/CFD-LF-204-133-N.jpg","img/neutralC/CFD-BF-006-017-N.jpg","1","1","0","1","1","0","0.41782690002583","0.40976050007157","0.429028999991715","1","1","1","1","1","1","1","1","1"
"250049","img/neutralC/CFD-BF-006-017-N.jpg","img/neutralC/CFD-WM-034-030-N.jpg","img/neutralC/CFD-BF-236-177-N.jpg","0","1","1","0","1","0","0.429028999991715","0.41782690002583","0.47949430020526","1","1","1","1","1","1","1","1","1"
"250049","img/neutralC/CFD-BF-236-177-N.jpg","img/neutralC/CFD-BF-006-017-N.jpg",NA,"1","0",NA,"0","0",NA,"0.47949430020526","0.429028999991715",NA,"1","1",NA,"1","1",NA,"1","1",NA
"250049","img/neutralC/CFD-BF-028-001-N.jpg",NA,"img/neutralC/CFD-BF-003-003-N.jpg","1",NA,"1","1",NA,"0","0.466536400141194",NA,"0.450982700102031","1",NA,"1","1",NA,"1","1",NA,"1"
"250049","img/neutralC/CFD-BF-003-003-N.jpg","img/neutralC/CFD-BF-028-001-N.jpg","img/neutralC/CFD-LF-236-221-N.jpg","1","1","1","0","1","1","0.450982700102031","0.466536400141194","0.35571700008586","1","1","1","1","1","1","1","1","1"
"250049","img/neutralC/CFD-LF-236-221-N.jpg","img/neutralC/CFD-BF-003-003-N.jpg","img/neutralC/CFD-MM-319-052-N.jpg","1","1","1","1","0","1","0.35571700008586","0.450982700102031","0.330668600043282","1","1","1","1","1","1","1","1","1"
"250049","img/neutralC/CFD-MM-319-052-N.jpg","img/neutralC/CFD-LF-236-221-N.jpg","img/neutralC/CFD-WM-225-127-N.jpg","1","1","1","1","1","0","0.330668600043282","0.35571700008586","0.450853300048038","1","1","1","1","1","1","1","1","1"
"250049","img/neutralC/CFD-WM-225-127-N.jpg","img/neutralC/CFD-MM-319-052-N.jpg","img/neutralC/CFD-LM-252-076-N.jpg","1","1","0","0","1","1","0.450853300048038","0.330668600043282","0.428092000074685","1","1","1","1","1","1","1","1","1"
"250049","img/neutralC/CFD-LM-252-076-N.jpg","img/neutralC/CFD-WM-225-127-N.jpg","img/neutralC/CFD-BM-029-024-N.jpg","0","1","1","1","0","1","0.428092000074685","0.450853300048038","0.378820500103757","1","1","1","1","1","1","1","1","1"
"250049","img/neutralC/CFD-BM-029-024-N.jpg","img/neutralC/CFD-LM-252-076-N.jpg","img/neutralC/CFD-BM-211-174-N.jpg","1","0","1","1","1","0","0.378820500103757","0.428092000074685","0.655433300184086","1","1","1","1","1","1","1","1","1"
"250049","img/neutralC/CFD-BM-211-174-N.jpg","img/neutralC/CFD-BM-029-024-N.jpg","img/neutralC/CFD-WF-002-004-N.jpg","1","1","1","0","1","0","0.655433300184086","0.378820500103757","0.437570699956268","1","1","1","1","1","1","1","1","1"
"250049","img/neutralC/CFD-WF-002-004-N.jpg","img/neutralC/CFD-BM-211-174-N.jpg","img/neutralC/CFD-IF-672-305-N.jpg","1","1","1","0","0","0","0.437570699956268","0.655433300184086","0.336802700068802","1","1","1","1","1","1","1","1","1"
"250049","img/neutralC/CFD-IF-672-305-N.jpg","img/neutralC/CFD-WF-002-004-N.jpg","img/neutralC/CFD-BM-015-015-N.jpg","1","1","1","0","0","0","0.336802700068802","0.437570699956268","0.512264600023627","1","1","1","1","1","1","1","1","1"
"250049","img/neutralC/CFD-BM-015-015-N.jpg","img/neutralC/CFD-IF-672-305-N.jpg","img/neutralC/CFD-AM-215-120-N.jpg","1","1","1","0","0","1","0.512264600023627","0.336802700068802","0.358270900091156","1","1","1","1","1","1","1","1","1"
"250049","img/neutralC/CFD-AM-215-120-N.jpg","img/neutralC/CFD-BM-015-015-N.jpg","img/neutralC/CFD-BM-247-240-N.jpg","1","1","1","1","0","0","0.358270900091156","0.512264600023627","0.454503900138661","1","1","1","1","1","1","1","1","1"
"250049","img/neutralC/CFD-BM-247-240-N.jpg","img/neutralC/CFD-AM-215-120-N.jpg","img/neutralC/CFD-WF-026-002-N.jpg","1","1","1","0","1","1","0.454503900138661","0.358270900091156","0.591892699943855","1","1","1","1","1","1","1","1","1"
"250049","img/neutralC/CFD-WF-026-002-N.jpg","img/neutralC/CFD-BM-247-240-N.jpg","img/neutralC/CFD-IM-639-263-N.jpg","1","1","1","1","0","1","0.591892699943855","0.454503900138661","0.391081700101495","1","1","1","1","1","1","1","1","1"
"250049","img/neutralC/CFD-IM-639-263-N.jpg","img/neutralC/CFD-WF-026-002-N.jpg","img/neutralC/CFD-AM-235-241-N.jpg","1","1","1","1","1","0","0.391081700101495","0.591892699943855","0.484649700112641","1","1","1","1","1","1","1","1","1"
"250049","img/neutralC/CFD-AM-235-241-N.jpg","img/neutralC/CFD-IM-639-263-N.jpg","img/neutralC/CFD-WM-040-022-N.jpg","1","1","1","0","1","0","0.484649700112641","0.391081700101495","0.464427700266242","1","1","1","1","1","1","1","1","1"
"250049","img/neutralC/CFD-WM-040-022-N.jpg","img/neutralC/CFD-AM-235-241-N.jpg","img/neutralC/CFD-WM-038-003-N.jpg","1","1","0","0","0","0","0.464427700266242","0.484649700112641","0.434619900071994","1","1","1","1","1","1","1","1","1"
"250049","img/neutralC/CFD-WM-038-003-N.jpg","img/neutralC/CFD-WM-040-022-N.jpg","img/neutralC/CFD-AM-217-085-N.jpg","0","1","1","0","0","0","0.434619900071994","0.464427700266242","0.583253200165927","1","1","1","1","1","1","1","1","1"
"250049","img/neutralC/CFD-AM-217-085-N.jpg","img/neutralC/CFD-WM-038-003-N.jpg","img/neutralC/CFD-WM-257-161-N.jpg","1","0","1","0","0","1","0.583253200165927","0.434619900071994","0.399836800061166","1","1","1","1","1","1","1","1","1"
"250049","img/neutralC/CFD-WM-257-161-N.jpg","img/neutralC/CFD-AM-217-085-N.jpg","img/neutralC/CFD-WM-002-009-N.jpg","1","1","0","1","0","0","0.399836800061166","0.583253200165927","0.359701900044456","1","1","1","1","1","1","1","1","1"
"250049","img/neutralC/CFD-WM-002-009-N.jpg","img/neutralC/CFD-WM-257-161-N.jpg","img/neutralC/CFD-WF-022-017-N.jpg","0","1","1","0","1","0","0.359701900044456","0.399836800061166","0.45140240015462","1","1","1","1","1","1","1","1","1"
"250049","img/neutralC/CFD-WF-022-017-N.jpg","img/neutralC/CFD-WM-002-009-N.jpg","img/neutralC/CFD-LF-216-121-N.jpg","1","0","1","0","0","1","0.45140240015462","0.359701900044456","0.37443960015662","1","1","1","1","1","1","1","1","1"
"250049","img/neutralC/CFD-LF-216-121-N.jpg","img/neutralC/CFD-WF-022-017-N.jpg","img/neutralC/CFD-BF-208-266-N.jpg","1","1","1","1","0","0","0.37443960015662","0.45140240015462","0.531583100091666","1","1","1","1","1","1","1","1","1"
"250049","img/neutralC/CFD-BF-208-266-N.jpg","img/neutralC/CFD-LF-216-121-N.jpg","img/neutralC/CFD-BF-204-189-N.jpg","1","1","1","0","1","1","0.531583100091666","0.37443960015662","0.44391220016405","1","1","1","1","1","1","1","1","1"
"250049","img/neutralC/CFD-BF-204-189-N.jpg","img/neutralC/CFD-BF-208-266-N.jpg","img/neutralC/CFD-IM-728-041-N.jpg","1","1","1","1","0","0","0.44391220016405","0.531583100091666","0.505915699992329","1","1","1","1","1","1","1","1","1"
"250049","img/neutralC/CFD-IM-728-041-N.jpg","img/neutralC/CFD-BF-204-189-N.jpg","img/neutralC/CFD-BF-255-140-N.jpg","1","1","1","0","1","1","0.505915699992329","0.44391220016405","0.380637800088152","1","1","1","1","1","1","1","1","1"
"250049","img/neutralC/CFD-BF-255-140-N.jpg","img/neutralC/CFD-IM-728-041-N.jpg","img/neutralC/CFD-IF-718-001-N.jpg","1","1","1","1","0","1","0.380637800088152","0.505915699992329","0.367038100259379","1","1","1","1","1","1","1","1","1"
"250049","img/neutralC/CFD-IF-718-001-N.jpg","img/neutralC/CFD-BF-255-140-N.jpg","img/neutralC/CFD-IM-674-281-N.jpg","1","1","1","1","1","1","0.367038100259379","0.380637800088152","0.36881890008226","1","1","1","1","1","1","1","1","1"
"250049","img/neutralC/CFD-IM-674-281-N.jpg","img/neutralC/CFD-IF-718-001-N.jpg","img/neutralC/CFD-BF-201-080-N.jpg","1","1","1","1","1","1","0.36881890008226","0.367038100259379","0.375929500209168","1","1","1","1","1","1","1","1","1"
"250049","img/neutralC/CFD-BF-201-080-N.jpg","img/neutralC/CFD-IM-674-281-N.jpg","img/neutralC/CFD-BM-027-001-N.jpg","1","1","1","1","1","0","0.375929500209168","0.36881890008226","0.397800300037488","1","1","1","1","1","1","1","1","1"
"250049","img/neutralC/CFD-BM-027-001-N.jpg","img/neutralC/CFD-BF-201-080-N.jpg","img/neutralC/CFD-BF-023-010-N.jpg","1","1","1","0","1","1","0.397800300037488","0.375929500209168","0.432770600076765","1","1","1","1","1","1","1","1","1"
"250049","img/neutralC/CFD-BF-023-010-N.jpg","img/neutralC/CFD-BM-027-001-N.jpg",NA,"1","1",NA,"1","0",NA,"0.432770600076765","0.397800300037488",NA,"1","1",NA,"1","1",NA,"1","1",NA
"250049","img/neutralC/CFD-AF-205-155-N.jpg",NA,"img/neutralC/CFD-WF-235-121-N.jpg","0",NA,"1","0",NA,"0","0.41051850002259",NA,"0.443437600042671","1",NA,"1","1",NA,"1","1",NA,"1"
"250049","img/neutralC/CFD-WF-235-121-N.jpg","img/neutralC/CFD-AF-205-155-N.jpg","img/neutralC/CFD-IM-632-097-N.jpg","1","0","1","0","0","0","0.443437600042671","0.41051850002259","0.376677000196651","1","1","1","1","1","1","1","1","1"
"250049","img/neutralC/CFD-IM-632-097-N.jpg","img/neutralC/CFD-WF-235-121-N.jpg","img/neutralC/CFD-MF-307-002-N.jpg","1","1","1","0","0","1","0.376677000196651","0.443437600042671","0.317852500127628","1","1","1","1","1","1","1","1","1"
"250049","img/neutralC/CFD-MF-307-002-N.jpg","img/neutralC/CFD-IM-632-097-N.jpg","img/neutralC/CFD-AF-244-168-N.jpg","1","1","0","1","0","0","0.317852500127628","0.376677000196651","0.405590699985623","1","1","1","1","1","1","1","1","1"
"250049","img/neutralC/CFD-AF-244-168-N.jpg","img/neutralC/CFD-MF-307-002-N.jpg","img/neutralC/CFD-BM-215-155-N.jpg","0","1","1","0","1","0","0.405590699985623","0.317852500127628","0.449096500175074","1","1","1","1","1","1","1","1","1"
"250049","img/neutralC/CFD-BM-215-155-N.jpg","img/neutralC/CFD-AF-244-168-N.jpg","img/neutralC/CFD-BF-217-189-N.jpg","1","0","1","0","0","0","0.449096500175074","0.405590699985623","0.448644400108606","1","1","1","1","1","1","1","1","1"
"250049","img/neutralC/CFD-BF-217-189-N.jpg","img/neutralC/CFD-BM-215-155-N.jpg","img/neutralC/CFD-IF-732-260-N.jpg","1","1","1","0","0","0","0.448644400108606","0.449096500175074","0.395511400187388","1","1","1","1","1","1","1","1","1"
"250049","img/neutralC/CFD-IF-732-260-N.jpg","img/neutralC/CFD-BF-217-189-N.jpg","img/neutralC/CFD-AF-250-200-N.jpg","1","1","1","0","0","1","0.395511400187388","0.448644400108606","0.370244800113142","1","1","1","1","1","1","1","1","1"
"250049","img/neutralC/CFD-AF-250-200-N.jpg","img/neutralC/CFD-IF-732-260-N.jpg","img/neutralC/CFD-IM-678-482-N.jpg","1","1","1","1","0","0","0.370244800113142","0.395511400187388","0.384399900212884","1","1","1","1","1","1","1","1","1"
"250049","img/neutralC/CFD-IM-678-482-N.jpg","img/neutralC/CFD-AF-250-200-N.jpg","img/neutralC/CFD-AM-225-102-N.jpg","1","1","0","0","1","0","0.384399900212884","0.370244800113142","0.369237500010058","1","1","1","1","1","1","1","1","1"
"250049","img/neutralC/CFD-AM-225-102-N.jpg","img/neutralC/CFD-IM-678-482-N.jpg","img/neutralC/CFD-LM-204-001-N.jpg","0","1","1","0","0","0","0.369237500010058","0.384399900212884","0.50497840018943","1","1","1","1","1","1","1","1","1"
"250049","img/neutralC/CFD-LM-204-001-N.jpg","img/neutralC/CFD-AM-225-102-N.jpg","img/neutralC/CFD-BF-040-003-N.jpg","1","0","1","0","0","1","0.50497840018943","0.369237500010058","0.363034900277853","1","1","1","1","1","1","1","1","1"
"250049","img/neutralC/CFD-BF-040-003-N.jpg","img/neutralC/CFD-LM-204-001-N.jpg","img/neutralC/CFD-WF-210-086-N.jpg","1","1","1","1","0","0","0.363034900277853","0.50497840018943","0.513428500154987","1","1","1","1","1","1","1","1","1"
"250049","img/neutralC/CFD-WF-210-086-N.jpg","img/neutralC/CFD-BF-040-003-N.jpg","img/neutralC/CFD-IM-635-010-N.jpg","1","1","1","0","1","1","0.513428500154987","0.363034900277853","0.323810799978673","1","1","1","1","1","1","1","1","1"
"250049","img/neutralC/CFD-IM-635-010-N.jpg","img/neutralC/CFD-WF-210-086-N.jpg","img/neutralC/CFD-IF-636-011-N.jpg","1","1","1","1","0","1","0.323810799978673","0.513428500154987","0.37987930001691","1","1","1","1","1","1","1","1","1"
"250049","img/neutralC/CFD-IF-636-011-N.jpg","img/neutralC/CFD-IM-635-010-N.jpg","img/neutralC/CFD-AF-234-208-N.jpg","1","1","1","1","1","1","0.37987930001691","0.323810799978673","0.446382800117135","1","1","1","1","1","1","1","1","1"
"250049","img/neutralC/CFD-AF-234-208-N.jpg","img/neutralC/CFD-IF-636-011-N.jpg","img/neutralC/CFD-BF-020-002-N.jpg","1","1","1","1","1","1","0.446382800117135","0.37987930001691","0.40253289998509","1","1","1","1","1","1","1","1","1"
"250049","img/neutralC/CFD-BF-020-002-N.jpg","img/neutralC/CFD-AF-234-208-N.jpg","img/neutralC/CFD-BM-004-002-N.jpg","1","1","0","1","1","0","0.40253289998509","0.446382800117135","0.442476600175723","1","1","1","1","1","1","1","1","1"
"250049","img/neutralC/CFD-BM-004-002-N.jpg","img/neutralC/CFD-BF-020-002-N.jpg","img/neutralC/CFD-AF-213-126-N.jpg","0","1","1","0","1","1","0.442476600175723","0.40253289998509","0.409251100150868","1","1","1","1","1","1","1","1","1"
"250049","img/neutralC/CFD-AF-213-126-N.jpg","img/neutralC/CFD-BM-004-002-N.jpg","img/neutralC/CFD-WM-018-002-N.jpg","1","0","1","1","0","0","0.409251100150868","0.442476600175723","0.445617600111291","1","1","1","1","1","1","1","1","1"
"250049","img/neutralC/CFD-WM-018-002-N.jpg","img/neutralC/CFD-AF-213-126-N.jpg","img/neutralC/CFD-WM-253-119-N.jpg","1","1","1","0","1","1","0.445617600111291","0.409251100150868","0.496969000203535","1","1","1","1","1","1","1","1","1"
"250049","img/neutralC/CFD-WM-253-119-N.jpg","img/neutralC/CFD-WM-018-002-N.jpg","img/neutralC/CFD-MF-302-027-N.jpg","1","1","1","1","0","0","0.496969000203535","0.445617600111291","0.373353600036353","1","1","1","1","1","1","1","1","1"
"250049","img/neutralC/CFD-MF-302-027-N.jpg","img/neutralC/CFD-WM-253-119-N.jpg","img/neutralC/CFD-IM-669-111-N.jpg","1","1","1","0","1","1","0.373353600036353","0.496969000203535","0.386966300196946","1","1","1","1","1","1","1","1","1"
"250049","img/neutralC/CFD-IM-669-111-N.jpg","img/neutralC/CFD-MF-302-027-N.jpg","img/neutralC/CFD-BF-235-168-N.jpg","1","1","1","1","0","1","0.386966300196946","0.373353600036353","0.381973600015044","1","1","1","1","1","1","1","1","1"
"250049","img/neutralC/CFD-BF-235-168-N.jpg","img/neutralC/CFD-IM-669-111-N.jpg","img/neutralC/CFD-LM-241-125-N.jpg","1","1","1","1","1","1","0.381973600015044","0.386966300196946","0.423981600208208","1","1","1","1","1","1","1","1","1"
"250049","img/neutralC/CFD-LM-241-125-N.jpg","img/neutralC/CFD-BF-235-168-N.jpg","img/neutralC/CFD-AF-246-242-N.jpg","1","1","1","1","1","0","0.423981600208208","0.381973600015044","0.511036700103432","1","1","1","1","1","1","1","1","1"
"250049","img/neutralC/CFD-AF-246-242-N.jpg","img/neutralC/CFD-LM-241-125-N.jpg","img/neutralC/CFD-AM-233-236-N.jpg","1","1","1","0","1","1","0.511036700103432","0.423981600208208","0.3530197001528","1","1","1","1","1","1","1","1","1"
"250049","img/neutralC/CFD-AM-233-236-N.jpg","img/neutralC/CFD-AF-246-242-N.jpg","img/neutralC/CFD-BF-206-143-N.jpg","1","1","1","1","0","1","0.3530197001528","0.511036700103432","0.382320400094613","1","1","1","1","1","1","1","1","1"
"250049","img/neutralC/CFD-BF-206-143-N.jpg","img/neutralC/CFD-AM-233-236-N.jpg","img/neutralC/CFD-AM-245-111-N.jpg","1","1","1","1","1","1","0.382320400094613","0.3530197001528","0.379934700205922","1","1","1","1","1","1","1","1","1"
"250049","img/neutralC/CFD-AM-245-111-N.jpg","img/neutralC/CFD-BF-206-143-N.jpg","img/neutralC/CFD-LF-239-148-N.jpg","1","1","1","1","1","0","0.379934700205922","0.382320400094613","0.516789300134405","1","1","1","1","1","1","1","1","1"
"250049","img/neutralC/CFD-LF-239-148-N.jpg","img/neutralC/CFD-AM-245-111-N.jpg","img/neutralC/CFD-BF-042-026-N.jpg","1","1","1","0","1","1","0.516789300134405","0.379934700205922","0.345729500288144","1","1","1","1","1","1","1","1","1"
"250049","img/neutralC/CFD-BF-042-026-N.jpg","img/neutralC/CFD-LF-239-148-N.jpg",NA,"1","1",NA,"1","0",NA,"0.345729500288144","0.516789300134405",NA,"1","1",NA,"1","1",NA,"1","1",NA
"250049","img/neutralC/CFD-IF-626-375-N.jpg",NA,"img/neutralC/CFD-MF-343-001-N.jpg","1",NA,"1","0",NA,"1","0.696519100107253",NA,"0.376422900008038","1",NA,"1","1",NA,"1","1",NA,"1"
"250049","img/neutralC/CFD-MF-343-001-N.jpg","img/neutralC/CFD-IF-626-375-N.jpg","img/neutralC/CFD-MF-357-002-N.jpg","1","1","0","1","0","0","0.376422900008038","0.696519100107253","0.395154900150374","1","1","1","1","1","1","1","1","1"
"250049","img/neutralC/CFD-MF-357-002-N.jpg","img/neutralC/CFD-MF-343-001-N.jpg","img/neutralC/CFD-WF-244-163-N.jpg","0","1","0","0","1","1","0.395154900150374","0.376422900008038","0.488976900000125","1","1","1","1","1","1","1","1","1"
"250049","img/neutralC/CFD-WF-244-163-N.jpg","img/neutralC/CFD-MF-357-002-N.jpg","img/neutralC/CFD-WF-222-092-N.jpg","0","0","1","1","0","1","0.488976900000125","0.395154900150374","0.415516700129956","1","1","1","1","1","1","1","1","1"
"250049","img/neutralC/CFD-WF-222-092-N.jpg","img/neutralC/CFD-WF-244-163-N.jpg","img/neutralC/CFD-IM-667-369-N.jpg","1","0","1","1","1","0","0.415516700129956","0.488976900000125","0.469557600095868","1","1","1","1","1","1","1","1","1"
"250049","img/neutralC/CFD-IM-667-369-N.jpg","img/neutralC/CFD-WF-222-092-N.jpg","img/neutralC/CFD-LM-200-045-N.jpg","1","1","1","0","1","1","0.469557600095868","0.415516700129956","0.41377090010792","1","1","1","1","1","1","1","1","1"
"250049","img/neutralC/CFD-LM-200-045-N.jpg","img/neutralC/CFD-IM-667-369-N.jpg","img/neutralC/CFD-BF-014-002-N.jpg","1","1","1","1","0","1","0.41377090010792","0.469557600095868","0.412538300268352","1","1","1","1","1","1","1","1","1"
"250049","img/neutralC/CFD-BF-014-002-N.jpg","img/neutralC/CFD-LM-200-045-N.jpg","img/neutralC/CFD-WM-209-038-N.jpg","1","1","1","1","1","0","0.412538300268352","0.41377090010792","0.408427400048822","1","1","1","1","1","1","1","1","1"
"250049","img/neutralC/CFD-WM-209-038-N.jpg","img/neutralC/CFD-BF-014-002-N.jpg","img/neutralC/CFD-BM-001-014-N.jpg","1","1","1","0","1","0","0.408427400048822","0.412538300268352","0.406338300090283","1","1","1","1","1","1","1","1","1"
"250049","img/neutralC/CFD-BM-001-014-N.jpg","img/neutralC/CFD-WM-209-038-N.jpg","img/neutralC/CFD-AM-220-134-N.jpg","1","1","0","0","0","0","0.406338300090283","0.408427400048822","0.465800800127909","1","1","1","1","1","1","1","1","1"
"250049","img/neutralC/CFD-AM-220-134-N.jpg","img/neutralC/CFD-BM-001-014-N.jpg","img/neutralC/CFD-BM-250-170-N.jpg","0","1","1","0","0","1","0.465800800127909","0.406338300090283","0.432999100070447","1","1","1","1","1","1","1","1","1"
"250049","img/neutralC/CFD-BM-250-170-N.jpg","img/neutralC/CFD-AM-220-134-N.jpg","img/neutralC/CFD-IF-660-464-N.jpg","1","0","0","1","0","0","0.432999100070447","0.465800800127909","0.421556700253859","1","1","1","1","1","1","1","1","1"
"250049","img/neutralC/CFD-IF-660-464-N.jpg","img/neutralC/CFD-BM-250-170-N.jpg","img/neutralC/CFD-BF-237-172-N.jpg","0","1","1","0","1","1","0.421556700253859","0.432999100070447","0.476282900199294","1","1","1","1","1","1","1","1","1"
"250049","img/neutralC/CFD-BF-237-172-N.jpg","img/neutralC/CFD-IF-660-464-N.jpg","img/neutralC/CFD-BM-217-082-N.jpg","1","0","1","1","0","0","0.476282900199294","0.421556700253859","0.477041400037706","1","1","1","1","1","1","1","1","1"
"250049","img/neutralC/CFD-BM-217-082-N.jpg","img/neutralC/CFD-BF-237-172-N.jpg","img/neutralC/CFD-IM-664-651-N.jpg","1","1","1","0","1","1","0.477041400037706","0.476282900199294","0.440880300011486","1","1","1","1","1","1","1","1","1"
"250049","img/neutralC/CFD-IM-664-651-N.jpg","img/neutralC/CFD-BM-217-082-N.jpg","img/neutralC/CFD-LF-206-078-N.jpg","1","1","1","1","0","1","0.440880300011486","0.477041400037706","0.432433900190517","1","1","1","1","1","1","1","1","1"
"250049","img/neutralC/CFD-LF-206-078-N.jpg","img/neutralC/CFD-IM-664-651-N.jpg","img/neutralC/CFD-IM-680-369-N.jpg","1","1","1","1","1","1","0.432433900190517","0.440880300011486","0.388484400231391","1","1","1","1","1","1","1","1","1"
"250049","img/neutralC/CFD-IM-680-369-N.jpg","img/neutralC/CFD-LF-206-078-N.jpg","img/neutralC/CFD-WF-030-002-N.jpg","1","1","1","1","1","0","0.388484400231391","0.432433900190517","0.44773570005782","1","1","1","1","1","1","1","1","1"
"250049","img/neutralC/CFD-WF-030-002-N.jpg","img/neutralC/CFD-IM-680-369-N.jpg","img/neutralC/CFD-WM-015-002-N.jpg","1","1","1","0","1","0","0.44773570005782","0.388484400231391","0.474360400112346","1","1","1","1","1","1","1","1","1"
"250049","img/neutralC/CFD-WM-015-002-N.jpg","img/neutralC/CFD-WF-030-002-N.jpg","img/neutralC/CFD-WM-218-074-N.jpg","1","1","1","0","0","1","0.474360400112346","0.44773570005782","0.422202600166202","1","1","1","1","1","1","1","1","1"
"250049","img/neutralC/CFD-WM-218-074-N.jpg","img/neutralC/CFD-WM-015-002-N.jpg","img/neutralC/CFD-MF-303-013-N.jpg","1","1","1","1","0","0","0.422202600166202","0.474360400112346","0.48999850009568","1","1","1","1","1","1","1","1","1"
"250049","img/neutralC/CFD-MF-303-013-N.jpg","img/neutralC/CFD-WM-218-074-N.jpg","img/neutralC/CFD-AF-233-190-N.jpg","1","1","1","0","1","0","0.48999850009568","0.422202600166202","0.517567200120538","1","1","1","1","1","1","1","1","1"
"250049","img/neutralC/CFD-AF-233-190-N.jpg","img/neutralC/CFD-MF-303-013-N.jpg","img/neutralC/CFD-MF-316-001-N.jpg","1","1","1","0","0","0","0.517567200120538","0.48999850009568","0.558330700034276","1","1","1","1","1","1","1","1","1"
"250049","img/neutralC/CFD-MF-316-001-N.jpg","img/neutralC/CFD-AF-233-190-N.jpg","img/neutralC/CFD-LF-255-088-N.jpg","1","1","1","0","0","0","0.558330700034276","0.517567200120538","0.526734800077975","1","1","1","1","1","1","1","1","1"
"250049","img/neutralC/CFD-LF-255-088-N.jpg","img/neutralC/CFD-MF-316-001-N.jpg","img/neutralC/CFD-LM-225-130-N.jpg","1","1","1","0","0","0","0.526734800077975","0.558330700034276","0.495782100129873","1","1","1","1","1","1","1","1","1"
"250049","img/neutralC/CFD-LM-225-130-N.jpg","img/neutralC/CFD-LF-255-088-N.jpg","img/neutralC/CFD-MM-324-069-N.jpg","1","1","1","0","0","1","0.495782100129873","0.526734800077975","0.417228200240061","1","1","1","1","1","1","1","1","1"
"250049","img/neutralC/CFD-MM-324-069-N.jpg","img/neutralC/CFD-LM-225-130-N.jpg","img/neutralC/CFD-IM-702-101-N.jpg","1","1","1","1","0","1","0.417228200240061","0.495782100129873","0.540604900103062","1","1","1","1","1","1","1","1","1"
"250049","img/neutralC/CFD-IM-702-101-N.jpg","img/neutralC/CFD-MM-324-069-N.jpg","img/neutralC/CFD-WF-007-001-N.jpg","1","1","1","1","1","1","0.540604900103062","0.417228200240061","0.491937200305983","1","1","1","1","1","1","1","1","1"
"250049","img/neutralC/CFD-WF-007-001-N.jpg","img/neutralC/CFD-IM-702-101-N.jpg","img/neutralC/CFD-AF-253-130-N.jpg","1","1","1","1","1","1","0.491937200305983","0.540604900103062","0.458202400244772","1","1","1","1","1","1","1","1","1"
"250049","img/neutralC/CFD-AF-253-130-N.jpg","img/neutralC/CFD-WF-007-001-N.jpg","img/neutralC/CFD-IM-706-002-N.jpg","1","1","0","1","1","0","0.458202400244772","0.491937200305983","0.395699500106275","1","1","1","1","1","1","1","1","1"
"250049","img/neutralC/CFD-IM-706-002-N.jpg","img/neutralC/CFD-AF-253-130-N.jpg","img/neutralC/CFD-MF-305-014-N.jpg","0","1","1","0","1","1","0.395699500106275","0.458202400244772","0.420632000314072","1","1","1","1","1","1","1","1","1"
"250049","img/neutralC/CFD-MF-305-014-N.jpg","img/neutralC/CFD-IM-706-002-N.jpg",NA,"1","0",NA,"1","0",NA,"0.420632000314072","0.395699500106275",NA,"1","1",NA,"1","1",NA,"1","1",NA
"250049","img/neutralC/CFD-WM-242-011-N.jpg",NA,"img/neutralC/CFD-LF-245-166-N.jpg","1",NA,"1","0",NA,"1","0.533532400149852",NA,"0.432450300082564","1",NA,"1","1",NA,"1","1",NA,"1"
"250049","img/neutralC/CFD-LF-245-166-N.jpg","img/neutralC/CFD-WM-242-011-N.jpg","img/neutralC/CFD-BF-010-001-N.jpg","1","1","1","1","0","1","0.432450300082564","0.533532400149852","0.356949700042605","1","1","1","1","1","1","1","1","1"
"250049","img/neutralC/CFD-BF-010-001-N.jpg","img/neutralC/CFD-LF-245-166-N.jpg","img/neutralC/CFD-BM-005-003-N.jpg","1","1","1","1","1","1","0.356949700042605","0.432450300082564","0.358966399915516","1","1","1","1","1","1","1","1","1"
"250049","img/neutralC/CFD-BM-005-003-N.jpg","img/neutralC/CFD-BF-010-001-N.jpg","img/neutralC/CFD-LM-233-171-N.jpg","1","1","1","1","1","0","0.358966399915516","0.356949700042605","0.37421749997884","1","1","1","1","1","1","1","1","1"
"250049","img/neutralC/CFD-LM-233-171-N.jpg","img/neutralC/CFD-BM-005-003-N.jpg","img/neutralC/CFD-LF-242-121-N.jpg","1","1","1","0","1","0","0.37421749997884","0.358966399915516","0.414402700029314","1","1","1","1","1","1","1","1","1"
"250049","img/neutralC/CFD-LF-242-121-N.jpg","img/neutralC/CFD-LM-233-171-N.jpg","img/neutralC/CFD-BM-212-117-N.jpg","1","1","1","0","0","0","0.414402700029314","0.37421749997884","0.461323800031096","1","1","1","1","1","1","1","1","1"
"250049","img/neutralC/CFD-BM-212-117-N.jpg","img/neutralC/CFD-LF-242-121-N.jpg","img/neutralC/CFD-LM-219-295-N.jpg","1","1","1","0","0","1","0.461323800031096","0.414402700029314","0.396250500110909","1","1","1","1","1","1","1","1","1"
"250049","img/neutralC/CFD-LM-219-295-N.jpg","img/neutralC/CFD-BM-212-117-N.jpg","img/neutralC/CFD-IF-620-218-N.jpg","1","1","1","1","0","0","0.396250500110909","0.461323800031096","0.450562800047919","1","1","1","1","1","1","1","1","1"
"250049","img/neutralC/CFD-IF-620-218-N.jpg","img/neutralC/CFD-LM-219-295-N.jpg","img/neutralC/CFD-LM-226-175-N.jpg","1","1","1","0","1","0","0.450562800047919","0.396250500110909","0.429606600198895","1","1","1","1","1","1","1","1","1"
"250049","img/neutralC/CFD-LM-226-175-N.jpg","img/neutralC/CFD-IF-620-218-N.jpg","img/neutralC/CFD-BM-018-001-N.jpg","1","1","1","0","0","1","0.429606600198895","0.450562800047919","0.378023500088602","1","1","1","1","1","1","1","1","1"
"250049","img/neutralC/CFD-BM-018-001-N.jpg","img/neutralC/CFD-LM-226-175-N.jpg","img/neutralC/CFD-WM-227-099-N.jpg","1","1","1","1","0","1","0.378023500088602","0.429606600198895","0.39590260013938","1","1","1","1","1","1","1","1","1"
"250049","img/neutralC/CFD-WM-227-099-N.jpg","img/neutralC/CFD-BM-018-001-N.jpg","img/neutralC/CFD-MF-313-002-N.jpg","1","1","0","1","1","0","0.39590260013938","0.378023500088602","0.360001600114629","1","1","1","1","1","1","1","1","1"
"250049","img/neutralC/CFD-MF-313-002-N.jpg","img/neutralC/CFD-WM-227-099-N.jpg","img/neutralC/CFD-WF-209-052-N.jpg","0","1","1","0","1","1","0.360001600114629","0.39590260013938","0.376651500118896","1","1","1","1","1","1","1","1","1"
"250049","img/neutralC/CFD-WF-209-052-N.jpg","img/neutralC/CFD-MF-313-002-N.jpg","img/neutralC/CFD-IM-727-195-N.jpg","1","0","1","1","0","1","0.376651500118896","0.360001600114629","0.43177770008333","1","1","1","1","1","1","1","1","1"
"250049","img/neutralC/CFD-IM-727-195-N.jpg","img/neutralC/CFD-WF-209-052-N.jpg","img/neutralC/CFD-BF-238-190-N.jpg","1","1","1","1","1","1","0.43177770008333","0.376651500118896","0.351481900084764","1","1","1","1","1","1","1","1","1"
"250049","img/neutralC/CFD-BF-238-190-N.jpg","img/neutralC/CFD-IM-727-195-N.jpg","img/neutralC/CFD-IF-665-015-N.jpg","1","1","0","1","1","0","0.351481900084764","0.43177770008333","0.339819800108671","1","1","1","1","1","1","1","1","1"
"250049","img/neutralC/CFD-IF-665-015-N.jpg","img/neutralC/CFD-BF-238-190-N.jpg","img/neutralC/CFD-AF-202-122-N.jpg","0","1","1","0","1","1","0.339819800108671","0.351481900084764","0.430058100027964","1","1","1","1","1","1","1","1","1"
"250049","img/neutralC/CFD-AF-202-122-N.jpg","img/neutralC/CFD-IF-665-015-N.jpg","img/neutralC/CFD-WM-258-125-N.jpg","1","0","0","1","0","0","0.430058100027964","0.339819800108671","0.40617089997977","1","1","1","1","1","1","1","1","1"
"250049","img/neutralC/CFD-WM-258-125-N.jpg","img/neutralC/CFD-AF-202-122-N.jpg","img/neutralC/CFD-IM-653-008-N.jpg","0","1","1","0","1","0","0.40617089997977","0.430058100027964","0.539891100255772","1","1","1","1","1","1","1","1","1"
"250049","img/neutralC/CFD-IM-653-008-N.jpg","img/neutralC/CFD-WM-258-125-N.jpg","img/neutralC/CFD-IM-617-174-N.jpg","1","0","1","0","0","0","0.539891100255772","0.40617089997977","0.479510500095785","1","1","1","1","1","1","1","1","1"
"250049","img/neutralC/CFD-IM-617-174-N.jpg","img/neutralC/CFD-IM-653-008-N.jpg","img/neutralC/CFD-BF-033-028-N.jpg","1","1","1","0","0","0","0.479510500095785","0.539891100255772","0.505991999991238","1","1","1","1","1","1","1","1","1"
"250049","img/neutralC/CFD-BF-033-028-N.jpg","img/neutralC/CFD-IM-617-174-N.jpg","img/neutralC/CFD-AF-241-141-N.jpg","1","1","1","0","0","1","0.505991999991238","0.479510500095785","0.410846800077707","1","1","1","1","1","1","1","1","1"
"250049","img/neutralC/CFD-AF-241-141-N.jpg","img/neutralC/CFD-BF-033-028-N.jpg","img/neutralC/CFD-BM-231-155-N.jpg","1","1","1","1","0","1","0.410846800077707","0.505991999991238","0.410455700242892","1","1","1","1","1","1","1","1","1"
"250049","img/neutralC/CFD-BM-231-155-N.jpg","img/neutralC/CFD-AF-241-141-N.jpg","img/neutralC/CFD-IM-638-250-1-N.jpg","1","1","1","1","1","1","0.410455700242892","0.410846800077707","0.502861900255084","1","1","1","1","1","1","1","1","1"
"250049","img/neutralC/CFD-IM-638-250-1-N.jpg","img/neutralC/CFD-BM-231-155-N.jpg","img/neutralC/CFD-WM-017-002-N.jpg","1","1","1","1","1","0","0.502861900255084","0.410455700242892","0.473774499958381","1","1","1","1","1","1","1","1","1"
"250049","img/neutralC/CFD-WM-017-002-N.jpg","img/neutralC/CFD-IM-638-250-1-N.jpg","img/neutralC/CFD-IM-657-308-N.jpg","1","1","1","0","1","0","0.473774499958381","0.502861900255084","0.5557540000882","1","1","1","1","1","1","1","1","1"
"250049","img/neutralC/CFD-IM-657-308-N.jpg","img/neutralC/CFD-WM-017-002-N.jpg","img/neutralC/CFD-IM-686-097-N.jpg","1","1","1","0","0","0","0.5557540000882","0.473774499958381","0.567369400290772","1","1","1","1","1","1","1","1","1"
"250049","img/neutralC/CFD-IM-686-097-N.jpg","img/neutralC/CFD-IM-657-308-N.jpg","img/neutralC/CFD-AF-206-079-N.jpg","1","1","1","0","0","1","0.567369400290772","0.5557540000882","0.458590100053698","1","1","1","1","1","1","1","1","1"
"250049","img/neutralC/CFD-AF-206-079-N.jpg","img/neutralC/CFD-IM-686-097-N.jpg","img/neutralC/CFD-LF-250-169-N.jpg","1","1","1","1","0","1","0.458590100053698","0.567369400290772","0.427948400145397","1","1","1","1","1","1","1","1","1"
"250049","img/neutralC/CFD-LF-250-169-N.jpg","img/neutralC/CFD-AF-206-079-N.jpg","img/neutralC/CFD-BM-026-002-N.jpg","1","1","1","1","1","0","0.427948400145397","0.458590100053698","0.43116550007835","1","1","1","1","1","1","1","1","1"
"250049","img/neutralC/CFD-BM-026-002-N.jpg","img/neutralC/CFD-LF-250-169-N.jpg","img/neutralC/CFD-LF-247-051-N.jpg","1","1","1","0","1","1","0.43116550007835","0.427948400145397","0.5072659002617","1","1","1","1","1","1","1","1","1"
"250049","img/neutralC/CFD-LF-247-051-N.jpg","img/neutralC/CFD-BM-026-002-N.jpg",NA,"1","1",NA,"1","0",NA,"0.5072659002617","0.43116550007835",NA,"1","1",NA,"1","1",NA,"1","1",NA
"250049","img/neutralC/CFD-AM-212-050-N.jpg",NA,"img/neutralC/CFD-LM-215-247-N.jpg","1",NA,"0","1",NA,"0","0.455649400129914",NA,"0.474680900108069","1",NA,"1","1",NA,"1","1",NA,"2"
"250049","img/neutralC/CFD-LM-215-247-N.jpg","img/neutralC/CFD-AM-212-050-N.jpg","img/neutralC/CFD-BF-213-188-N.jpg","0","1","1","0","1","1","0.474680900108069","0.455649400129914","0.430800399975851","1","1","1","1","1","1","2","1","1"
"250049","img/neutralC/CFD-BF-213-188-N.jpg","img/neutralC/CFD-LM-215-247-N.jpg","img/neutralC/CFD-BM-239-136-N.jpg","1","0","1","1","0","1","0.430800399975851","0.474680900108069","0.402275500120595","1","1","1","1","1","1","1","2","1"
"250049","img/neutralC/CFD-BM-239-136-N.jpg","img/neutralC/CFD-BF-213-188-N.jpg","img/neutralC/CFD-AF-231-357-N.jpg","1","1","1","1","1","1","0.402275500120595","0.430800399975851","0.37835260014981","1","1","1","1","1","1","1","1","1"
"250049","img/neutralC/CFD-AF-231-357-N.jpg","img/neutralC/CFD-BM-239-136-N.jpg","img/neutralC/CFD-IM-651-308-N.jpg","1","1","1","1","1","0","0.37835260014981","0.402275500120595","0.709857100155205","1","1","1","1","1","1","1","1","1"
"250049","img/neutralC/CFD-IM-651-308-N.jpg","img/neutralC/CFD-AF-231-357-N.jpg","img/neutralC/CFD-BM-019-002-N.jpg","1","1","1","0","1","0","0.709857100155205","0.37835260014981","0.437304300256073","1","1","1","1","1","1","1","1","1"
"250049","img/neutralC/CFD-BM-019-002-N.jpg","img/neutralC/CFD-IM-651-308-N.jpg","img/neutralC/CFD-BF-253-202-N.jpg","1","1","1","0","0","0","0.437304300256073","0.709857100155205","0.451461300021038","1","1","1","1","1","1","1","1","1"
"250049","img/neutralC/CFD-BF-253-202-N.jpg","img/neutralC/CFD-BM-019-002-N.jpg","img/neutralC/CFD-LF-224-176-N.jpg","1","1","1","0","0","0","0.451461300021038","0.437304300256073","0.442551200278103","1","1","1","1","1","1","1","1","1"
"250049","img/neutralC/CFD-LF-224-176-N.jpg","img/neutralC/CFD-BF-253-202-N.jpg","img/neutralC/CFD-LF-214-090-N.jpg","1","1","1","0","0","0","0.442551200278103","0.451461300021038","0.461707300040871","1","1","1","1","1","1","1","1","1"
"250049","img/neutralC/CFD-LF-214-090-N.jpg","img/neutralC/CFD-LF-224-176-N.jpg","img/neutralC/CFD-BF-039-031-N.jpg","1","1","1","0","0","1","0.461707300040871","0.442551200278103","0.395491400035098","1","1","1","1","1","1","1","1","1"
"250049","img/neutralC/CFD-BF-039-031-N.jpg","img/neutralC/CFD-LF-214-090-N.jpg","img/neutralC/CFD-MM-316-156-N.jpg","1","1","1","1","0","1","0.395491400035098","0.461707300040871","0.360778599977493","1","1","1","1","1","1","1","1","1"
"250049","img/neutralC/CFD-MM-316-156-N.jpg","img/neutralC/CFD-BF-039-031-N.jpg","img/neutralC/CFD-BF-205-141-N.jpg","1","1","1","1","1","0","0.360778599977493","0.395491400035098","0.639820800162852","1","1","1","1","1","1","1","1","1"
"250049","img/neutralC/CFD-BF-205-141-N.jpg","img/neutralC/CFD-MM-316-156-N.jpg","img/neutralC/CFD-WM-041-021-N.jpg","1","1","0","0","1","0","0.639820800162852","0.360778599977493","0.46164090023376","1","1","1","1","1","1","1","1","1"
"250049","img/neutralC/CFD-WM-041-021-N.jpg","img/neutralC/CFD-BF-205-141-N.jpg","img/neutralC/CFD-BM-033-003-N.jpg","0","1","1","0","0","0","0.46164090023376","0.639820800162852","0.512002600124106","1","1","1","1","1","1","1","1","1"
"250049","img/neutralC/CFD-BM-033-003-N.jpg","img/neutralC/CFD-WM-041-021-N.jpg","img/neutralC/CFD-LF-203-066-N.jpg","1","0","1","0","0","0","0.512002600124106","0.46164090023376","0.543740600114688","1","1","1","1","1","1","1","1","1"
"250049","img/neutralC/CFD-LF-203-066-N.jpg","img/neutralC/CFD-BM-033-003-N.jpg","img/neutralC/CFD-WM-021-001-N.jpg","1","1","1","0","0","1","0.543740600114688","0.512002600124106","0.415555300191045","1","1","1","1","1","1","1","1","1"
"250049","img/neutralC/CFD-WM-021-001-N.jpg","img/neutralC/CFD-LF-203-066-N.jpg","img/neutralC/CFD-IM-684-008-N.jpg","1","1","1","1","0","1","0.415555300191045","0.543740600114688","0.460894600255415","1","1","1","1","1","1","1","1","1"
"250049","img/neutralC/CFD-IM-684-008-N.jpg","img/neutralC/CFD-WM-021-001-N.jpg","img/neutralC/CFD-LM-218-183-N.jpg","1","1","1","1","1","1","0.460894600255415","0.415555300191045","0.393279300071299","1","1","1","1","1","1","1","1","1"
"250049","img/neutralC/CFD-LM-218-183-N.jpg","img/neutralC/CFD-IM-684-008-N.jpg","img/neutralC/CFD-MF-337-026-N.jpg","1","1","1","1","1","1","0.393279300071299","0.460894600255415","0.42043330008164","1","1","1","1","1","1","1","1","1"
"250049","img/neutralC/CFD-MF-337-026-N.jpg","img/neutralC/CFD-LM-218-183-N.jpg","img/neutralC/CFD-WF-250-167-N.jpg","1","1","1","1","1","1","0.42043330008164","0.393279300071299","0.510988099966198","1","1","1","1","1","1","1","1","1"
"250049","img/neutralC/CFD-WF-250-167-N.jpg","img/neutralC/CFD-MF-337-026-N.jpg","img/neutralC/CFD-WF-224-099-N.jpg","1","1","1","1","1","0","0.510988099966198","0.42043330008164","0.44508930016309","1","1","1","1","1","1","1","1","1"
"250049","img/neutralC/CFD-WF-224-099-N.jpg","img/neutralC/CFD-WF-250-167-N.jpg","img/neutralC/CFD-WF-213-031-N.jpg","1","1","1","0","1","1","0.44508930016309","0.510988099966198","0.382997399894521","1","1","1","1","1","1","1","1","1"
"250049","img/neutralC/CFD-WF-213-031-N.jpg","img/neutralC/CFD-WF-224-099-N.jpg","img/neutralC/CFD-IF-693-172-N.jpg","1","1","1","1","0","0","0.382997399894521","0.44508930016309","0.430005600210279","1","1","1","1","1","1","1","1","1"
"250049","img/neutralC/CFD-IF-693-172-N.jpg","img/neutralC/CFD-WF-213-031-N.jpg","img/neutralC/CFD-BM-041-035-N.jpg","1","1","1","0","1","0","0.430005600210279","0.382997399894521","0.487084800144657","1","1","1","1","1","1","1","1","1"
"250049","img/neutralC/CFD-BM-041-035-N.jpg","img/neutralC/CFD-IF-693-172-N.jpg","img/neutralC/CFD-WM-011-002-N.jpg","1","1","1","0","0","0","0.487084800144657","0.430005600210279","0.499586600111798","1","1","1","1","1","1","1","1","1"
"250049","img/neutralC/CFD-WM-011-002-N.jpg","img/neutralC/CFD-BM-041-035-N.jpg","img/neutralC/CFD-IF-710-016-N.jpg","1","1","1","0","0","0","0.499586600111798","0.487084800144657","0.538164200261235","1","1","1","1","1","1","1","1","1"
"250049","img/neutralC/CFD-IF-710-016-N.jpg","img/neutralC/CFD-WM-011-002-N.jpg","img/neutralC/CFD-BF-029-031-N.jpg","1","1","1","0","0","1","0.538164200261235","0.499586600111798","0.371962399920449","1","1","1","1","1","1","1","1","1"
"250049","img/neutralC/CFD-BF-029-031-N.jpg","img/neutralC/CFD-IF-710-016-N.jpg","img/neutralC/CFD-LF-230-203-N.jpg","1","1","1","1","0","0","0.371962399920449","0.538164200261235","0.49612809997052","1","1","1","1","1","1","1","1","1"
"250049","img/neutralC/CFD-LF-230-203-N.jpg","img/neutralC/CFD-BF-029-031-N.jpg","img/neutralC/CFD-IF-634-382-N.jpg","1","1","1","0","1","1","0.49612809997052","0.371962399920449","0.435262500075623","1","1","1","1","1","1","1","1","1"
"250049","img/neutralC/CFD-IF-634-382-N.jpg","img/neutralC/CFD-LF-230-203-N.jpg","img/neutralC/CFD-LF-205-100-N.jpg","1","1","1","1","0","1","0.435262500075623","0.49612809997052","0.396989499917254","1","1","1","1","1","1","1","1","1"
"250049","img/neutralC/CFD-LF-205-100-N.jpg","img/neutralC/CFD-IF-634-382-N.jpg","img/neutralC/CFD-AM-201-076-N.jpg","1","1","1","1","1","1","0.396989499917254","0.435262500075623","0.374274699948728","1","1","1","1","1","1","1","1","1"
"250049","img/neutralC/CFD-AM-201-076-N.jpg","img/neutralC/CFD-LF-205-100-N.jpg",NA,"1","1",NA,"1","1",NA,"0.374274699948728","0.396989499917254",NA,"1","1",NA,"1","1",NA,"1","1",NA
