"participant_id","current_trial_face","pre_trial_face","post_trial_face","current_trial_accuracy","pre_trial_accuracy","post_trial_accuracy","current_trial_congruency","pre_trial_congruency","post_trial_congruency","current_trial_rt","pre_trial_rt","post_trial_rt","current_trial_responded","pre_trial_responded","post_trial_responded","current_trial_legitResponse","pre_trial_legitResponse","post_trial_legitResponse","current_trial_resp_nums","pre_trial_resp_nums","post_trial_resp_nums"
"250050","img/neutralC/CFD-IM-707-105-N.jpg",NA,"img/neutralC/CFD-BF-036-027-N.jpg","1",NA,"1","1",NA,"0","0.885886599999139",NA,"0.737533199999234","1",NA,"1","1",NA,"1","1",NA,"1"
"250050","img/neutralC/CFD-BF-036-027-N.jpg","img/neutralC/CFD-IM-707-105-N.jpg","img/neutralC/CFD-BF-207-004-N.jpg","1","1","1","0","1","1","0.737533199999234","0.885886599999139","0.614234300000135","1","1","1","1","1","1","1","1","1"
"250050","img/neutralC/CFD-BF-207-004-N.jpg","img/neutralC/CFD-BF-036-027-N.jpg","img/neutralC/CFD-IF-729-393-N.jpg","1","1","1","1","0","0","0.614234300000135","0.737533199999234","0.662391699999716","1","1","1","1","1","1","1","1","1"
"250050","img/neutralC/CFD-IF-729-393-N.jpg","img/neutralC/CFD-BF-207-004-N.jpg","img/neutralC/CFD-WF-208-068-N.jpg","1","1","1","0","1","1","0.662391699999716","0.614234300000135","0.689674699999159","1","1","1","1","1","1","1","1","1"
"250050","img/neutralC/CFD-WF-208-068-N.jpg","img/neutralC/CFD-IF-729-393-N.jpg","img/neutralC/CFD-IM-721-341-N.jpg","1","1","1","1","0","1","0.689674699999159","0.662391699999716","0.615350399999443","1","1","1","1","1","1","1","1","1"
"250050","img/neutralC/CFD-IM-721-341-N.jpg","img/neutralC/CFD-WF-208-068-N.jpg","img/neutralC/CFD-IF-742-103-N.jpg","1","1","1","1","1","1","0.615350399999443","0.689674699999159","0.61007619999873","1","1","1","1","1","1","1","1","1"
"250050","img/neutralC/CFD-IF-742-103-N.jpg","img/neutralC/CFD-IM-721-341-N.jpg","img/neutralC/CFD-BM-238-242-N.jpg","1","1","1","1","1","0","0.61007619999873","0.615350399999443","0.591972199998963","1","1","1","1","1","1","1","1","1"
"250050","img/neutralC/CFD-BM-238-242-N.jpg","img/neutralC/CFD-IF-742-103-N.jpg","img/neutralC/CFD-BF-236-177-N.jpg","1","1","1","0","1","0","0.591972199998963","0.61007619999873","0.594989199998963","1","1","1","1","1","1","1","1","1"
"250050","img/neutralC/CFD-BF-236-177-N.jpg","img/neutralC/CFD-BM-238-242-N.jpg","img/neutralC/CFD-WM-034-030-N.jpg","1","1","1","0","0","1","0.594989199998963","0.591972199998963","0.694479699998737","1","1","1","1","1","1","1","1","1"
"250050","img/neutralC/CFD-WM-034-030-N.jpg","img/neutralC/CFD-BF-236-177-N.jpg","img/neutralC/CFD-WF-234-086-N.jpg","1","1","1","1","0","1","0.694479699998737","0.594989199998963","0.674707299999682","1","1","1","1","1","1","1","1","1"
"250050","img/neutralC/CFD-WF-234-086-N.jpg","img/neutralC/CFD-WM-034-030-N.jpg","img/neutralC/CFD-BM-036-003-N.jpg","1","1","1","1","1","1","0.674707299999682","0.694479699998737","0.745170199999848","1","1","1","1","1","1","1","1","1"
"250050","img/neutralC/CFD-BM-036-003-N.jpg","img/neutralC/CFD-WF-234-086-N.jpg","img/neutralC/CFD-BF-006-017-N.jpg","1","1","1","1","1","0","0.745170199999848","0.674707299999682","0.774245299999166","1","1","1","1","1","1","1","1","1"
"250050","img/neutralC/CFD-BF-006-017-N.jpg","img/neutralC/CFD-BM-036-003-N.jpg","img/neutralC/CFD-WF-233-112-N.jpg","1","1","1","0","1","1","0.774245299999166","0.745170199999848","0.580072299999301","1","1","1","1","1","1","1","1","1"
"250050","img/neutralC/CFD-WF-233-112-N.jpg","img/neutralC/CFD-BF-006-017-N.jpg","img/neutralC/CFD-WM-014-002-N.jpg","1","1","1","1","0","0","0.580072299999301","0.774245299999166","0.657321699999557","1","1","1","1","1","1","1","1","1"
"250050","img/neutralC/CFD-WM-014-002-N.jpg","img/neutralC/CFD-WF-233-112-N.jpg","img/neutralC/CFD-WF-029-002-N.jpg","1","1","1","0","1","0","0.657321699999557","0.580072299999301","0.764366599999448","1","1","1","1","1","1","1","1","1"
"250050","img/neutralC/CFD-WF-029-002-N.jpg","img/neutralC/CFD-WM-014-002-N.jpg","img/neutralC/CFD-BF-011-002-N.jpg","1","1","1","0","0","1","0.764366599999448","0.657321699999557","0.681881599999542","1","1","1","1","1","1","1","1","1"
"250050","img/neutralC/CFD-BF-011-002-N.jpg","img/neutralC/CFD-WF-029-002-N.jpg","img/neutralC/CFD-LF-204-133-N.jpg","1","1","1","1","0","1","0.681881599999542","0.764366599999448","0.730582699999104","1","1","1","1","1","1","1","1","1"
"250050","img/neutralC/CFD-LF-204-133-N.jpg","img/neutralC/CFD-BF-011-002-N.jpg","img/neutralC/CFD-BF-247-179-N.jpg","1","1","1","1","1","0","0.730582699999104","0.681881599999542","0.757937699999275","1","1","1","1","1","1","1","1","1"
"250050","img/neutralC/CFD-BF-247-179-N.jpg","img/neutralC/CFD-LF-204-133-N.jpg","img/neutralC/CFD-MF-301-024-N.jpg","1","1","1","0","1","0","0.757937699999275","0.730582699999104","0.696317699999781","1","1","1","1","1","1","1","1","1"
"250050","img/neutralC/CFD-MF-301-024-N.jpg","img/neutralC/CFD-BF-247-179-N.jpg","img/neutralC/CFD-LM-213-061-N.jpg","1","1","1","0","0","0","0.696317699999781","0.757937699999275","0.658952499999941","1","1","1","1","1","1","1","1","1"
"250050","img/neutralC/CFD-LM-213-061-N.jpg","img/neutralC/CFD-MF-301-024-N.jpg","img/neutralC/CFD-BF-002-001-N.jpg","1","1","1","0","0","0","0.658952499999941","0.696317699999781","0.550164700000096","1","1","1","1","1","1","1","1","1"
"250050","img/neutralC/CFD-BF-002-001-N.jpg","img/neutralC/CFD-LM-213-061-N.jpg","img/neutralC/CFD-IF-677-452-1-N.jpg","1","1","1","0","0","1","0.550164700000096","0.658952499999941","0.674666899999465","1","1","1","1","1","1","1","1","1"
"250050","img/neutralC/CFD-IF-677-452-1-N.jpg","img/neutralC/CFD-BF-002-001-N.jpg","img/neutralC/CFD-BF-214-308-N.jpg","1","1","1","1","0","1","0.674666899999465","0.550164700000096","0.684905699999945","1","1","1","1","1","1","1","1","1"
"250050","img/neutralC/CFD-BF-214-308-N.jpg","img/neutralC/CFD-IF-677-452-1-N.jpg","img/neutralC/CFD-IM-696-001-N.jpg","1","1","1","1","1","0","0.684905699999945","0.674666899999465","0.616515199999412","1","1","1","1","1","1","1","1","1"
"250050","img/neutralC/CFD-IM-696-001-N.jpg","img/neutralC/CFD-BF-214-308-N.jpg","img/neutralC/CFD-BF-027-002-N.jpg","1","1","1","0","1","1","0.616515199999412","0.684905699999945","0.66999179999948","1","1","1","1","1","1","1","1","1"
"250050","img/neutralC/CFD-BF-027-002-N.jpg","img/neutralC/CFD-IM-696-001-N.jpg","img/neutralC/CFD-AM-230-150-N.jpg","1","1","1","1","0","0","0.66999179999948","0.616515199999412","0.56022479999865","1","1","1","1","1","1","1","1","1"
"250050","img/neutralC/CFD-AM-230-150-N.jpg","img/neutralC/CFD-BF-027-002-N.jpg","img/neutralC/CFD-BM-207-024-N.jpg","1","1","1","0","1","1","0.56022479999865","0.66999179999948","0.667610299999069","1","1","1","1","1","1","1","1","1"
"250050","img/neutralC/CFD-BM-207-024-N.jpg","img/neutralC/CFD-AM-230-150-N.jpg","img/neutralC/CFD-BF-044-034-N.jpg","1","1","1","1","0","0","0.667610299999069","0.56022479999865","0.603341199998795","1","1","1","1","1","1","1","1","1"
"250050","img/neutralC/CFD-BF-044-034-N.jpg","img/neutralC/CFD-BM-207-024-N.jpg","img/neutralC/CFD-BM-241-235-N.jpg","1","1","0","0","1","0","0.603341199998795","0.667610299999069","0.414248799999768","1","1","1","1","1","1","1","1","2"
"250050","img/neutralC/CFD-BM-241-235-N.jpg","img/neutralC/CFD-BF-044-034-N.jpg","img/neutralC/CFD-IM-726-248-N.jpg","0","1","1","0","0","0","0.414248799999768","0.603341199998795","0.966897899999822","1","1","1","1","1","1","2","1","1"
"250050","img/neutralC/CFD-IM-726-248-N.jpg","img/neutralC/CFD-BM-241-235-N.jpg","img/neutralC/CFD-WM-248-036-N.jpg","1","0","1","0","0","1","0.966897899999822","0.414248799999768","0.744382899999437","1","1","1","1","1","1","1","2","1"
"250050","img/neutralC/CFD-WM-248-036-N.jpg","img/neutralC/CFD-IM-726-248-N.jpg",NA,"1","1",NA,"1","0",NA,"0.744382899999437","0.966897899999822",NA,"1","1",NA,"1","1",NA,"1","1",NA
"250050","img/neutralC/CFD-AM-217-085-N.jpg",NA,"img/neutralC/CFD-WF-026-002-N.jpg","1",NA,"1","0",NA,"1","0.597223199999462",NA,"0.667270399999325","1",NA,"1","1",NA,"1","1",NA,"1"
"250050","img/neutralC/CFD-WF-026-002-N.jpg","img/neutralC/CFD-AM-217-085-N.jpg","img/neutralC/CFD-IF-672-305-N.jpg","1","1","1","1","0","0","0.667270399999325","0.597223199999462","0.622901399999137","1","1","1","1","1","1","1","1","1"
"250050","img/neutralC/CFD-IF-672-305-N.jpg","img/neutralC/CFD-WF-026-002-N.jpg","img/neutralC/CFD-BF-028-001-N.jpg","1","1","1","0","1","1","0.622901399999137","0.667270399999325","0.662940699999126","1","1","1","1","1","1","1","1","1"
"250050","img/neutralC/CFD-BF-028-001-N.jpg","img/neutralC/CFD-IF-672-305-N.jpg","img/neutralC/CFD-BF-255-140-N.jpg","1","1","1","1","0","1","0.662940699999126","0.622901399999137","0.625125200000184","1","1","1","1","1","1","1","1","1"
"250050","img/neutralC/CFD-BF-255-140-N.jpg","img/neutralC/CFD-BF-028-001-N.jpg","img/neutralC/CFD-WM-257-161-N.jpg","1","1","1","1","1","1","0.625125200000184","0.662940699999126","0.556718099999671","1","1","1","1","1","1","1","1","1"
"250050","img/neutralC/CFD-WM-257-161-N.jpg","img/neutralC/CFD-BF-255-140-N.jpg","img/neutralC/CFD-LM-252-076-N.jpg","1","1","1","1","1","1","0.556718099999671","0.625125200000184","0.575510299999223","1","1","1","1","1","1","1","1","1"
"250050","img/neutralC/CFD-LM-252-076-N.jpg","img/neutralC/CFD-WM-257-161-N.jpg","img/neutralC/CFD-IM-639-263-N.jpg","1","1","1","1","1","1","0.575510299999223","0.556718099999671","0.72600009999951","1","1","1","1","1","1","1","1","1"
"250050","img/neutralC/CFD-IM-639-263-N.jpg","img/neutralC/CFD-LM-252-076-N.jpg","img/neutralC/CFD-MM-319-052-N.jpg","1","1","1","1","1","1","0.72600009999951","0.575510299999223","0.690262600000096","1","1","1","1","1","1","1","1","1"
"250050","img/neutralC/CFD-MM-319-052-N.jpg","img/neutralC/CFD-IM-639-263-N.jpg","img/neutralC/CFD-LF-216-121-N.jpg","1","1","1","1","1","1","0.690262600000096","0.72600009999951","0.608559899998909","1","1","1","1","1","1","1","1","1"
"250050","img/neutralC/CFD-LF-216-121-N.jpg","img/neutralC/CFD-MM-319-052-N.jpg","img/neutralC/CFD-BF-003-003-N.jpg","1","1","1","1","1","0","0.608559899998909","0.690262600000096","0.635830199998964","1","1","1","1","1","1","1","1","1"
"250050","img/neutralC/CFD-BF-003-003-N.jpg","img/neutralC/CFD-LF-216-121-N.jpg","img/neutralC/CFD-WF-002-004-N.jpg","1","1","1","0","1","0","0.635830199998964","0.608559899998909","0.68949849999899","1","1","1","1","1","1","1","1","1"
"250050","img/neutralC/CFD-WF-002-004-N.jpg","img/neutralC/CFD-BF-003-003-N.jpg","img/neutralC/CFD-AM-215-120-N.jpg","1","1","1","0","0","1","0.68949849999899","0.635830199998964","0.797105900000133","1","1","1","1","1","1","1","1","1"
"250050","img/neutralC/CFD-AM-215-120-N.jpg","img/neutralC/CFD-WF-002-004-N.jpg","img/neutralC/CFD-LF-236-221-N.jpg","1","1","1","1","0","1","0.797105900000133","0.68949849999899","0.680617799999709","1","1","1","1","1","1","1","1","1"
"250050","img/neutralC/CFD-LF-236-221-N.jpg","img/neutralC/CFD-AM-215-120-N.jpg","img/neutralC/CFD-WM-040-022-N.jpg","1","1","1","1","1","0","0.680617799999709","0.797105900000133","0.871140299998842","1","1","1","1","1","1","1","1","1"
"250050","img/neutralC/CFD-WM-040-022-N.jpg","img/neutralC/CFD-LF-236-221-N.jpg","img/neutralC/CFD-AM-235-241-N.jpg","1","1","1","0","1","0","0.871140299998842","0.680617799999709","0.533977999999479","1","1","1","1","1","1","1","1","1"
"250050","img/neutralC/CFD-AM-235-241-N.jpg","img/neutralC/CFD-WM-040-022-N.jpg","img/neutralC/CFD-BM-247-240-N.jpg","1","1","1","0","0","0","0.533977999999479","0.871140299998842","0.64730149999923","1","1","1","1","1","1","1","1","1"
"250050","img/neutralC/CFD-BM-247-240-N.jpg","img/neutralC/CFD-AM-235-241-N.jpg","img/neutralC/CFD-IF-718-001-N.jpg","1","1","1","0","0","1","0.64730149999923","0.533977999999479","0.518353699999352","1","1","1","1","1","1","1","1","1"
"250050","img/neutralC/CFD-IF-718-001-N.jpg","img/neutralC/CFD-BM-247-240-N.jpg","img/neutralC/CFD-BF-204-189-N.jpg","1","1","1","1","0","1","0.518353699999352","0.64730149999923","0.794550499999787","1","1","1","1","1","1","1","1","1"
"250050","img/neutralC/CFD-BF-204-189-N.jpg","img/neutralC/CFD-IF-718-001-N.jpg","img/neutralC/CFD-BF-201-080-N.jpg","1","1","1","1","1","1","0.794550499999787","0.518353699999352","0.988100999999915","1","1","1","1","1","1","1","1","1"
"250050","img/neutralC/CFD-BF-201-080-N.jpg","img/neutralC/CFD-BF-204-189-N.jpg","img/neutralC/CFD-BM-029-024-N.jpg","1","1","1","1","1","1","0.988100999999915","0.794550499999787","0.773074699999597","1","1","1","1","1","1","1","1","1"
"250050","img/neutralC/CFD-BM-029-024-N.jpg","img/neutralC/CFD-BF-201-080-N.jpg","img/neutralC/CFD-WF-022-017-N.jpg","1","1","1","1","1","0","0.773074699999597","0.988100999999915","0.666487699999379","1","1","1","1","1","1","1","1","1"
"250050","img/neutralC/CFD-WF-022-017-N.jpg","img/neutralC/CFD-BM-029-024-N.jpg","img/neutralC/CFD-BM-211-174-N.jpg","1","1","1","0","1","0","0.666487699999379","0.773074699999597","0.663438399998995","1","1","1","1","1","1","1","1","1"
"250050","img/neutralC/CFD-BM-211-174-N.jpg","img/neutralC/CFD-WF-022-017-N.jpg","img/neutralC/CFD-BM-027-001-N.jpg","1","1","1","0","0","0","0.663438399998995","0.666487699999379","1.20018769999933","1","1","1","1","1","1","1","1","1"
"250050","img/neutralC/CFD-BM-027-001-N.jpg","img/neutralC/CFD-BM-211-174-N.jpg","img/neutralC/CFD-WM-038-003-N.jpg","1","1","1","0","0","0","1.20018769999933","0.663438399998995","1.01530439999897","1","1","1","1","1","1","1","1","1"
"250050","img/neutralC/CFD-WM-038-003-N.jpg","img/neutralC/CFD-BM-027-001-N.jpg","img/neutralC/CFD-BM-015-015-N.jpg","1","1","1","0","0","0","1.01530439999897","1.20018769999933","0.745856399999866","1","1","1","1","1","1","1","1","1"
"250050","img/neutralC/CFD-BM-015-015-N.jpg","img/neutralC/CFD-WM-038-003-N.jpg","img/neutralC/CFD-IM-728-041-N.jpg","1","1","1","0","0","0","0.745856399999866","1.01530439999897","0.607459599999856","1","1","1","1","1","1","1","1","1"
"250050","img/neutralC/CFD-IM-728-041-N.jpg","img/neutralC/CFD-BM-015-015-N.jpg","img/neutralC/CFD-WM-225-127-N.jpg","1","1","1","0","0","0","0.607459599999856","0.745856399999866","1.06067259999963","1","1","1","1","1","1","1","1","1"
"250050","img/neutralC/CFD-WM-225-127-N.jpg","img/neutralC/CFD-IM-728-041-N.jpg","img/neutralC/CFD-WM-002-009-N.jpg","1","1","1","0","0","0","1.06067259999963","0.607459599999856","0.633003499999177","1","1","1","1","1","1","1","1","1"
"250050","img/neutralC/CFD-WM-002-009-N.jpg","img/neutralC/CFD-WM-225-127-N.jpg","img/neutralC/CFD-IM-674-281-N.jpg","1","1","1","0","0","1","0.633003499999177","1.06067259999963","0.61438519999956","1","1","1","1","1","1","1","1","1"
"250050","img/neutralC/CFD-IM-674-281-N.jpg","img/neutralC/CFD-WM-002-009-N.jpg","img/neutralC/CFD-BF-208-266-N.jpg","1","1","1","1","0","0","0.61438519999956","0.633003499999177","0.680486499999461","1","1","1","1","1","1","1","1","1"
"250050","img/neutralC/CFD-BF-208-266-N.jpg","img/neutralC/CFD-IM-674-281-N.jpg","img/neutralC/CFD-BF-023-010-N.jpg","1","1","1","0","1","1","0.680486499999461","0.61438519999956","0.624306099999558","1","1","1","1","1","1","1","1","1"
"250050","img/neutralC/CFD-BF-023-010-N.jpg","img/neutralC/CFD-BF-208-266-N.jpg",NA,"1","1",NA,"1","0",NA,"0.624306099999558","0.680486499999461",NA,"1","1",NA,"1","1",NA,"1","1",NA
"250050","img/neutralC/CFD-IM-664-651-N.jpg",NA,"img/neutralC/CFD-WF-007-001-N.jpg","1",NA,"1","1",NA,"1","0.803298699999687",NA,"0.633532999999261","1",NA,"1","1",NA,"1","1",NA,"1"
"250050","img/neutralC/CFD-WF-007-001-N.jpg","img/neutralC/CFD-IM-664-651-N.jpg","img/neutralC/CFD-WF-030-002-N.jpg","1","1","1","1","1","0","0.633532999999261","0.803298699999687","0.696343399999932","1","1","1","1","1","1","1","1","1"
"250050","img/neutralC/CFD-WF-030-002-N.jpg","img/neutralC/CFD-WF-007-001-N.jpg","img/neutralC/CFD-AF-253-130-N.jpg","1","1","1","0","1","1","0.696343399999932","0.633532999999261","0.603209899999456","1","1","1","1","1","1","1","1","1"
"250050","img/neutralC/CFD-AF-253-130-N.jpg","img/neutralC/CFD-WF-030-002-N.jpg","img/neutralC/CFD-IM-680-369-N.jpg","1","1","1","1","0","1","0.603209899999456","0.696343399999932","0.533006399999067","1","1","1","1","1","1","1","1","1"
"250050","img/neutralC/CFD-IM-680-369-N.jpg","img/neutralC/CFD-AF-253-130-N.jpg","img/neutralC/CFD-BM-001-014-N.jpg","1","1","1","1","1","0","0.533006399999067","0.603209899999456","0.677874999999403","1","1","1","1","1","1","1","1","1"
"250050","img/neutralC/CFD-BM-001-014-N.jpg","img/neutralC/CFD-IM-680-369-N.jpg","img/neutralC/CFD-LM-225-130-N.jpg","1","1","1","0","1","0","0.677874999999403","0.533006399999067","0.681900399998995","1","1","1","1","1","1","1","1","1"
"250050","img/neutralC/CFD-LM-225-130-N.jpg","img/neutralC/CFD-BM-001-014-N.jpg","img/neutralC/CFD-MM-324-069-N.jpg","1","1","1","0","0","1","0.681900399998995","0.677874999999403","0.66423549999945","1","1","1","1","1","1","1","1","1"
"250050","img/neutralC/CFD-MM-324-069-N.jpg","img/neutralC/CFD-LM-225-130-N.jpg","img/neutralC/CFD-MF-305-014-N.jpg","1","1","1","1","0","1","0.66423549999945","0.681900399998995","0.521060699998998","1","1","1","1","1","1","1","1","1"
"250050","img/neutralC/CFD-MF-305-014-N.jpg","img/neutralC/CFD-MM-324-069-N.jpg","img/neutralC/CFD-BF-014-002-N.jpg","1","1","1","1","1","1","0.521060699998998","0.66423549999945","0.891360199999326","1","1","1","1","1","1","1","1","1"
"250050","img/neutralC/CFD-BF-014-002-N.jpg","img/neutralC/CFD-MF-305-014-N.jpg","img/neutralC/CFD-LF-255-088-N.jpg","1","1","1","1","1","0","0.891360199999326","0.521060699998998","0.77021269999932","1","1","1","1","1","1","1","1","1"
"250050","img/neutralC/CFD-LF-255-088-N.jpg","img/neutralC/CFD-BF-014-002-N.jpg","img/neutralC/CFD-IF-626-375-N.jpg","1","1","1","0","1","0","0.77021269999932","0.891360199999326","0.786804499999562","1","1","1","1","1","1","1","1","1"
"250050","img/neutralC/CFD-IF-626-375-N.jpg","img/neutralC/CFD-LF-255-088-N.jpg","img/neutralC/CFD-WM-218-074-N.jpg","1","1","1","0","0","1","0.786804499999562","0.77021269999932","0.628745499999241","1","1","1","1","1","1","1","1","1"
"250050","img/neutralC/CFD-WM-218-074-N.jpg","img/neutralC/CFD-IF-626-375-N.jpg","img/neutralC/CFD-LF-206-078-N.jpg","1","1","1","1","0","1","0.628745499999241","0.786804499999562","0.654006099999606","1","1","1","1","1","1","1","1","1"
"250050","img/neutralC/CFD-LF-206-078-N.jpg","img/neutralC/CFD-WM-218-074-N.jpg","img/neutralC/CFD-BM-217-082-N.jpg","1","1","1","1","1","0","0.654006099999606","0.628745499999241","0.875234399999499","1","1","1","1","1","1","1","1","1"
"250050","img/neutralC/CFD-BM-217-082-N.jpg","img/neutralC/CFD-LF-206-078-N.jpg","img/neutralC/CFD-MF-357-002-N.jpg","1","1","1","0","1","0","0.875234399999499","0.654006099999606","0.756199699999343","1","1","1","1","1","1","1","1","1"
"250050","img/neutralC/CFD-MF-357-002-N.jpg","img/neutralC/CFD-BM-217-082-N.jpg","img/neutralC/CFD-BM-250-170-N.jpg","1","1","1","0","0","1","0.756199699999343","0.875234399999499","0.600200500000028","1","1","1","1","1","1","1","1","1"
"250050","img/neutralC/CFD-BM-250-170-N.jpg","img/neutralC/CFD-MF-357-002-N.jpg","img/neutralC/CFD-BF-237-172-N.jpg","1","1","1","1","0","1","0.600200500000028","0.756199699999343","0.618227799999659","1","1","1","1","1","1","1","1","1"
"250050","img/neutralC/CFD-BF-237-172-N.jpg","img/neutralC/CFD-BM-250-170-N.jpg","img/neutralC/CFD-IF-660-464-N.jpg","1","1","1","1","1","0","0.618227799999659","0.600200500000028","1.09905049999907","1","1","1","1","1","1","1","1","1"
"250050","img/neutralC/CFD-IF-660-464-N.jpg","img/neutralC/CFD-BF-237-172-N.jpg","img/neutralC/CFD-MF-343-001-N.jpg","1","1","1","0","1","1","1.09905049999907","0.618227799999659","0.629027899999528","1","1","1","1","1","1","1","1","1"
"250050","img/neutralC/CFD-MF-343-001-N.jpg","img/neutralC/CFD-IF-660-464-N.jpg","img/neutralC/CFD-AF-233-190-N.jpg","1","1","1","1","0","0","0.629027899999528","1.09905049999907","0.637656599998991","1","1","1","1","1","1","1","1","1"
"250050","img/neutralC/CFD-AF-233-190-N.jpg","img/neutralC/CFD-MF-343-001-N.jpg","img/neutralC/CFD-LM-200-045-N.jpg","1","1","1","0","1","1","0.637656599998991","0.629027899999528","0.621418499999891","1","1","1","1","1","1","1","1","1"
"250050","img/neutralC/CFD-LM-200-045-N.jpg","img/neutralC/CFD-AF-233-190-N.jpg","img/neutralC/CFD-IM-667-369-N.jpg","1","1","1","1","0","0","0.621418499999891","0.637656599998991","0.805169899998873","1","1","1","1","1","1","1","1","1"
"250050","img/neutralC/CFD-IM-667-369-N.jpg","img/neutralC/CFD-LM-200-045-N.jpg","img/neutralC/CFD-IM-706-002-N.jpg","1","1","1","0","1","0","0.805169899998873","0.621418499999891","0.824391899999682","1","1","1","1","1","1","1","1","1"
"250050","img/neutralC/CFD-IM-706-002-N.jpg","img/neutralC/CFD-IM-667-369-N.jpg","img/neutralC/CFD-IM-702-101-N.jpg","1","1","1","0","0","1","0.824391899999682","0.805169899998873","0.687931100000242","1","1","1","1","1","1","1","1","1"
"250050","img/neutralC/CFD-IM-702-101-N.jpg","img/neutralC/CFD-IM-706-002-N.jpg","img/neutralC/CFD-WF-222-092-N.jpg","1","1","1","1","0","1","0.687931100000242","0.824391899999682","0.688187199999447","1","1","1","1","1","1","1","1","1"
"250050","img/neutralC/CFD-WF-222-092-N.jpg","img/neutralC/CFD-IM-702-101-N.jpg","img/neutralC/CFD-MF-316-001-N.jpg","1","1","1","1","1","0","0.688187199999447","0.687931100000242","0.804268299999421","1","1","1","1","1","1","1","1","1"
"250050","img/neutralC/CFD-MF-316-001-N.jpg","img/neutralC/CFD-WF-222-092-N.jpg","img/neutralC/CFD-WM-015-002-N.jpg","1","1","1","0","1","0","0.804268299999421","0.688187199999447","0.572412399999848","1","1","1","1","1","1","1","1","1"
"250050","img/neutralC/CFD-WM-015-002-N.jpg","img/neutralC/CFD-MF-316-001-N.jpg","img/neutralC/CFD-MF-303-013-N.jpg","1","1","1","0","0","0","0.572412399999848","0.804268299999421","1.02194549999967","1","1","1","1","1","1","1","1","1"
"250050","img/neutralC/CFD-MF-303-013-N.jpg","img/neutralC/CFD-WM-015-002-N.jpg","img/neutralC/CFD-WM-209-038-N.jpg","1","1","1","0","0","0","1.02194549999967","0.572412399999848","0.631667599998764","1","1","1","1","1","1","1","1","1"
"250050","img/neutralC/CFD-WM-209-038-N.jpg","img/neutralC/CFD-MF-303-013-N.jpg","img/neutralC/CFD-WF-244-163-N.jpg","1","1","1","0","0","1","0.631667599998764","1.02194549999967","0.602540799999588","1","1","1","1","1","1","1","1","1"
"250050","img/neutralC/CFD-WF-244-163-N.jpg","img/neutralC/CFD-WM-209-038-N.jpg","img/neutralC/CFD-AM-220-134-N.jpg","1","1","1","1","0","0","0.602540799999588","0.631667599998764","0.793346999998903","1","1","1","1","1","1","1","1","1"
"250050","img/neutralC/CFD-AM-220-134-N.jpg","img/neutralC/CFD-WF-244-163-N.jpg",NA,"1","1",NA,"0","1",NA,"0.793346999998903","0.602540799999588",NA,"1","1",NA,"1","1",NA,"1","1",NA
"250050","img/neutralC/CFD-BM-041-035-N.jpg",NA,"img/neutralC/CFD-LM-218-183-N.jpg","1",NA,"1","0",NA,"1","0.924145999999382",NA,"0.541997199999969","1",NA,"1","1",NA,"1","1",NA,"1"
"250050","img/neutralC/CFD-LM-218-183-N.jpg","img/neutralC/CFD-BM-041-035-N.jpg","img/neutralC/CFD-BM-019-002-N.jpg","1","1","1","1","0","0","0.541997199999969","0.924145999999382","0.590824899999461","1","1","1","1","1","1","1","1","1"
"250050","img/neutralC/CFD-BM-019-002-N.jpg","img/neutralC/CFD-LM-218-183-N.jpg","img/neutralC/CFD-WF-224-099-N.jpg","1","1","1","0","1","0","0.590824899999461","0.541997199999969","0.821972999999161","1","1","1","1","1","1","1","1","1"
"250050","img/neutralC/CFD-WF-224-099-N.jpg","img/neutralC/CFD-BM-019-002-N.jpg","img/neutralC/CFD-BF-039-031-N.jpg","1","1","1","0","0","1","0.821972999999161","0.590824899999461","2.09521109999969","1","1","1","1","1","1","1","1","1"
"250050","img/neutralC/CFD-BF-039-031-N.jpg","img/neutralC/CFD-WF-224-099-N.jpg","img/neutralC/CFD-BM-239-136-N.jpg","1","1","0","1","0","1","2.09521109999969","0.821972999999161","2.09021639999901","1","1","1","1","1","1","1","1","1"
"250050","img/neutralC/CFD-BM-239-136-N.jpg","img/neutralC/CFD-BF-039-031-N.jpg","img/neutralC/CFD-WF-250-167-N.jpg","0","1","1","1","1","1","2.09021639999901","2.09521109999969","1.19894959999965","1","1","1","1","1","1","1","1","1"
"250050","img/neutralC/CFD-WF-250-167-N.jpg","img/neutralC/CFD-BM-239-136-N.jpg","img/neutralC/CFD-BF-205-141-N.jpg","1","0","1","1","1","0","1.19894959999965","2.09021639999901","0.736084199999823","1","1","1","1","1","1","1","1","1"
"250050","img/neutralC/CFD-BF-205-141-N.jpg","img/neutralC/CFD-WF-250-167-N.jpg","img/neutralC/CFD-WM-011-002-N.jpg","1","1","1","0","1","0","0.736084199999823","1.19894959999965","0.994775899999695","1","1","1","1","1","1","1","1","1"
"250050","img/neutralC/CFD-WM-011-002-N.jpg","img/neutralC/CFD-BF-205-141-N.jpg","img/neutralC/CFD-IF-710-016-N.jpg","1","1","1","0","0","0","0.994775899999695","0.736084199999823","1.59826329999942","1","1","1","1","1","1","1","1","1"
"250050","img/neutralC/CFD-IF-710-016-N.jpg","img/neutralC/CFD-WM-011-002-N.jpg","img/neutralC/CFD-IM-651-308-N.jpg","1","1","1","0","0","0","1.59826329999942","0.994775899999695","0.677264499999183","1","1","1","1","1","1","1","1","1"
"250050","img/neutralC/CFD-IM-651-308-N.jpg","img/neutralC/CFD-IF-710-016-N.jpg","img/neutralC/CFD-LF-205-100-N.jpg","1","1","1","0","0","1","0.677264499999183","1.59826329999942","0.727369799999906","1","1","1","1","1","1","1","1","1"
"250050","img/neutralC/CFD-LF-205-100-N.jpg","img/neutralC/CFD-IM-651-308-N.jpg","img/neutralC/CFD-WF-213-031-N.jpg","1","1","1","1","0","1","0.727369799999906","0.677264499999183","0.97096049999891","1","1","1","1","1","1","1","1","1"
"250050","img/neutralC/CFD-WF-213-031-N.jpg","img/neutralC/CFD-LF-205-100-N.jpg","img/neutralC/CFD-LM-215-247-N.jpg","1","1","1","1","1","0","0.97096049999891","0.727369799999906","0.784004199999799","1","1","1","1","1","1","1","1","1"
"250050","img/neutralC/CFD-LM-215-247-N.jpg","img/neutralC/CFD-WF-213-031-N.jpg","img/neutralC/CFD-MM-316-156-N.jpg","1","1","1","0","1","1","0.784004199999799","0.97096049999891","1.32094460000008","1","1","1","1","1","1","1","1","1"
"250050","img/neutralC/CFD-MM-316-156-N.jpg","img/neutralC/CFD-LM-215-247-N.jpg","img/neutralC/CFD-AF-231-357-N.jpg","1","1","1","1","0","1","1.32094460000008","0.784004199999799","0.735495699999774","1","1","1","1","1","1","1","1","1"
"250050","img/neutralC/CFD-AF-231-357-N.jpg","img/neutralC/CFD-MM-316-156-N.jpg","img/neutralC/CFD-AM-212-050-N.jpg","1","1","1","1","1","1","0.735495699999774","1.32094460000008","0.777729699999327","1","1","1","1","1","1","1","1","1"
"250050","img/neutralC/CFD-AM-212-050-N.jpg","img/neutralC/CFD-AF-231-357-N.jpg","img/neutralC/CFD-AM-201-076-N.jpg","1","1","1","1","1","1","0.777729699999327","0.735495699999774","0.663464599999315","1","1","1","1","1","1","1","1","1"
"250050","img/neutralC/CFD-AM-201-076-N.jpg","img/neutralC/CFD-AM-212-050-N.jpg","img/neutralC/CFD-MF-337-026-N.jpg","1","1","1","1","1","1","0.663464599999315","0.777729699999327","0.807273899999927","1","1","1","1","1","1","1","1","1"
"250050","img/neutralC/CFD-MF-337-026-N.jpg","img/neutralC/CFD-AM-201-076-N.jpg","img/neutralC/CFD-BF-029-031-N.jpg","1","1","1","1","1","1","0.807273899999927","0.663464599999315","0.736033999999563","1","1","1","1","1","1","1","1","1"
"250050","img/neutralC/CFD-BF-029-031-N.jpg","img/neutralC/CFD-MF-337-026-N.jpg","img/neutralC/CFD-LF-214-090-N.jpg","1","1","1","1","1","0","0.736033999999563","0.807273899999927","0.765950799998791","1","1","1","1","1","1","1","1","1"
"250050","img/neutralC/CFD-LF-214-090-N.jpg","img/neutralC/CFD-BF-029-031-N.jpg","img/neutralC/CFD-LF-203-066-N.jpg","1","1","1","0","1","0","0.765950799998791","0.736033999999563","0.710416499999155","1","1","1","1","1","1","1","1","1"
"250050","img/neutralC/CFD-LF-203-066-N.jpg","img/neutralC/CFD-LF-214-090-N.jpg","img/neutralC/CFD-IF-693-172-N.jpg","1","1","1","0","0","0","0.710416499999155","0.765950799998791","0.617217500000152","1","1","1","1","1","1","1","1","1"
"250050","img/neutralC/CFD-IF-693-172-N.jpg","img/neutralC/CFD-LF-203-066-N.jpg","img/neutralC/CFD-WM-021-001-N.jpg","1","1","1","0","0","1","0.617217500000152","0.710416499999155","0.708151299999372","1","1","1","1","1","1","1","1","1"
"250050","img/neutralC/CFD-WM-021-001-N.jpg","img/neutralC/CFD-IF-693-172-N.jpg","img/neutralC/CFD-BF-253-202-N.jpg","1","1","1","1","0","0","0.708151299999372","0.617217500000152","0.535914199998842","1","1","1","1","1","1","1","1","1"
"250050","img/neutralC/CFD-BF-253-202-N.jpg","img/neutralC/CFD-WM-021-001-N.jpg","img/neutralC/CFD-WM-041-021-N.jpg","1","1","1","0","1","0","0.535914199998842","0.708151299999372","0.790846399999282","1","1","1","1","1","1","1","1","1"
"250050","img/neutralC/CFD-WM-041-021-N.jpg","img/neutralC/CFD-BF-253-202-N.jpg","img/neutralC/CFD-IM-684-008-N.jpg","1","1","1","0","0","1","0.790846399999282","0.535914199998842","0.786954199998945","1","1","1","1","1","1","1","1","1"
"250050","img/neutralC/CFD-IM-684-008-N.jpg","img/neutralC/CFD-WM-041-021-N.jpg","img/neutralC/CFD-LF-230-203-N.jpg","1","1","1","1","0","0","0.786954199998945","0.790846399999282","0.6678581999995","1","1","1","1","1","1","1","1","1"
"250050","img/neutralC/CFD-LF-230-203-N.jpg","img/neutralC/CFD-IM-684-008-N.jpg","img/neutralC/CFD-BM-033-003-N.jpg","1","1","1","0","1","0","0.6678581999995","0.786954199998945","0.62727089999953","1","1","1","1","1","1","1","1","1"
"250050","img/neutralC/CFD-BM-033-003-N.jpg","img/neutralC/CFD-LF-230-203-N.jpg","img/neutralC/CFD-IF-634-382-N.jpg","1","1","1","0","0","1","0.62727089999953","0.6678581999995","0.923159099999793","1","1","1","1","1","1","1","1","1"
"250050","img/neutralC/CFD-IF-634-382-N.jpg","img/neutralC/CFD-BM-033-003-N.jpg","img/neutralC/CFD-BF-213-188-N.jpg","1","1","1","1","0","1","0.923159099999793","0.62727089999953","0.558591199998773","1","1","1","1","1","1","1","1","1"
"250050","img/neutralC/CFD-BF-213-188-N.jpg","img/neutralC/CFD-IF-634-382-N.jpg","img/neutralC/CFD-LF-224-176-N.jpg","1","1","1","1","1","0","0.558591199998773","0.923159099999793","0.637102599999707","1","1","1","1","1","1","1","1","1"
"250050","img/neutralC/CFD-LF-224-176-N.jpg","img/neutralC/CFD-BF-213-188-N.jpg",NA,"1","1",NA,"0","1",NA,"0.637102599999707","0.558591199998773",NA,"1","1",NA,"1","1",NA,"1","1",NA
"250050","img/neutralC/CFD-AM-242-176-N.jpg",NA,"img/neutralC/CFD-MF-333-012-N.jpg","1",NA,"1","1",NA,"0","0.807855699998981",NA,"0.633720599999833","1",NA,"1","1",NA,"1","1",NA,"1"
"250050","img/neutralC/CFD-MF-333-012-N.jpg","img/neutralC/CFD-AM-242-176-N.jpg","img/neutralC/CFD-BM-225-154-N.jpg","1","1","1","0","1","1","0.633720599999833","0.807855699998981","0.6111822999992","1","1","1","1","1","1","1","1","1"
"250050","img/neutralC/CFD-BM-225-154-N.jpg","img/neutralC/CFD-MF-333-012-N.jpg","img/neutralC/CFD-WF-036-023-N.jpg","1","1","1","1","0","0","0.6111822999992","0.633720599999833","0.617509699998664","1","1","1","1","1","1","1","1","1"
"250050","img/neutralC/CFD-WF-036-023-N.jpg","img/neutralC/CFD-BM-225-154-N.jpg","img/neutralC/CFD-AM-251-124-N.jpg","1","1","1","0","1","0","0.617509699998664","0.6111822999992","0.522503699999106","1","1","1","1","1","1","1","1","1"
"250050","img/neutralC/CFD-AM-251-124-N.jpg","img/neutralC/CFD-WF-036-023-N.jpg","img/neutralC/CFD-WM-219-008-N.jpg","1","1","1","0","0","0","0.522503699999106","0.617509699998664","0.695493699999133","1","1","1","1","1","1","1","1","1"
"250050","img/neutralC/CFD-WM-219-008-N.jpg","img/neutralC/CFD-AM-251-124-N.jpg","img/neutralC/CFD-WM-033-025-N.jpg","1","1","1","0","0","1","0.695493699999133","0.522503699999106","0.66633069999898","1","1","1","1","1","1","1","1","1"
"250050","img/neutralC/CFD-WM-033-025-N.jpg","img/neutralC/CFD-WM-219-008-N.jpg","img/neutralC/CFD-IM-616-214-N.jpg","1","1","1","1","0","0","0.66633069999898","0.695493699999133","0.673920799999905","1","1","1","1","1","1","1","1","1"
"250050","img/neutralC/CFD-IM-616-214-N.jpg","img/neutralC/CFD-WM-033-025-N.jpg","img/neutralC/CFD-WM-235-147-N.jpg","1","1","1","0","1","0","0.673920799999905","0.66633069999898","0.509129600000051","1","1","1","1","1","1","1","1","1"
"250050","img/neutralC/CFD-WM-235-147-N.jpg","img/neutralC/CFD-IM-616-214-N.jpg","img/neutralC/CFD-WM-004-010-N.jpg","1","1","1","0","0","0","0.509129600000051","0.673920799999905","0.610632399999304","1","1","1","1","1","1","1","1","1"
"250050","img/neutralC/CFD-WM-004-010-N.jpg","img/neutralC/CFD-WM-235-147-N.jpg","img/neutralC/CFD-BF-229-179-N.jpg","1","1","1","0","0","0","0.610632399999304","0.509129600000051","0.633628999999019","1","1","1","1","1","1","1","1","1"
"250050","img/neutralC/CFD-BF-229-179-N.jpg","img/neutralC/CFD-WM-004-010-N.jpg","img/neutralC/CFD-IM-703-182-N.jpg","1","1","1","0","0","1","0.633628999999019","0.610632399999304","0.761853099998916","1","1","1","1","1","1","1","1","1"
"250050","img/neutralC/CFD-IM-703-182-N.jpg","img/neutralC/CFD-BF-229-179-N.jpg","img/neutralC/CFD-WF-200-099-N.jpg","1","1","1","1","0","0","0.761853099998916","0.633628999999019","0.786976199999117","1","1","1","1","1","1","1","1","1"
"250050","img/neutralC/CFD-WF-200-099-N.jpg","img/neutralC/CFD-IM-703-182-N.jpg","img/neutralC/CFD-LF-218-072-N.jpg","1","1","1","0","1","0","0.786976199999117","0.761853099998916","0.799276599998848","1","1","1","1","1","1","1","1","1"
"250050","img/neutralC/CFD-LF-218-072-N.jpg","img/neutralC/CFD-WF-200-099-N.jpg","img/neutralC/CFD-BF-226-119-N.jpg","1","1","1","0","0","1","0.799276599998848","0.786976199999117","0.610477599999285","1","1","1","1","1","1","1","1","1"
"250050","img/neutralC/CFD-BF-226-119-N.jpg","img/neutralC/CFD-LF-218-072-N.jpg","img/neutralC/CFD-WF-001-003-N.jpg","1","1","1","1","0","1","0.610477599999285","0.799276599998848","0.634294800000134","1","1","1","1","1","1","1","1","1"
"250050","img/neutralC/CFD-WF-001-003-N.jpg","img/neutralC/CFD-BF-226-119-N.jpg","img/neutralC/CFD-MF-359-019-N.jpg","1","1","1","1","1","0","0.634294800000134","0.610477599999285","0.685759299999518","1","1","1","1","1","1","1","1","1"
"250050","img/neutralC/CFD-MF-359-019-N.jpg","img/neutralC/CFD-WF-001-003-N.jpg","img/neutralC/CFD-BF-232-187-N.jpg","1","1","1","0","1","1","0.685759299999518","0.634294800000134","0.823908299998948","1","1","1","1","1","1","1","1","1"
"250050","img/neutralC/CFD-BF-232-187-N.jpg","img/neutralC/CFD-MF-359-019-N.jpg","img/neutralC/CFD-AM-211-052-N.jpg","1","1","1","1","0","1","0.823908299998948","0.685759299999518","1.23061859999871","1","1","1","1","1","1","1","1","1"
"250050","img/neutralC/CFD-AM-211-052-N.jpg","img/neutralC/CFD-BF-232-187-N.jpg","img/neutralC/CFD-LM-237-264-N.jpg","1","1","1","1","1","0","1.23061859999871","0.823908299998948","0.908172800000102","1","1","1","1","1","1","1","1","1"
"250050","img/neutralC/CFD-LM-237-264-N.jpg","img/neutralC/CFD-AM-211-052-N.jpg","img/neutralC/CFD-WF-214-122-N.jpg","1","1","1","0","1","1","0.908172800000102","1.23061859999871","0.568970799999988","1","1","1","1","1","1","1","1","1"
"250050","img/neutralC/CFD-WF-214-122-N.jpg","img/neutralC/CFD-LM-237-264-N.jpg","img/neutralC/CFD-LF-220-120-N.jpg","1","1","1","1","0","1","0.568970799999988","0.908172800000102","0.933100699999159","1","1","1","1","1","1","1","1","1"
"250050","img/neutralC/CFD-LF-220-120-N.jpg","img/neutralC/CFD-WF-214-122-N.jpg","img/neutralC/CFD-BM-253-004-N.jpg","1","1","1","1","1","1","0.933100699999159","0.568970799999988","0.411015399999087","1","1","1","1","1","1","1","1","1"
"250050","img/neutralC/CFD-BM-253-004-N.jpg","img/neutralC/CFD-LF-220-120-N.jpg","img/neutralC/CFD-IM-645-001-N.jpg","1","1","1","1","1","0","0.411015399999087","0.933100699999159","0.562463799999023","1","1","1","1","1","1","1","1","1"
"250050","img/neutralC/CFD-IM-645-001-N.jpg","img/neutralC/CFD-BM-253-004-N.jpg","img/neutralC/CFD-BF-038-037-N.jpg","1","1","1","0","1","1","0.562463799999023","0.411015399999087","0.434345299999222","1","1","1","1","1","1","1","1","1"
"250050","img/neutralC/CFD-BF-038-037-N.jpg","img/neutralC/CFD-IM-645-001-N.jpg","img/neutralC/CFD-MF-352-054-N.jpg","1","1","1","1","0","0","0.434345299999222","0.562463799999023","0.580946399999448","1","1","1","1","1","1","1","1","1"
"250050","img/neutralC/CFD-MF-352-054-N.jpg","img/neutralC/CFD-BF-038-037-N.jpg","img/neutralC/CFD-IM-671-601-N.jpg","1","1","1","0","1","0","0.580946399999448","0.434345299999222","0.585850599999503","1","1","1","1","1","1","1","1","1"
"250050","img/neutralC/CFD-IM-671-601-N.jpg","img/neutralC/CFD-MF-352-054-N.jpg","img/neutralC/CFD-IF-650-315-N.jpg","1","1","1","0","0","0","0.585850599999503","0.580946399999448","0.650413299998945","1","1","1","1","1","1","1","1","1"
"250050","img/neutralC/CFD-IF-650-315-N.jpg","img/neutralC/CFD-IM-671-601-N.jpg","img/neutralC/CFD-IM-743-006-N.jpg","1","1","1","0","0","1","0.650413299998945","0.585850599999503","0.687256899999738","1","1","1","1","1","1","1","1","1"
"250050","img/neutralC/CFD-IM-743-006-N.jpg","img/neutralC/CFD-IF-650-315-N.jpg","img/neutralC/CFD-IF-623-129-N.jpg","1","1","1","1","0","1","0.687256899999738","0.650413299998945","1.02945509999972","1","1","1","1","1","1","1","1","1"
"250050","img/neutralC/CFD-IF-623-129-N.jpg","img/neutralC/CFD-IM-743-006-N.jpg","img/neutralC/CFD-WM-020-001-N.jpg","1","1","1","1","1","1","1.02945509999972","0.687256899999738","0.645535699999527","1","1","1","1","1","1","1","1","1"
"250050","img/neutralC/CFD-WM-020-001-N.jpg","img/neutralC/CFD-IF-623-129-N.jpg","img/neutralC/CFD-LM-228-188-N.jpg","1","1","1","1","1","1","0.645535699999527","1.02945509999972","0.486199799999667","1","1","1","1","1","1","1","1","1"
"250050","img/neutralC/CFD-LM-228-188-N.jpg","img/neutralC/CFD-WM-020-001-N.jpg",NA,"1","1",NA,"1","1",NA,"0.486199799999667","0.645535699999527",NA,"1","1",NA,"1","1",NA,"1","1",NA
"250050","img/neutralC/CFD-AF-229-160-N.jpg",NA,"img/neutralC/CFD-IM-637-007-N.jpg","1",NA,"1","0",NA,"0","0.927441599998929",NA,"0.517621099998905","1",NA,"1","1",NA,"1","1",NA,"1"
"250050","img/neutralC/CFD-IM-637-007-N.jpg","img/neutralC/CFD-AF-229-160-N.jpg","img/neutralC/CFD-WF-012-002-N.jpg","1","1","1","0","0","1","0.517621099998905","0.927441599998929","0.626670899999226","1","1","1","1","1","1","1","1","1"
"250050","img/neutralC/CFD-WF-012-002-N.jpg","img/neutralC/CFD-IM-637-007-N.jpg","img/neutralC/CFD-BF-224-002-N.jpg","1","1","1","1","0","1","0.626670899999226","0.517621099998905","0.47233949999918","1","1","1","1","1","1","1","1","1"
"250050","img/neutralC/CFD-BF-224-002-N.jpg","img/neutralC/CFD-WF-012-002-N.jpg","img/neutralC/CFD-BM-243-218-N.jpg","1","1","1","1","1","1","0.47233949999918","0.626670899999226","0.766857699999491","1","1","1","1","1","1","1","1","1"
"250050","img/neutralC/CFD-BM-243-218-N.jpg","img/neutralC/CFD-BF-224-002-N.jpg","img/neutralC/CFD-WM-232-070-N.jpg","1","1","1","1","1","0","0.766857699999491","0.47233949999918","0.623912799999744","1","1","1","1","1","1","1","1","1"
"250050","img/neutralC/CFD-WM-232-070-N.jpg","img/neutralC/CFD-BM-243-218-N.jpg","img/neutralC/CFD-IM-685-004-N.jpg","1","1","1","0","1","1","0.623912799999744","0.766857699999491","0.764521599999171","1","1","1","1","1","1","1","1","1"
"250050","img/neutralC/CFD-IM-685-004-N.jpg","img/neutralC/CFD-WM-232-070-N.jpg","img/neutralC/CFD-MM-304-002-N.jpg","1","1","1","1","0","1","0.764521599999171","0.623912799999744","0.614030199999434","1","1","1","1","1","1","1","1","1"
"250050","img/neutralC/CFD-MM-304-002-N.jpg","img/neutralC/CFD-IM-685-004-N.jpg","img/neutralC/CFD-MF-327-002-N.jpg","1","1","1","1","1","0","0.614030199999434","0.764521599999171","0.555328299999019","1","1","1","1","1","1","1","1","1"
"250050","img/neutralC/CFD-MF-327-002-N.jpg","img/neutralC/CFD-MM-304-002-N.jpg","img/neutralC/CFD-AM-236-090-N.jpg","1","1","1","0","1","1","0.555328299999019","0.614030199999434","0.578951399999823","1","1","1","1","1","1","1","1","1"
"250050","img/neutralC/CFD-AM-236-090-N.jpg","img/neutralC/CFD-MF-327-002-N.jpg","img/neutralC/CFD-IM-604-014-N.jpg","1","1","1","1","0","0","0.578951399999823","0.555328299999019","0.741838799999641","1","1","1","1","1","1","1","1","1"
"250050","img/neutralC/CFD-IM-604-014-N.jpg","img/neutralC/CFD-AM-236-090-N.jpg","img/neutralC/CFD-WF-008-002-N.jpg","1","1","1","0","1","1","0.741838799999641","0.578951399999823","0.540369800000008","1","1","1","1","1","1","1","1","1"
"250050","img/neutralC/CFD-WF-008-002-N.jpg","img/neutralC/CFD-IM-604-014-N.jpg","img/neutralC/CFD-WF-217-085-N.jpg","1","1","1","1","0","1","0.540369800000008","0.741838799999641","0.532229199999165","1","1","1","1","1","1","1","1","1"
"250050","img/neutralC/CFD-WF-217-085-N.jpg","img/neutralC/CFD-WF-008-002-N.jpg","img/neutralC/CFD-BF-051-035-N.jpg","1","1","1","1","1","0","0.532229199999165","0.540369800000008","0.58701629999905","1","1","1","1","1","1","1","1","1"
"250050","img/neutralC/CFD-BF-051-035-N.jpg","img/neutralC/CFD-WF-217-085-N.jpg","img/neutralC/CFD-IM-675-015-N.jpg","1","1","1","0","1","1","0.58701629999905","0.532229199999165","0.502640899999278","1","1","1","1","1","1","1","1","1"
"250050","img/neutralC/CFD-IM-675-015-N.jpg","img/neutralC/CFD-BF-051-035-N.jpg","img/neutralC/CFD-WM-024-015-N.jpg","1","1","1","1","0","1","0.502640899999278","0.58701629999905","0.652094899999611","1","1","1","1","1","1","1","1","1"
"250050","img/neutralC/CFD-WM-024-015-N.jpg","img/neutralC/CFD-IM-675-015-N.jpg","img/neutralC/CFD-IF-619-197-N.jpg","1","1","1","1","1","0","0.652094899999611","0.502640899999278","0.503336300000228","1","1","1","1","1","1","1","1","1"
"250050","img/neutralC/CFD-IF-619-197-N.jpg","img/neutralC/CFD-WM-024-015-N.jpg","img/neutralC/CFD-MF-300-002-N.jpg","1","1","1","0","1","0","0.503336300000228","0.652094899999611","0.583007899999757","1","1","1","1","1","1","1","1","1"
"250050","img/neutralC/CFD-MF-300-002-N.jpg","img/neutralC/CFD-IF-619-197-N.jpg","img/neutralC/CFD-BF-043-003-N.jpg","1","1","1","0","0","0","0.583007899999757","0.503336300000228","0.546015399999305","1","1","1","1","1","1","1","1","1"
"250050","img/neutralC/CFD-BF-043-003-N.jpg","img/neutralC/CFD-MF-300-002-N.jpg","img/neutralC/CFD-MF-329-001-N.jpg","1","1","1","0","0","0","0.546015399999305","0.583007899999757","0.538391699999011","1","1","1","1","1","1","1","1","1"
"250050","img/neutralC/CFD-MF-329-001-N.jpg","img/neutralC/CFD-BF-043-003-N.jpg","img/neutralC/CFD-LF-201-035-N.jpg","1","1","1","0","0","1","0.538391699999011","0.546015399999305","0.452082599999812","1","1","1","1","1","1","1","1","1"
"250050","img/neutralC/CFD-LF-201-035-N.jpg","img/neutralC/CFD-MF-329-001-N.jpg","img/neutralC/CFD-LM-217-162-N.jpg","1","1","1","1","0","0","0.452082599999812","0.538391699999011","0.748996799999077","1","1","1","1","1","1","1","1","1"
"250050","img/neutralC/CFD-LM-217-162-N.jpg","img/neutralC/CFD-LF-201-035-N.jpg","img/neutralC/CFD-MF-340-026-N.jpg","1","1","1","0","1","1","0.748996799999077","0.452082599999812","0.50686179999866","1","1","1","1","1","1","1","1","1"
"250050","img/neutralC/CFD-MF-340-026-N.jpg","img/neutralC/CFD-LM-217-162-N.jpg","img/neutralC/CFD-AF-254-167-N.jpg","1","1","1","1","0","1","0.50686179999866","0.748996799999077","0.529057199999443","1","1","1","1","1","1","1","1","1"
"250050","img/neutralC/CFD-AF-254-167-N.jpg","img/neutralC/CFD-MF-340-026-N.jpg","img/neutralC/CFD-WM-213-076-N.jpg","1","1","1","1","1","1","0.529057199999443","0.50686179999866","0.726100899999437","1","1","1","1","1","1","1","1","1"
"250050","img/neutralC/CFD-WM-213-076-N.jpg","img/neutralC/CFD-AF-254-167-N.jpg","img/neutralC/CFD-IF-608-390-N.jpg","1","1","1","1","1","1","0.726100899999437","0.529057199999443","0.694766499999787","1","1","1","1","1","1","1","1","1"
"250050","img/neutralC/CFD-IF-608-390-N.jpg","img/neutralC/CFD-WM-213-076-N.jpg","img/neutralC/CFD-IM-709-103-N.jpg","1","1","1","1","1","0","0.694766499999787","0.726100899999437","0.833568499999274","1","1","1","1","1","1","1","1","1"
"250050","img/neutralC/CFD-IM-709-103-N.jpg","img/neutralC/CFD-IF-608-390-N.jpg","img/neutralC/CFD-AF-215-70-N.jpg","1","1","1","0","1","0","0.833568499999274","0.694766499999787","0.589278999999806","1","1","1","1","1","1","1","1","1"
"250050","img/neutralC/CFD-AF-215-70-N.jpg","img/neutralC/CFD-IM-709-103-N.jpg","img/neutralC/CFD-WF-212-050-N.jpg","1","1","1","0","0","0","0.589278999999806","0.833568499999274","0.53157839999858","1","1","1","1","1","1","1","1","1"
"250050","img/neutralC/CFD-WF-212-050-N.jpg","img/neutralC/CFD-AF-215-70-N.jpg","img/neutralC/CFD-WF-248-129-N.jpg","1","1","1","0","0","0","0.53157839999858","0.589278999999806","0.403371999999763","1","1","1","1","1","1","1","1","1"
"250050","img/neutralC/CFD-WF-248-129-N.jpg","img/neutralC/CFD-WF-212-050-N.jpg","img/neutralC/CFD-LF-226-174-N.jpg","1","1","1","0","0","0","0.403371999999763","0.53157839999858","0.602616299999681","1","1","1","1","1","1","1","1","1"
"250050","img/neutralC/CFD-LF-226-174-N.jpg","img/neutralC/CFD-WF-248-129-N.jpg","img/neutralC/CFD-BM-039-029-N.jpg","1","1","1","0","0","1","0.602616299999681","0.403371999999763","1.14522369999941","1","1","1","1","1","1","1","1","1"
"250050","img/neutralC/CFD-BM-039-029-N.jpg","img/neutralC/CFD-LF-226-174-N.jpg",NA,"1","1",NA,"1","0",NA,"1.14522369999941","0.602616299999681",NA,"1","1",NA,"1","1",NA,"1","1",NA
"250050","img/neutralC/CFD-IM-738-191-N.jpg",NA,"img/neutralC/CFD-BM-013-002-N.jpg","0",NA,"1","0",NA,"1","1.09301109999979",NA,"0.568195699999706","1",NA,"1","1",NA,"1","1",NA,"1"
"250050","img/neutralC/CFD-BM-013-002-N.jpg","img/neutralC/CFD-IM-738-191-N.jpg","img/neutralC/CFD-LF-225-164-N.jpg","1","0","1","1","0","1","0.568195699999706","1.09301109999979","0.583330899999055","1","1","1","1","1","1","1","1","1"
"250050","img/neutralC/CFD-LF-225-164-N.jpg","img/neutralC/CFD-BM-013-002-N.jpg","img/neutralC/CFD-BM-010-003-N.jpg","1","1","1","1","1","0","0.583330899999055","0.568195699999706","0.653909299999214","1","1","1","1","1","1","1","1","1"
"250050","img/neutralC/CFD-BM-010-003-N.jpg","img/neutralC/CFD-LF-225-164-N.jpg","img/neutralC/CFD-LF-241-188-N.jpg","1","1","1","0","1","0","0.653909299999214","0.583330899999055","0.601525399999446","1","1","1","1","1","1","1","1","1"
"250050","img/neutralC/CFD-LF-241-188-N.jpg","img/neutralC/CFD-BM-010-003-N.jpg","img/neutralC/CFD-IF-744-114-N.jpg","1","1","1","0","0","0","0.601525399999446","0.653909299999214","0.564177100000052","1","1","1","1","1","1","1","1","1"
"250050","img/neutralC/CFD-IF-744-114-N.jpg","img/neutralC/CFD-LF-241-188-N.jpg","img/neutralC/CFD-AF-227-207-N.jpg","1","1","1","0","0","1","0.564177100000052","0.601525399999446","0.608345099999497","1","1","1","1","1","1","1","1","1"
"250050","img/neutralC/CFD-AF-227-207-N.jpg","img/neutralC/CFD-IF-744-114-N.jpg","img/neutralC/CFD-MF-336-016-N.jpg","1","1","1","1","0","1","0.608345099999497","0.564177100000052","0.551815599999827","1","1","1","1","1","1","1","1","1"
"250050","img/neutralC/CFD-MF-336-016-N.jpg","img/neutralC/CFD-AF-227-207-N.jpg","img/neutralC/CFD-AM-221-184-N.jpg","1","1","1","1","1","1","0.551815599999827","0.608345099999497","0.539268800000173","1","1","1","1","1","1","1","1","1"
"250050","img/neutralC/CFD-AM-221-184-N.jpg","img/neutralC/CFD-MF-336-016-N.jpg","img/neutralC/CFD-BM-213-134-N.jpg","1","1","1","1","1","1","0.539268800000173","0.551815599999827","0.521980900000017","1","1","1","1","1","1","1","1","1"
"250050","img/neutralC/CFD-BM-213-134-N.jpg","img/neutralC/CFD-AM-221-184-N.jpg","img/neutralC/CFD-BM-028-002-N.jpg","1","1","1","1","1","1","0.521980900000017","0.539268800000173","0.851417099999708","1","1","1","1","1","1","1","1","1"
"250050","img/neutralC/CFD-BM-028-002-N.jpg","img/neutralC/CFD-BM-213-134-N.jpg","img/neutralC/CFD-LF-208-127-N.jpg","1","1","1","1","1","0","0.851417099999708","0.521980900000017","0.519922599999518","1","1","1","1","1","1","1","1","1"
"250050","img/neutralC/CFD-LF-208-127-N.jpg","img/neutralC/CFD-BM-028-002-N.jpg","img/neutralC/CFD-WF-006-002-N.jpg","1","1","1","0","1","0","0.519922599999518","0.851417099999708","0.530684499999552","1","1","1","1","1","1","1","1","1"
"250050","img/neutralC/CFD-WF-006-002-N.jpg","img/neutralC/CFD-LF-208-127-N.jpg","img/neutralC/CFD-BF-004-014-N.jpg","1","1","1","0","0","1","0.530684499999552","0.519922599999518","0.785808199999337","1","1","1","1","1","1","1","1","1"
"250050","img/neutralC/CFD-BF-004-014-N.jpg","img/neutralC/CFD-WF-006-002-N.jpg","img/neutralC/CFD-WM-228-065-N.jpg","1","1","1","1","0","0","0.785808199999337","0.530684499999552","0.619014799999604","1","1","1","1","1","1","1","1","1"
"250050","img/neutralC/CFD-WM-228-065-N.jpg","img/neutralC/CFD-BF-004-014-N.jpg","img/neutralC/CFD-MF-312-002-N.jpg","1","1","1","0","1","1","0.619014799999604","0.785808199999337","0.741478299999471","1","1","1","1","1","1","1","1","1"
"250050","img/neutralC/CFD-MF-312-002-N.jpg","img/neutralC/CFD-WM-228-065-N.jpg","img/neutralC/CFD-WF-033-002-N.jpg","1","1","1","1","0","1","0.741478299999471","0.619014799999604","0.678771599999891","1","1","1","1","1","1","1","1","1"
"250050","img/neutralC/CFD-WF-033-002-N.jpg","img/neutralC/CFD-MF-312-002-N.jpg","img/neutralC/CFD-LF-210-220-N.jpg","1","1","1","1","1","1","0.678771599999891","0.741478299999471","0.579127199998766","1","1","1","1","1","1","1","1","1"
"250050","img/neutralC/CFD-LF-210-220-N.jpg","img/neutralC/CFD-WF-033-002-N.jpg","img/neutralC/CFD-BM-003-003-N.jpg","1","1","0","1","1","0","0.579127199998766","0.678771599999891","1.10408319999897","1","1","1","1","1","1","1","1","1"
"250050","img/neutralC/CFD-BM-003-003-N.jpg","img/neutralC/CFD-LF-210-220-N.jpg","img/neutralC/CFD-IM-701-312-N.jpg","0","1","1","0","1","0","1.10408319999897","0.579127199998766","0.561662199998864","1","1","1","1","1","1","1","1","1"
"250050","img/neutralC/CFD-IM-701-312-N.jpg","img/neutralC/CFD-BM-003-003-N.jpg","img/neutralC/CFD-WM-254-152-N.jpg","1","0","1","0","0","1","0.561662199998864","1.10408319999897","0.677603999999519","1","1","1","1","1","1","1","1","1"
"250050","img/neutralC/CFD-WM-254-152-N.jpg","img/neutralC/CFD-IM-701-312-N.jpg","img/neutralC/CFD-AF-239-171-N.jpg","1","1","1","1","0","1","0.677603999999519","0.561662199998864","0.931006599999819","1","1","1","1","1","1","1","1","1"
"250050","img/neutralC/CFD-AF-239-171-N.jpg","img/neutralC/CFD-WM-254-152-N.jpg","img/neutralC/CFD-BF-045-003-N.jpg","1","1","1","1","1","0","0.931006599999819","0.677603999999519","0.549563399998988","1","1","1","1","1","1","1","1","1"
"250050","img/neutralC/CFD-BF-045-003-N.jpg","img/neutralC/CFD-AF-239-171-N.jpg","img/neutralC/CFD-IM-659-359-N.jpg","1","1","0","0","1","0","0.549563399998988","0.931006599999819","1.91221239999959","1","1","1","1","1","1","1","1","1"
"250050","img/neutralC/CFD-IM-659-359-N.jpg","img/neutralC/CFD-BF-045-003-N.jpg","img/neutralC/CFD-WM-202-107-N.jpg","0","1","1","0","0","1","1.91221239999959","0.549563399998988","0.639846999999463","1","1","1","1","1","1","1","1","1"
"250050","img/neutralC/CFD-WM-202-107-N.jpg","img/neutralC/CFD-IM-659-359-N.jpg","img/neutralC/CFD-WF-223-133-N.jpg","1","0","1","1","0","0","0.639846999999463","1.91221239999959","0.707106099999692","1","1","1","1","1","1","1","1","1"
"250050","img/neutralC/CFD-WF-223-133-N.jpg","img/neutralC/CFD-WM-202-107-N.jpg","img/neutralC/CFD-IF-625-225-N.jpg","1","1","1","0","1","0","0.707106099999692","0.639846999999463","0.567219899999145","1","1","1","1","1","1","1","1","1"
"250050","img/neutralC/CFD-IF-625-225-N.jpg","img/neutralC/CFD-WF-223-133-N.jpg","img/neutralC/CFD-LM-247-095-N.jpg","1","1","1","0","0","0","0.567219899999145","0.707106099999692","0.577828099999351","1","1","1","1","1","1","1","1","1"
"250050","img/neutralC/CFD-LM-247-095-N.jpg","img/neutralC/CFD-IF-625-225-N.jpg","img/neutralC/CFD-BF-222-240-N.jpg","1","1","1","0","0","0","0.577828099999351","0.567219899999145","0.590804599999501","1","1","1","1","1","1","1","1","1"
"250050","img/neutralC/CFD-BF-222-240-N.jpg","img/neutralC/CFD-LM-247-095-N.jpg","img/neutralC/CFD-IF-673-389-N.jpg","1","1","1","0","0","0","0.590804599999501","0.577828099999351","0.642356199999085","1","1","1","1","1","1","1","1","1"
"250050","img/neutralC/CFD-IF-673-389-N.jpg","img/neutralC/CFD-BF-222-240-N.jpg","img/neutralC/CFD-LM-238-129-N.jpg","1","1","1","0","0","1","0.642356199999085","0.590804599999501","0.486225699999522","1","1","1","1","1","1","1","1","1"
"250050","img/neutralC/CFD-LM-238-129-N.jpg","img/neutralC/CFD-IF-673-389-N.jpg","img/neutralC/CFD-AF-210-050-N.jpg","1","1","1","1","0","1","0.486225699999522","0.642356199999085","0.755557699999372","1","1","1","1","1","1","1","1","1"
"250050","img/neutralC/CFD-AF-210-050-N.jpg","img/neutralC/CFD-LM-238-129-N.jpg",NA,"1","1",NA,"1","1",NA,"0.755557699999372","0.486225699999522",NA,"1","1",NA,"1","1",NA,"1","1",NA
"250050","img/neutralC/CFD-BF-020-002-N.jpg",NA,"img/neutralC/CFD-BM-004-002-N.jpg","1",NA,"1","1",NA,"0","0.763199299998632",NA,"0.636401599999772","1",NA,"1","1",NA,"1","1",NA,"1"
"250050","img/neutralC/CFD-BM-004-002-N.jpg","img/neutralC/CFD-BF-020-002-N.jpg","img/neutralC/CFD-AM-245-111-N.jpg","1","1","1","0","1","1","0.636401599999772","0.763199299998632","0.478553699998884","1","1","1","1","1","1","1","1","1"
"250050","img/neutralC/CFD-AM-245-111-N.jpg","img/neutralC/CFD-BM-004-002-N.jpg","img/neutralC/CFD-LM-241-125-N.jpg","1","1","1","1","0","1","0.478553699998884","0.636401599999772","0.500477299999147","1","1","1","1","1","1","1","1","1"
"250050","img/neutralC/CFD-LM-241-125-N.jpg","img/neutralC/CFD-AM-245-111-N.jpg","img/neutralC/CFD-AF-244-168-N.jpg","1","1","1","1","1","0","0.500477299999147","0.478553699998884","0.472109299999829","1","1","1","1","1","1","1","1","1"
"250050","img/neutralC/CFD-AF-244-168-N.jpg","img/neutralC/CFD-LM-241-125-N.jpg","img/neutralC/CFD-AM-225-102-N.jpg","1","1","1","0","1","0","0.472109299999829","0.500477299999147","0.534236399999827","1","1","1","1","1","1","1","1","1"
"250050","img/neutralC/CFD-AM-225-102-N.jpg","img/neutralC/CFD-AF-244-168-N.jpg","img/neutralC/CFD-WM-253-119-N.jpg","1","1","1","0","0","1","0.534236399999827","0.472109299999829","0.644556399999601","1","1","1","1","1","1","1","1","1"
"250050","img/neutralC/CFD-WM-253-119-N.jpg","img/neutralC/CFD-AM-225-102-N.jpg","img/neutralC/CFD-AF-246-242-N.jpg","1","1","1","1","0","0","0.644556399999601","0.534236399999827","0.653622099999666","1","1","1","1","1","1","1","1","1"
"250050","img/neutralC/CFD-AF-246-242-N.jpg","img/neutralC/CFD-WM-253-119-N.jpg","img/neutralC/CFD-IF-732-260-N.jpg","1","1","1","0","1","0","0.653622099999666","0.644556399999601","0.560296499999822","1","1","1","1","1","1","1","1","1"
"250050","img/neutralC/CFD-IF-732-260-N.jpg","img/neutralC/CFD-AF-246-242-N.jpg","img/neutralC/CFD-IM-678-482-N.jpg","1","1","1","0","0","0","0.560296499999822","0.653622099999666","1.03439129999879","1","1","1","1","1","1","1","1","1"
"250050","img/neutralC/CFD-IM-678-482-N.jpg","img/neutralC/CFD-IF-732-260-N.jpg","img/neutralC/CFD-BF-217-189-N.jpg","1","1","1","0","0","0","1.03439129999879","0.560296499999822","0.632284999999683","1","1","1","1","1","1","1","1","1"
"250050","img/neutralC/CFD-BF-217-189-N.jpg","img/neutralC/CFD-IM-678-482-N.jpg","img/neutralC/CFD-AF-234-208-N.jpg","1","1","1","0","0","1","0.632284999999683","1.03439129999879","0.817563499998869","1","1","1","1","1","1","1","1","1"
"250050","img/neutralC/CFD-AF-234-208-N.jpg","img/neutralC/CFD-BF-217-189-N.jpg","img/neutralC/CFD-AF-250-200-N.jpg","1","1","1","1","0","1","0.817563499998869","0.632284999999683","1.00610959999904","1","1","1","1","1","1","1","1","1"
"250050","img/neutralC/CFD-AF-250-200-N.jpg","img/neutralC/CFD-AF-234-208-N.jpg","img/neutralC/CFD-WF-210-086-N.jpg","1","1","1","1","1","0","1.00610959999904","0.817563499998869","0.721089999999094","1","1","1","1","1","1","1","1","1"
"250050","img/neutralC/CFD-WF-210-086-N.jpg","img/neutralC/CFD-AF-250-200-N.jpg","img/neutralC/CFD-MF-302-027-N.jpg","1","1","1","0","1","0","0.721089999999094","1.00610959999904","0.801101099999869","1","1","1","1","1","1","1","1","1"
"250050","img/neutralC/CFD-MF-302-027-N.jpg","img/neutralC/CFD-WF-210-086-N.jpg","img/neutralC/CFD-WM-018-002-N.jpg","1","1","1","0","0","0","0.801101099999869","0.721089999999094","0.893723000000136","1","1","1","1","1","1","1","1","1"
"250050","img/neutralC/CFD-WM-018-002-N.jpg","img/neutralC/CFD-MF-302-027-N.jpg","img/neutralC/CFD-BF-042-026-N.jpg","1","1","1","0","0","1","0.893723000000136","0.801101099999869","0.694052499999088","1","1","1","1","1","1","1","1","1"
"250050","img/neutralC/CFD-BF-042-026-N.jpg","img/neutralC/CFD-WM-018-002-N.jpg","img/neutralC/CFD-BF-206-143-N.jpg","1","1","1","1","0","1","0.694052499999088","0.893723000000136","0.768667800000003","1","1","1","1","1","1","1","1","1"
"250050","img/neutralC/CFD-BF-206-143-N.jpg","img/neutralC/CFD-BF-042-026-N.jpg","img/neutralC/CFD-IM-635-010-N.jpg","1","1","1","1","1","1","0.768667800000003","0.694052499999088","0.561349599998721","1","1","1","1","1","1","1","1","1"
"250050","img/neutralC/CFD-IM-635-010-N.jpg","img/neutralC/CFD-BF-206-143-N.jpg","img/neutralC/CFD-BM-215-155-N.jpg","1","1","1","1","1","0","0.561349599998721","0.768667800000003","1.14665530000002","1","1","1","1","1","1","1","1","1"
"250050","img/neutralC/CFD-BM-215-155-N.jpg","img/neutralC/CFD-IM-635-010-N.jpg","img/neutralC/CFD-LM-204-001-N.jpg","1","1","1","0","1","0","1.14665530000002","0.561349599998721","1.44047659999978","1","1","1","1","1","1","1","1","1"
"250050","img/neutralC/CFD-LM-204-001-N.jpg","img/neutralC/CFD-BM-215-155-N.jpg","img/neutralC/CFD-WF-235-121-N.jpg","1","1","1","0","0","0","1.44047659999978","1.14665530000002","0.722091799999362","1","1","1","1","1","1","1","1","1"
"250050","img/neutralC/CFD-WF-235-121-N.jpg","img/neutralC/CFD-LM-204-001-N.jpg","img/neutralC/CFD-AF-213-126-N.jpg","1","1","1","0","0","1","0.722091799999362","1.44047659999978","0.54729689999931","1","1","1","1","1","1","1","1","1"
"250050","img/neutralC/CFD-AF-213-126-N.jpg","img/neutralC/CFD-WF-235-121-N.jpg","img/neutralC/CFD-BF-235-168-N.jpg","1","1","1","1","0","1","0.54729689999931","0.722091799999362","0.938118699998995","1","1","1","1","1","1","1","1","1"
"250050","img/neutralC/CFD-BF-235-168-N.jpg","img/neutralC/CFD-AF-213-126-N.jpg","img/neutralC/CFD-IM-632-097-N.jpg","1","1","1","1","1","0","0.938118699998995","0.54729689999931","0.741242999998576","1","1","1","1","1","1","1","1","1"
"250050","img/neutralC/CFD-IM-632-097-N.jpg","img/neutralC/CFD-BF-235-168-N.jpg","img/neutralC/CFD-MF-307-002-N.jpg","1","1","1","0","1","1","0.741242999998576","0.938118699998995","0.65669109999908","1","1","1","1","1","1","1","1","1"
"250050","img/neutralC/CFD-MF-307-002-N.jpg","img/neutralC/CFD-IM-632-097-N.jpg","img/neutralC/CFD-IM-669-111-N.jpg","1","1","1","1","0","1","0.65669109999908","0.741242999998576","0.55591319999894","1","1","1","1","1","1","1","1","1"
"250050","img/neutralC/CFD-IM-669-111-N.jpg","img/neutralC/CFD-MF-307-002-N.jpg","img/neutralC/CFD-AM-233-236-N.jpg","1","1","1","1","1","1","0.55591319999894","0.65669109999908","0.789989999999307","1","1","1","1","1","1","1","1","1"
"250050","img/neutralC/CFD-AM-233-236-N.jpg","img/neutralC/CFD-IM-669-111-N.jpg","img/neutralC/CFD-AF-205-155-N.jpg","1","1","1","1","1","0","0.789989999999307","0.55591319999894","0.660041599999204","1","1","1","1","1","1","1","1","1"
"250050","img/neutralC/CFD-AF-205-155-N.jpg","img/neutralC/CFD-AM-233-236-N.jpg","img/neutralC/CFD-IF-636-011-N.jpg","1","1","1","0","1","1","0.660041599999204","0.789989999999307","0.512775599999259","1","1","1","1","1","1","1","1","1"
"250050","img/neutralC/CFD-IF-636-011-N.jpg","img/neutralC/CFD-AF-205-155-N.jpg","img/neutralC/CFD-BF-040-003-N.jpg","1","1","1","1","0","1","0.512775599999259","0.660041599999204","0.42417899999964","1","1","1","1","1","1","1","1","1"
"250050","img/neutralC/CFD-BF-040-003-N.jpg","img/neutralC/CFD-IF-636-011-N.jpg","img/neutralC/CFD-LF-239-148-N.jpg","1","1","1","1","1","0","0.42417899999964","0.512775599999259","0.618862399999671","1","1","1","1","1","1","1","1","1"
"250050","img/neutralC/CFD-LF-239-148-N.jpg","img/neutralC/CFD-BF-040-003-N.jpg",NA,"1","1",NA,"0","1",NA,"0.618862399999671","0.42417899999964",NA,"1","1",NA,"1","1",NA,"1","1",NA
"250050","img/neutralC/CFD-IM-646-023-N.jpg",NA,"img/neutralC/CFD-WM-006-002-N.jpg","1",NA,"1","1",NA,"0","0.9581591999995",NA,"0.52389949999997","1",NA,"1","1",NA,"1","1",NA,"1"
"250050","img/neutralC/CFD-WM-006-002-N.jpg","img/neutralC/CFD-IM-646-023-N.jpg","img/neutralC/CFD-BF-041-001-N.jpg","1","1","1","0","1","1","0.52389949999997","0.9581591999995","0.450110199999472","1","1","1","1","1","1","1","1","1"
"250050","img/neutralC/CFD-BF-041-001-N.jpg","img/neutralC/CFD-WM-006-002-N.jpg","img/neutralC/CFD-WF-005-010-N.jpg","1","1","1","1","0","0","0.450110199999472","0.52389949999997","0.601847199999611","1","1","1","1","1","1","1","1","1"
"250050","img/neutralC/CFD-WF-005-010-N.jpg","img/neutralC/CFD-BF-041-001-N.jpg","img/neutralC/CFD-WM-249-239-N.jpg","1","1","1","0","1","1","0.601847199999611","0.450110199999472","0.464707499999349","1","1","1","1","1","1","1","1","1"
"250050","img/neutralC/CFD-WM-249-239-N.jpg","img/neutralC/CFD-WF-005-010-N.jpg","img/neutralC/CFD-BF-228-212-N.jpg","1","1","1","1","0","0","0.464707499999349","0.601847199999611","0.476040599998669","1","1","1","1","1","1","1","1","1"
"250050","img/neutralC/CFD-BF-228-212-N.jpg","img/neutralC/CFD-WM-249-239-N.jpg","img/neutralC/CFD-WF-228-196-N.jpg","1","1","1","0","1","0","0.476040599998669","0.464707499999349","0.547279099999287","1","1","1","1","1","1","1","1","1"
"250050","img/neutralC/CFD-WF-228-196-N.jpg","img/neutralC/CFD-BF-228-212-N.jpg","img/neutralC/CFD-BF-212-315-N.jpg","1","1","1","0","0","1","0.547279099999287","0.476040599998669","0.611714999999094","1","1","1","1","1","1","1","1","1"
"250050","img/neutralC/CFD-BF-212-315-N.jpg","img/neutralC/CFD-WF-228-196-N.jpg","img/neutralC/CFD-BM-248-128-N.jpg","1","1","1","1","0","0","0.611714999999094","0.547279099999287","0.561005399998976","1","1","1","1","1","1","1","1","1"
"250050","img/neutralC/CFD-BM-248-128-N.jpg","img/neutralC/CFD-BF-212-315-N.jpg","img/neutralC/CFD-BF-202-109-N.jpg","1","1","1","0","1","1","0.561005399998976","0.611714999999094","0.569993899999645","1","1","1","1","1","1","1","1","1"
"250050","img/neutralC/CFD-BF-202-109-N.jpg","img/neutralC/CFD-BM-248-128-N.jpg","img/neutralC/CFD-WM-019-003-N.jpg","1","1","1","1","0","1","0.569993899999645","0.561005399998976","0.645808499999475","1","1","1","1","1","1","1","1","1"
"250050","img/neutralC/CFD-WM-019-003-N.jpg","img/neutralC/CFD-BF-202-109-N.jpg","img/neutralC/CFD-MF-335-002-N.jpg","1","1","1","1","1","0","0.645808499999475","0.569993899999645","0.416334799999277","1","1","1","1","1","1","1","1","1"
"250050","img/neutralC/CFD-MF-335-002-N.jpg","img/neutralC/CFD-WM-019-003-N.jpg","img/neutralC/CFD-BF-025-002-N.jpg","1","1","1","0","1","0","0.416334799999277","0.645808499999475","0.626150099998995","1","1","1","1","1","1","1","1","1"
"250050","img/neutralC/CFD-BF-025-002-N.jpg","img/neutralC/CFD-MF-335-002-N.jpg","img/neutralC/CFD-WF-017-003-N.jpg","1","1","1","0","0","1","0.626150099998995","0.416334799999277","0.509900000000016","1","1","1","1","1","1","1","1","1"
"250050","img/neutralC/CFD-WF-017-003-N.jpg","img/neutralC/CFD-BF-025-002-N.jpg","img/neutralC/CFD-WM-012-001-N.jpg","1","1","1","1","0","1","0.509900000000016","0.626150099998995","0.583394099999168","1","1","1","1","1","1","1","1","1"
"250050","img/neutralC/CFD-WM-012-001-N.jpg","img/neutralC/CFD-WF-017-003-N.jpg","img/neutralC/CFD-WM-026-001-N.jpg","1","1","1","1","1","1","0.583394099999168","0.509900000000016","0.755094699999063","1","1","1","1","1","1","1","1","1"
"250050","img/neutralC/CFD-WM-026-001-N.jpg","img/neutralC/CFD-WM-012-001-N.jpg","img/neutralC/CFD-IF-642-295-N.jpg","1","1","1","1","1","1","0.755094699999063","0.583394099999168","0.862140799999906","1","1","1","1","1","1","1","1","1"
"250050","img/neutralC/CFD-IF-642-295-N.jpg","img/neutralC/CFD-WM-026-001-N.jpg","img/neutralC/CFD-AF-240-206-N.jpg","1","1","1","1","1","0","0.862140799999906","0.755094699999063","0.665976799999953","1","1","1","1","1","1","1","1","1"
"250050","img/neutralC/CFD-AF-240-206-N.jpg","img/neutralC/CFD-IF-642-295-N.jpg","img/neutralC/CFD-LM-244-068-N.jpg","1","1","1","0","1","1","0.665976799999953","0.862140799999906","0.50714489999973","1","1","1","1","1","1","1","1","1"
"250050","img/neutralC/CFD-LM-244-068-N.jpg","img/neutralC/CFD-AF-240-206-N.jpg","img/neutralC/CFD-MF-309-002-N.jpg","1","1","1","1","0","0","0.50714489999973","0.665976799999953","0.542711099998996","1","1","1","1","1","1","1","1","1"
"250050","img/neutralC/CFD-MF-309-002-N.jpg","img/neutralC/CFD-LM-244-068-N.jpg","img/neutralC/CFD-AM-247-165-N.jpg","1","1","1","0","1","1","0.542711099998996","0.50714489999973","0.468332199999168","1","1","1","1","1","1","1","1","1"
"250050","img/neutralC/CFD-AM-247-165-N.jpg","img/neutralC/CFD-MF-309-002-N.jpg","img/neutralC/CFD-MM-317-061-N.jpg","1","1","0","1","0","1","0.468332199999168","0.542711099998996","0.310912399999324","1","1","1","1","1","1","1","1","2"
"250050","img/neutralC/CFD-MM-317-061-N.jpg","img/neutralC/CFD-AM-247-165-N.jpg","img/neutralC/CFD-IM-648-337-N.jpg","0","1","1","1","1","0","0.310912399999324","0.468332199999168","0.688930399999663","1","1","1","1","1","1","2","1","1"
"250050","img/neutralC/CFD-IM-648-337-N.jpg","img/neutralC/CFD-MM-317-061-N.jpg","img/neutralC/CFD-BM-205-001-N.jpg","1","0","1","0","1","0","0.688930399999663","0.310912399999324","0.489241199999924","1","1","1","1","1","1","1","2","1"
"250050","img/neutralC/CFD-BM-205-001-N.jpg","img/neutralC/CFD-IM-648-337-N.jpg","img/neutralC/CFD-BM-251-013-N.jpg","1","1","1","0","0","1","0.489241199999924","0.688930399999663","0.589109999999891","1","1","1","1","1","1","1","1","1"
"250050","img/neutralC/CFD-BM-251-013-N.jpg","img/neutralC/CFD-BM-205-001-N.jpg","img/neutralC/CFD-LM-214-165-N.jpg","1","1","1","1","0","1","0.589109999999891","0.489241199999924","0.444730399998662","1","1","1","1","1","1","1","1","1"
"250050","img/neutralC/CFD-LM-214-165-N.jpg","img/neutralC/CFD-BM-251-013-N.jpg","img/neutralC/CFD-LM-216-082-N.jpg","1","1","1","1","1","0","0.444730399998662","0.589109999999891","1.1017927999992","1","1","1","1","1","1","1","1","1"
"250050","img/neutralC/CFD-LM-216-082-N.jpg","img/neutralC/CFD-LM-214-165-N.jpg","img/neutralC/CFD-LM-201-057-N.jpg","1","1","1","0","1","1","1.1017927999992","0.444730399998662","0.739617699999144","1","1","1","1","1","1","1","1","1"
"250050","img/neutralC/CFD-LM-201-057-N.jpg","img/neutralC/CFD-LM-216-082-N.jpg","img/neutralC/CFD-LM-243-075-N.jpg","1","1","1","1","0","0","0.739617699999144","1.1017927999992","0.656297399999858","1","1","1","1","1","1","1","1","1"
"250050","img/neutralC/CFD-LM-243-075-N.jpg","img/neutralC/CFD-LM-201-057-N.jpg","img/neutralC/CFD-WM-212-097-N.jpg","1","1","1","0","1","0","0.656297399999858","0.739617699999144","0.597339299999476","1","1","1","1","1","1","1","1","1"
"250050","img/neutralC/CFD-WM-212-097-N.jpg","img/neutralC/CFD-LM-243-075-N.jpg","img/neutralC/CFD-WF-240-083-N.jpg","1","1","1","0","0","0","0.597339299999476","0.656297399999858","0.74880629999916","1","1","1","1","1","1","1","1","1"
"250050","img/neutralC/CFD-WF-240-083-N.jpg","img/neutralC/CFD-WM-212-097-N.jpg","img/neutralC/CFD-WM-215-041-N.jpg","1","1","1","0","0","0","0.74880629999916","0.597339299999476","0.474521099999038","1","1","1","1","1","1","1","1","1"
"250050","img/neutralC/CFD-WM-215-041-N.jpg","img/neutralC/CFD-WF-240-083-N.jpg",NA,"1","1",NA,"0","0",NA,"0.474521099999038","0.74880629999916",NA,"1","1",NA,"1","1",NA,"1","1",NA
"250050","img/neutralC/CFD-AF-232-078-N.jpg",NA,"img/neutralC/CFD-WF-018-017-N.jpg","1",NA,"1","1",NA,"1","0.781811499999094",NA,"0.690730299999814","1",NA,"1","1",NA,"1","1",NA,"1"
"250050","img/neutralC/CFD-WF-018-017-N.jpg","img/neutralC/CFD-AF-232-078-N.jpg","img/neutralC/CFD-IM-700-009-N.jpg","1","1","1","1","1","1","0.690730299999814","0.781811499999094","0.551488799999788","1","1","1","1","1","1","1","1","1"
"250050","img/neutralC/CFD-IM-700-009-N.jpg","img/neutralC/CFD-WF-018-017-N.jpg","img/neutralC/CFD-WF-023-003-N.jpg","1","1","1","1","1","1","0.551488799999788","0.690730299999814","0.504841199999646","1","1","1","1","1","1","1","1","1"
"250050","img/neutralC/CFD-WF-023-003-N.jpg","img/neutralC/CFD-IM-700-009-N.jpg","img/neutralC/CFD-IM-719-221-N.jpg","1","1","1","1","1","0","0.504841199999646","0.551488799999788","0.529413399999612","1","1","1","1","1","1","1","1","1"
"250050","img/neutralC/CFD-IM-719-221-N.jpg","img/neutralC/CFD-WF-023-003-N.jpg","img/neutralC/CFD-BM-200-046-N.jpg","1","1","1","0","1","0","0.529413399999612","0.504841199999646","0.738553799999863","1","1","1","1","1","1","1","1","1"
"250050","img/neutralC/CFD-BM-200-046-N.jpg","img/neutralC/CFD-IM-719-221-N.jpg","img/neutralC/CFD-AF-221-147-N.jpg","1","1","1","0","0","0","0.738553799999863","0.529413399999612","0.400752299999112","1","1","1","1","1","1","1","1","1"
"250050","img/neutralC/CFD-AF-221-147-N.jpg","img/neutralC/CFD-BM-200-046-N.jpg","img/neutralC/CFD-WF-245-084-N.jpg","1","1","1","0","0","1","0.400752299999112","0.738553799999863","0.451696999998603","1","1","1","1","1","1","1","1","1"
"250050","img/neutralC/CFD-WF-245-084-N.jpg","img/neutralC/CFD-AF-221-147-N.jpg","img/neutralC/CFD-WF-226-095-N.jpg","1","1","1","1","0","1","0.451696999998603","0.400752299999112","0.593300499999714","1","1","1","1","1","1","1","1","1"
"250050","img/neutralC/CFD-WF-226-095-N.jpg","img/neutralC/CFD-WF-245-084-N.jpg","img/neutralC/CFD-AM-244-222-N.jpg","1","1","1","1","1","0","0.593300499999714","0.451696999998603","0.503941799998756","1","1","1","1","1","1","1","1","1"
"250050","img/neutralC/CFD-AM-244-222-N.jpg","img/neutralC/CFD-WF-226-095-N.jpg","img/neutralC/CFD-WM-013-001-N.jpg","1","1","1","0","1","1","0.503941799998756","0.593300499999714","0.531507599999713","1","1","1","1","1","1","1","1","1"
"250050","img/neutralC/CFD-WM-013-001-N.jpg","img/neutralC/CFD-AM-244-222-N.jpg","img/neutralC/CFD-LF-211-003-N.jpg","1","1","1","1","0","0","0.531507599999713","0.503941799998756","0.65562189999946","1","1","1","1","1","1","1","1","1"
"250050","img/neutralC/CFD-LF-211-003-N.jpg","img/neutralC/CFD-WM-013-001-N.jpg","img/neutralC/CFD-IF-629-234-N.jpg","1","1","1","0","1","0","0.65562189999946","0.531507599999713","0.544376199999533","1","1","1","1","1","1","1","1","1"
"250050","img/neutralC/CFD-IF-629-234-N.jpg","img/neutralC/CFD-LF-211-003-N.jpg","img/neutralC/CFD-LM-253-075-N.jpg","1","1","1","0","0","0","0.544376199999533","0.65562189999946","0.560783799998717","1","1","1","1","1","1","1","1","1"
"250050","img/neutralC/CFD-LM-253-075-N.jpg","img/neutralC/CFD-IF-629-234-N.jpg","img/neutralC/CFD-WM-221-091-N.jpg","1","1","1","0","0","0","0.560783799998717","0.544376199999533","0.557047999998758","1","1","1","1","1","1","1","1","1"
"250050","img/neutralC/CFD-WM-221-091-N.jpg","img/neutralC/CFD-LM-253-075-N.jpg","img/neutralC/CFD-MM-321-021-N.jpg","1","1","1","0","0","0","0.557047999998758","0.560783799998717","0.532979499999783","1","1","1","1","1","1","1","1","1"
"250050","img/neutralC/CFD-MM-321-021-N.jpg","img/neutralC/CFD-WM-221-091-N.jpg","img/neutralC/CFD-MF-342-022-N.jpg","1","1","1","0","0","1","0.532979499999783","0.557047999998758","0.545272899999873","1","1","1","1","1","1","1","1","1"
"250050","img/neutralC/CFD-MF-342-022-N.jpg","img/neutralC/CFD-MM-321-021-N.jpg","img/neutralC/CFD-WM-255-219-N.jpg","1","1","1","1","0","0","0.545272899999873","0.532979499999783","0.483837299999323","1","1","1","1","1","1","1","1","1"
"250050","img/neutralC/CFD-WM-255-219-N.jpg","img/neutralC/CFD-MF-342-022-N.jpg","img/neutralC/CFD-BF-018-039-N.jpg","1","1","1","0","1","1","0.483837299999323","0.545272899999873","0.491876699999011","1","1","1","1","1","1","1","1","1"
"250050","img/neutralC/CFD-BF-018-039-N.jpg","img/neutralC/CFD-WM-255-219-N.jpg","img/neutralC/CFD-WM-009-002-N.jpg","1","1","1","1","0","0","0.491876699999011","0.483837299999323","0.628589299999476","1","1","1","1","1","1","1","1","1"
"250050","img/neutralC/CFD-WM-009-002-N.jpg","img/neutralC/CFD-BF-018-039-N.jpg","img/neutralC/CFD-WF-027-003-N.jpg","1","1","1","0","1","1","0.628589299999476","0.491876699999011","0.596863400000075","1","1","1","1","1","1","1","1","1"
"250050","img/neutralC/CFD-WF-027-003-N.jpg","img/neutralC/CFD-WM-009-002-N.jpg","img/neutralC/CFD-MF-318-022-N.jpg","1","1","1","1","0","1","0.596863400000075","0.628589299999476","0.637250799999492","1","1","1","1","1","1","1","1","1"
"250050","img/neutralC/CFD-MF-318-022-N.jpg","img/neutralC/CFD-WF-027-003-N.jpg","img/neutralC/CFD-MF-321-003-N.jpg","1","1","1","1","1","0","0.637250799999492","0.596863400000075","0.564558399999441","1","1","1","1","1","1","1","1","1"
"250050","img/neutralC/CFD-MF-321-003-N.jpg","img/neutralC/CFD-MF-318-022-N.jpg","img/neutralC/CFD-BM-023-029-N.jpg","1","1","1","0","1","1","0.564558399999441","0.637250799999492","0.725391399999353","1","1","1","1","1","1","1","1","1"
"250050","img/neutralC/CFD-BM-023-029-N.jpg","img/neutralC/CFD-MF-321-003-N.jpg","img/neutralC/CFD-BF-254-201-N.jpg","1","1","1","1","0","0","0.725391399999353","0.564558399999441","0.585586799998964","1","1","1","1","1","1","1","1","1"
"250050","img/neutralC/CFD-BF-254-201-N.jpg","img/neutralC/CFD-BM-023-029-N.jpg","img/neutralC/CFD-WM-237-052-N.jpg","1","1","1","0","1","1","0.585586799998964","0.725391399999353","1.2056204999999","1","1","1","1","1","1","1","1","1"
"250050","img/neutralC/CFD-WM-237-052-N.jpg","img/neutralC/CFD-BF-254-201-N.jpg","img/neutralC/CFD-LF-215-157-N.jpg","1","1","1","1","0","0","1.2056204999999","0.585586799998964","0.530991099998573","1","1","1","1","1","1","1","1","1"
"250050","img/neutralC/CFD-LF-215-157-N.jpg","img/neutralC/CFD-WM-237-052-N.jpg","img/neutralC/CFD-WF-238-023-N.jpg","1","1","1","0","1","0","0.530991099998573","1.2056204999999","0.608258699999169","1","1","1","1","1","1","1","1","1"
"250050","img/neutralC/CFD-WF-238-023-N.jpg","img/neutralC/CFD-LF-215-157-N.jpg","img/neutralC/CFD-BF-218-207-N.jpg","1","1","1","0","0","1","0.608258699999169","0.530991099998573","0.49488079999901","1","1","1","1","1","1","1","1","1"
"250050","img/neutralC/CFD-BF-218-207-N.jpg","img/neutralC/CFD-WF-238-023-N.jpg","img/neutralC/CFD-IM-627-178-N.jpg","1","1","1","1","0","1","0.49488079999901","0.608258699999169","0.822245399999701","1","1","1","1","1","1","1","1","1"
"250050","img/neutralC/CFD-IM-627-178-N.jpg","img/neutralC/CFD-BF-218-207-N.jpg","img/neutralC/CFD-WM-201-063-N.jpg","1","1","1","1","1","1","0.822245399999701","0.49488079999901","0.639604299999519","1","1","1","1","1","1","1","1","1"
"250050","img/neutralC/CFD-WM-201-063-N.jpg","img/neutralC/CFD-IM-627-178-N.jpg","img/neutralC/CFD-BM-204-003-N.jpg","1","1","1","1","1","0","0.639604299999519","0.822245399999701","0.709564799999498","1","1","1","1","1","1","1","1","1"
"250050","img/neutralC/CFD-BM-204-003-N.jpg","img/neutralC/CFD-WM-201-063-N.jpg",NA,"1","1",NA,"0","1",NA,"0.709564799999498","0.639604299999519",NA,"1","1",NA,"1","1",NA,"1","1",NA
"250050","img/neutralC/CFD-IF-665-015-N.jpg",NA,"img/neutralC/CFD-BM-018-001-N.jpg","1",NA,"1","0",NA,"1","0.692539199999374",NA,"0.582446699999309","1",NA,"1","1",NA,"1","1",NA,"1"
"250050","img/neutralC/CFD-BM-018-001-N.jpg","img/neutralC/CFD-IF-665-015-N.jpg","img/neutralC/CFD-IM-657-308-N.jpg","1","1","1","1","0","0","0.582446699999309","0.692539199999374","0.577138800000284","1","1","1","1","1","1","1","1","1"
"250050","img/neutralC/CFD-IM-657-308-N.jpg","img/neutralC/CFD-BM-018-001-N.jpg","img/neutralC/CFD-BF-033-028-N.jpg","1","1","1","0","1","0","0.577138800000284","0.582446699999309","0.507273199998963","1","1","1","1","1","1","1","1","1"
"250050","img/neutralC/CFD-BF-033-028-N.jpg","img/neutralC/CFD-IM-657-308-N.jpg","img/neutralC/CFD-WF-209-052-N.jpg","1","1","1","0","0","1","0.507273199998963","0.577138800000284","0.566864399999758","1","1","1","1","1","1","1","1","1"
"250050","img/neutralC/CFD-WF-209-052-N.jpg","img/neutralC/CFD-BF-033-028-N.jpg","img/neutralC/CFD-IM-638-250-1-N.jpg","1","1","1","1","0","1","0.566864399999758","0.507273199998963","0.513918399999056","1","1","1","1","1","1","1","1","1"
"250050","img/neutralC/CFD-IM-638-250-1-N.jpg","img/neutralC/CFD-WF-209-052-N.jpg","img/neutralC/CFD-WM-227-099-N.jpg","1","1","1","1","1","1","0.513918399999056","0.566864399999758","0.391090899999654","1","1","1","1","1","1","1","1","1"
"250050","img/neutralC/CFD-WM-227-099-N.jpg","img/neutralC/CFD-IM-638-250-1-N.jpg","img/neutralC/CFD-IM-727-195-N.jpg","1","1","1","1","1","1","0.391090899999654","0.513918399999056","0.977259899998899","1","1","1","1","1","1","1","1","1"
"250050","img/neutralC/CFD-IM-727-195-N.jpg","img/neutralC/CFD-WM-227-099-N.jpg","img/neutralC/CFD-BM-212-117-N.jpg","1","1","1","1","1","0","0.977259899998899","0.391090899999654","0.696386299999176","1","1","1","1","1","1","1","1","1"
"250050","img/neutralC/CFD-BM-212-117-N.jpg","img/neutralC/CFD-IM-727-195-N.jpg","img/neutralC/CFD-IM-686-097-N.jpg","1","1","1","0","1","0","0.696386299999176","0.977259899998899","0.560666699999274","1","1","1","1","1","1","1","1","1"
"250050","img/neutralC/CFD-IM-686-097-N.jpg","img/neutralC/CFD-BM-212-117-N.jpg","img/neutralC/CFD-LM-226-175-N.jpg","1","1","1","0","0","0","0.560666699999274","0.696386299999176","0.683910999999171","1","1","1","1","1","1","1","1","1"
"250050","img/neutralC/CFD-LM-226-175-N.jpg","img/neutralC/CFD-IM-686-097-N.jpg","img/neutralC/CFD-BM-026-002-N.jpg","1","1","1","0","0","0","0.683910999999171","0.560666699999274","0.535672299999533","1","1","1","1","1","1","1","1","1"
"250050","img/neutralC/CFD-BM-026-002-N.jpg","img/neutralC/CFD-LM-226-175-N.jpg","img/neutralC/CFD-AF-206-079-N.jpg","1","1","1","0","0","1","0.535672299999533","0.683910999999171","0.921811100000014","1","1","1","1","1","1","1","1","1"
"250050","img/neutralC/CFD-AF-206-079-N.jpg","img/neutralC/CFD-BM-026-002-N.jpg","img/neutralC/CFD-WM-258-125-N.jpg","1","1","1","1","0","0","0.921811100000014","0.535672299999533","0.527154999998857","1","1","1","1","1","1","1","1","1"
"250050","img/neutralC/CFD-WM-258-125-N.jpg","img/neutralC/CFD-AF-206-079-N.jpg","img/neutralC/CFD-IM-653-008-N.jpg","1","1","1","0","1","0","0.527154999998857","0.921811100000014","0.495166699999572","1","1","1","1","1","1","1","1","1"
"250050","img/neutralC/CFD-IM-653-008-N.jpg","img/neutralC/CFD-WM-258-125-N.jpg","img/neutralC/CFD-LF-247-051-N.jpg","1","1","1","0","0","1","0.495166699999572","0.527154999998857","1.02435789999981","1","1","1","1","1","1","1","1","1"
"250050","img/neutralC/CFD-LF-247-051-N.jpg","img/neutralC/CFD-IM-653-008-N.jpg","img/neutralC/CFD-LF-245-166-N.jpg","1","1","1","1","0","1","1.02435789999981","0.495166699999572","0.82469189999938","1","1","1","1","1","1","1","1","1"
"250050","img/neutralC/CFD-LF-245-166-N.jpg","img/neutralC/CFD-LF-247-051-N.jpg","img/neutralC/CFD-LM-233-171-N.jpg","1","1","1","1","1","0","0.82469189999938","1.02435789999981","0.58773729999939","1","1","1","1","1","1","1","1","1"
"250050","img/neutralC/CFD-LM-233-171-N.jpg","img/neutralC/CFD-LF-245-166-N.jpg","img/neutralC/CFD-BM-231-155-N.jpg","1","1","1","0","1","1","0.58773729999939","0.82469189999938","0.63256469999942","1","1","1","1","1","1","1","1","1"
"250050","img/neutralC/CFD-BM-231-155-N.jpg","img/neutralC/CFD-LM-233-171-N.jpg","img/neutralC/CFD-WM-242-011-N.jpg","1","1","1","1","0","0","0.63256469999942","0.58773729999939","0.715578199999982","1","1","1","1","1","1","1","1","1"
"250050","img/neutralC/CFD-WM-242-011-N.jpg","img/neutralC/CFD-BM-231-155-N.jpg","img/neutralC/CFD-BF-238-190-N.jpg","1","1","1","0","1","1","0.715578199999982","0.63256469999942","0.694422199999281","1","1","1","1","1","1","1","1","1"
"250050","img/neutralC/CFD-BF-238-190-N.jpg","img/neutralC/CFD-WM-242-011-N.jpg","img/neutralC/CFD-AF-241-141-N.jpg","1","1","1","1","0","1","0.694422199999281","0.715578199999982","0.832921899999747","1","1","1","1","1","1","1","1","1"
"250050","img/neutralC/CFD-AF-241-141-N.jpg","img/neutralC/CFD-BF-238-190-N.jpg","img/neutralC/CFD-LF-242-121-N.jpg","1","1","1","1","1","0","0.832921899999747","0.694422199999281","0.618105999998988","1","1","1","1","1","1","1","1","1"
"250050","img/neutralC/CFD-LF-242-121-N.jpg","img/neutralC/CFD-AF-241-141-N.jpg","img/neutralC/CFD-BF-010-001-N.jpg","1","1","1","0","1","1","0.618105999998988","0.832921899999747","0.744061999999758","1","1","1","1","1","1","1","1","1"
"250050","img/neutralC/CFD-BF-010-001-N.jpg","img/neutralC/CFD-LF-242-121-N.jpg","img/neutralC/CFD-BM-005-003-N.jpg","1","1","1","1","0","1","0.744061999999758","0.618105999998988","0.597740699999122","1","1","1","1","1","1","1","1","1"
"250050","img/neutralC/CFD-BM-005-003-N.jpg","img/neutralC/CFD-BF-010-001-N.jpg","img/neutralC/CFD-LM-219-295-N.jpg","1","1","1","1","1","1","0.597740699999122","0.744061999999758","0.577579499999047","1","1","1","1","1","1","1","1","1"
"250050","img/neutralC/CFD-LM-219-295-N.jpg","img/neutralC/CFD-BM-005-003-N.jpg","img/neutralC/CFD-IF-620-218-N.jpg","1","1","0","1","1","0","0.577579499999047","0.597740699999122",NA,"1","1","0","1","1","0","1","1","0"
"250050","img/neutralC/CFD-IF-620-218-N.jpg","img/neutralC/CFD-LM-219-295-N.jpg","img/neutralC/CFD-IM-617-174-N.jpg","0","1","1","0","1","0",NA,"0.577579499999047","0.861363899998651","0","1","1","0","1","1","0","1","1"
"250050","img/neutralC/CFD-IM-617-174-N.jpg","img/neutralC/CFD-IF-620-218-N.jpg","img/neutralC/CFD-MF-313-002-N.jpg","1","0","1","0","0","0","0.861363899998651",NA,"0.622044099999584","1","0","1","1","0","1","1","0","1"
"250050","img/neutralC/CFD-MF-313-002-N.jpg","img/neutralC/CFD-IM-617-174-N.jpg","img/neutralC/CFD-LF-250-169-N.jpg","1","1","1","0","0","1","0.622044099999584","0.861363899998651","0.629906999999548","1","1","1","1","1","1","1","1","1"
"250050","img/neutralC/CFD-LF-250-169-N.jpg","img/neutralC/CFD-MF-313-002-N.jpg","img/neutralC/CFD-AF-202-122-N.jpg","1","1","1","1","0","1","0.629906999999548","0.622044099999584","0.558747699999913","1","1","1","1","1","1","1","1","1"
"250050","img/neutralC/CFD-AF-202-122-N.jpg","img/neutralC/CFD-LF-250-169-N.jpg","img/neutralC/CFD-WM-017-002-N.jpg","1","1","1","1","1","0","0.558747699999913","0.629906999999548","0.524434399999336","1","1","1","1","1","1","1","1","1"
"250050","img/neutralC/CFD-WM-017-002-N.jpg","img/neutralC/CFD-AF-202-122-N.jpg",NA,"1","1",NA,"0","1",NA,"0.524434399999336","0.558747699999913",NA,"1","1",NA,"1","1",NA,"1","1",NA
"250050","img/neutralC/CFD-BM-021-021-N.jpg",NA,"img/neutralC/CFD-BM-020-001-N.jpg","1",NA,"0","1",NA,"0","0.79864279999947",NA,"1.1305612999995","1",NA,"1","1",NA,"1","1",NA,"1"
"250050","img/neutralC/CFD-BM-020-001-N.jpg","img/neutralC/CFD-BM-021-021-N.jpg","img/neutralC/CFD-LM-240-013-N.jpg","0","1","1","0","1","1","1.1305612999995","0.79864279999947","0.532078799998999","1","1","1","1","1","1","1","1","1"
"250050","img/neutralC/CFD-LM-240-013-N.jpg","img/neutralC/CFD-BM-020-001-N.jpg","img/neutralC/CFD-AF-237-223-N.jpg","1","0","1","1","0","0","0.532078799998999","1.1305612999995","0.683745899999849","1","1","1","1","1","1","1","1","1"
"250050","img/neutralC/CFD-AF-237-223-N.jpg","img/neutralC/CFD-LM-240-013-N.jpg","img/neutralC/CFD-MF-328-020-N.jpg","1","1","1","0","1","0","0.683745899999849","0.532078799998999","0.589454699999806","1","1","1","1","1","1","1","1","1"
"250050","img/neutralC/CFD-MF-328-020-N.jpg","img/neutralC/CFD-AF-237-223-N.jpg","img/neutralC/CFD-BM-030-003-N.jpg","1","1","1","0","0","0","0.589454699999806","0.683745899999849","0.576621099999102","1","1","1","1","1","1","1","1","1"
"250050","img/neutralC/CFD-BM-030-003-N.jpg","img/neutralC/CFD-MF-328-020-N.jpg","img/neutralC/CFD-BM-043-071-N.jpg","1","1","1","0","0","0","0.576621099999102","0.589454699999806","0.566242899999452","1","1","1","1","1","1","1","1","1"
"250050","img/neutralC/CFD-BM-043-071-N.jpg","img/neutralC/CFD-BM-030-003-N.jpg","img/neutralC/CFD-WM-023-001-N.jpg","1","1","1","0","0","0","0.566242899999452","0.576621099999102","0.928273999999874","1","1","1","1","1","1","1","1","1"
"250050","img/neutralC/CFD-WM-023-001-N.jpg","img/neutralC/CFD-BM-043-071-N.jpg","img/neutralC/CFD-WF-241-210-N.jpg","1","1","1","0","0","0","0.928273999999874","0.566242899999452","0.559872699999687","1","1","1","1","1","1","1","1","1"
"250050","img/neutralC/CFD-WF-241-210-N.jpg","img/neutralC/CFD-WM-023-001-N.jpg","img/neutralC/CFD-WF-221-005-N.jpg","1","1","1","0","0","0","0.559872699999687","0.928273999999874","0.474001299999145","1","1","1","1","1","1","1","1","1"
"250050","img/neutralC/CFD-WF-221-005-N.jpg","img/neutralC/CFD-WF-241-210-N.jpg","img/neutralC/CFD-IM-615-167-N.jpg","1","1","1","0","0","0","0.474001299999145","0.559872699999687","1.38638859999901","1","1","1","1","1","1","1","1","1"
"250050","img/neutralC/CFD-IM-615-167-N.jpg","img/neutralC/CFD-WF-221-005-N.jpg","img/neutralC/CFD-BF-012-001-N.jpg","1","1","0","0","0","0","1.38638859999901","0.474001299999145","1.75116369999978","1","1","1","1","1","1","1","1","1"
"250050","img/neutralC/CFD-BF-012-001-N.jpg","img/neutralC/CFD-IM-615-167-N.jpg","img/neutralC/CFD-WM-028-003-N.jpg","0","1","1","0","0","1","1.75116369999978","1.38638859999901","0.591006899999229","1","1","1","1","1","1","1","1","1"
"250050","img/neutralC/CFD-WM-028-003-N.jpg","img/neutralC/CFD-BF-012-001-N.jpg","img/neutralC/CFD-AM-205-153-N.jpg","1","0","1","1","0","1","0.591006899999229","1.75116369999978","0.614163699999153","1","1","1","1","1","1","1","1","1"
"250050","img/neutralC/CFD-AM-205-153-N.jpg","img/neutralC/CFD-WM-028-003-N.jpg","img/neutralC/CFD-IM-697-015-N.jpg","1","1","1","1","1","1","0.614163699999153","0.591006899999229","0.527845299999171","1","1","1","1","1","1","1","1","1"
"250050","img/neutralC/CFD-IM-697-015-N.jpg","img/neutralC/CFD-AM-205-153-N.jpg","img/neutralC/CFD-BM-227-191-N.jpg","1","1","1","1","1","1","0.527845299999171","0.614163699999153","0.723389099998712","1","1","1","1","1","1","1","1","1"
"250050","img/neutralC/CFD-BM-227-191-N.jpg","img/neutralC/CFD-IM-697-015-N.jpg","img/neutralC/CFD-WF-009-001-N.jpg","1","1","1","1","1","1","0.723389099998712","0.527845299999171","0.51325739999902","1","1","1","1","1","1","1","1","1"
"250050","img/neutralC/CFD-WF-009-001-N.jpg","img/neutralC/CFD-BM-227-191-N.jpg","img/neutralC/CFD-AM-243-212-N.jpg","1","1","1","1","1","1","0.51325739999902","0.723389099998712","0.63095389999944","1","1","1","1","1","1","1","1","1"
"250050","img/neutralC/CFD-AM-243-212-N.jpg","img/neutralC/CFD-WF-009-001-N.jpg","img/neutralC/CFD-WF-243-148-N.jpg","1","1","1","1","1","0","0.63095389999944","0.51325739999902","0.555425799999284","1","1","1","1","1","1","1","1","1"
"250050","img/neutralC/CFD-WF-243-148-N.jpg","img/neutralC/CFD-AM-243-212-N.jpg","img/neutralC/CFD-LF-238-154-N.jpg","1","1","1","0","1","1","0.555425799999284","0.63095389999944","0.547267599999032","1","1","1","1","1","1","1","1","1"
"250050","img/neutralC/CFD-LF-238-154-N.jpg","img/neutralC/CFD-WF-243-148-N.jpg","img/neutralC/CFD-LF-222-147-N.jpg","1","1","1","1","0","0","0.547267599999032","0.555425799999284","0.749426599999424","1","1","1","1","1","1","1","1","1"
"250050","img/neutralC/CFD-LF-222-147-N.jpg","img/neutralC/CFD-LF-238-154-N.jpg","img/neutralC/CFD-IF-676-017-N.jpg","1","1","1","0","1","1","0.749426599999424","0.547267599999032","1.21231829999942","1","1","1","1","1","1","1","1","1"
"250050","img/neutralC/CFD-IF-676-017-N.jpg","img/neutralC/CFD-LF-222-147-N.jpg","img/neutralC/CFD-IM-606-008-N.jpg","1","1","1","1","0","0","1.21231829999942","0.749426599999424","0.472614299999805","1","1","1","1","1","1","1","1","1"
"250050","img/neutralC/CFD-IM-606-008-N.jpg","img/neutralC/CFD-IF-676-017-N.jpg","img/neutralC/CFD-AM-219-101-N.jpg","1","1","1","0","1","0","0.472614299999805","1.21231829999942","0.641067599999587","1","1","1","1","1","1","1","1","1"
"250050","img/neutralC/CFD-AM-219-101-N.jpg","img/neutralC/CFD-IM-606-008-N.jpg","img/neutralC/CFD-MM-306-010-N.jpg","1","1","1","0","0","0","0.641067599999587","0.472614299999805","0.966153099999246","1","1","1","1","1","1","1","1","1"
"250050","img/neutralC/CFD-MM-306-010-N.jpg","img/neutralC/CFD-AM-219-101-N.jpg","img/neutralC/CFD-IM-689-263-N.jpg","1","1","1","0","0","1","0.966153099999246","0.641067599999587","1.09294089999912","1","1","1","1","1","1","1","1","1"
"250050","img/neutralC/CFD-IM-689-263-N.jpg","img/neutralC/CFD-MM-306-010-N.jpg","img/neutralC/CFD-BF-244-231-N.jpg","1","1","1","1","0","1","1.09294089999912","0.966153099999246","0.511150100000123","1","1","1","1","1","1","1","1","1"
"250050","img/neutralC/CFD-BF-244-231-N.jpg","img/neutralC/CFD-IM-689-263-N.jpg","img/neutralC/CFD-WM-025-002-N.jpg","1","1","1","1","1","0","0.511150100000123","1.09294089999912","0.435725699999239","1","1","1","1","1","1","1","1","1"
"250050","img/neutralC/CFD-WM-025-002-N.jpg","img/neutralC/CFD-BF-244-231-N.jpg","img/neutralC/CFD-LF-212-066-N.jpg","1","1","1","0","1","1","0.435725699999239","0.511150100000123","0.300986499999453","1","1","1","1","1","1","1","1","1"
"250050","img/neutralC/CFD-LF-212-066-N.jpg","img/neutralC/CFD-WM-025-002-N.jpg","img/neutralC/CFD-BM-009-002-N.jpg","1","1","1","1","0","1","0.300986499999453","0.435725699999239","0.414825999999266","1","1","1","1","1","1","1","1","1"
"250050","img/neutralC/CFD-BM-009-002-N.jpg","img/neutralC/CFD-LF-212-066-N.jpg","img/neutralC/CFD-AM-249-163-N.jpg","1","1","1","1","1","1","0.414825999999266","0.300986499999453","0.39333649999935","1","1","1","1","1","1","1","1","1"
"250050","img/neutralC/CFD-AM-249-163-N.jpg","img/neutralC/CFD-BM-009-002-N.jpg","img/neutralC/CFD-WF-207-014-N.jpg","1","1","0","1","1","1","0.39333649999935","0.414825999999266","0.379003999999441","1","1","1","1","1","1","1","1","2"
"250050","img/neutralC/CFD-WF-207-014-N.jpg","img/neutralC/CFD-AM-249-163-N.jpg",NA,"0","1",NA,"1","1",NA,"0.379003999999441","0.39333649999935",NA,"1","1",NA,"1","1",NA,"2","1",NA
