"participant_id","current_trial_face","pre_trial_face","post_trial_face","current_trial_accuracy","pre_trial_accuracy","post_trial_accuracy","current_trial_congruency","pre_trial_congruency","post_trial_congruency","current_trial_rt","pre_trial_rt","post_trial_rt","current_trial_responded","pre_trial_responded","post_trial_responded","current_trial_legitResponse","pre_trial_legitResponse","post_trial_legitResponse","current_trial_resp_nums","pre_trial_resp_nums","post_trial_resp_nums"
"250070","img/neutralC/CFD-IM-728-041-N.jpg",NA,"img/neutralC/CFD-BM-027-001-N.jpg","0",NA,"1","0",NA,"0","0.90947650000453",NA,"0.753375800093636","1",NA,"1","1",NA,"1","1",NA,"1"
"250070","img/neutralC/CFD-BM-027-001-N.jpg","img/neutralC/CFD-IM-728-041-N.jpg","img/neutralC/CFD-BF-208-266-N.jpg","1","0","1","0","0","0","0.753375800093636","0.90947650000453","0.77439310005866","1","1","1","1","1","1","1","1","1"
"250070","img/neutralC/CFD-BF-208-266-N.jpg","img/neutralC/CFD-BM-027-001-N.jpg","img/neutralC/CFD-WM-038-003-N.jpg","1","1","1","0","0","0","0.77439310005866","0.753375800093636","0.742239500163123","1","1","1","1","1","1","1","1","1"
"250070","img/neutralC/CFD-WM-038-003-N.jpg","img/neutralC/CFD-BF-208-266-N.jpg","img/neutralC/CFD-BM-247-240-N.jpg","1","1","1","0","0","0","0.742239500163123","0.77439310005866","0.874542200006545","1","1","1","1","1","1","1","1","1"
"250070","img/neutralC/CFD-BM-247-240-N.jpg","img/neutralC/CFD-WM-038-003-N.jpg","img/neutralC/CFD-AM-215-120-N.jpg","1","1","1","0","0","1","0.874542200006545","0.742239500163123","0.704292400041595","1","1","1","1","1","1","1","1","1"
"250070","img/neutralC/CFD-AM-215-120-N.jpg","img/neutralC/CFD-BM-247-240-N.jpg","img/neutralC/CFD-BF-255-140-N.jpg","1","1","1","1","0","1","0.704292400041595","0.874542200006545","0.769308099988848","1","1","1","1","1","1","1","1","1"
"250070","img/neutralC/CFD-BF-255-140-N.jpg","img/neutralC/CFD-AM-215-120-N.jpg","img/neutralC/CFD-LF-236-221-N.jpg","1","1","1","1","1","1","0.769308099988848","0.704292400041595","0.612527600023896","1","1","1","1","1","1","1","1","1"
"250070","img/neutralC/CFD-LF-236-221-N.jpg","img/neutralC/CFD-BF-255-140-N.jpg","img/neutralC/CFD-BM-015-015-N.jpg","1","1","1","1","1","0","0.612527600023896","0.769308099988848","0.666018099989742","1","1","1","1","1","1","1","1","1"
"250070","img/neutralC/CFD-BM-015-015-N.jpg","img/neutralC/CFD-LF-236-221-N.jpg","img/neutralC/CFD-BF-023-010-N.jpg","1","1","1","0","1","1","0.666018099989742","0.612527600023896","0.638447100063786","1","1","1","1","1","1","1","1","1"
"250070","img/neutralC/CFD-BF-023-010-N.jpg","img/neutralC/CFD-BM-015-015-N.jpg","img/neutralC/CFD-IF-672-305-N.jpg","1","1","1","1","0","0","0.638447100063786","0.666018099989742","0.724257200025022","1","1","1","1","1","1","1","1","1"
"250070","img/neutralC/CFD-IF-672-305-N.jpg","img/neutralC/CFD-BF-023-010-N.jpg","img/neutralC/CFD-WM-225-127-N.jpg","1","1","1","0","1","0","0.724257200025022","0.638447100063786","0.661001299973577","1","1","1","1","1","1","1","1","1"
"250070","img/neutralC/CFD-WM-225-127-N.jpg","img/neutralC/CFD-IF-672-305-N.jpg","img/neutralC/CFD-MM-319-052-N.jpg","1","1","1","0","0","1","0.661001299973577","0.724257200025022","0.642754799919203","1","1","1","1","1","1","1","1","1"
"250070","img/neutralC/CFD-MM-319-052-N.jpg","img/neutralC/CFD-WM-225-127-N.jpg","img/neutralC/CFD-BF-204-189-N.jpg","1","1","1","1","0","1","0.642754799919203","0.661001299973577","0.596867599990219","1","1","1","1","1","1","1","1","1"
"250070","img/neutralC/CFD-BF-204-189-N.jpg","img/neutralC/CFD-MM-319-052-N.jpg","img/neutralC/CFD-AM-217-085-N.jpg","1","1","1","1","1","0","0.596867599990219","0.642754799919203","0.720499800052494","1","1","1","1","1","1","1","1","1"
"250070","img/neutralC/CFD-AM-217-085-N.jpg","img/neutralC/CFD-BF-204-189-N.jpg","img/neutralC/CFD-IM-674-281-N.jpg","1","1","1","0","1","1","0.720499800052494","0.596867599990219","0.598676000023261","1","1","1","1","1","1","1","1","1"
"250070","img/neutralC/CFD-IM-674-281-N.jpg","img/neutralC/CFD-AM-217-085-N.jpg","img/neutralC/CFD-WF-002-004-N.jpg","1","1","1","1","0","0","0.598676000023261","0.720499800052494","0.86079080007039","1","1","1","1","1","1","1","1","1"
"250070","img/neutralC/CFD-WF-002-004-N.jpg","img/neutralC/CFD-IM-674-281-N.jpg","img/neutralC/CFD-IF-718-001-N.jpg","1","1","1","0","1","1","0.86079080007039","0.598676000023261","0.725694499909878","1","1","1","1","1","1","1","1","1"
"250070","img/neutralC/CFD-IF-718-001-N.jpg","img/neutralC/CFD-WF-002-004-N.jpg","img/neutralC/CFD-WM-002-009-N.jpg","1","1","1","1","0","0","0.725694499909878","0.86079080007039","0.910252300091088","1","1","1","1","1","1","1","1","1"
"250070","img/neutralC/CFD-WM-002-009-N.jpg","img/neutralC/CFD-IF-718-001-N.jpg","img/neutralC/CFD-BF-201-080-N.jpg","1","1","1","0","1","1","0.910252300091088","0.725694499909878","0.612766500096768","1","1","1","1","1","1","1","1","1"
"250070","img/neutralC/CFD-BF-201-080-N.jpg","img/neutralC/CFD-WM-002-009-N.jpg","img/neutralC/CFD-BM-029-024-N.jpg","1","1","1","1","0","1","0.612766500096768","0.910252300091088","0.652459100121632","1","1","1","1","1","1","1","1","1"
"250070","img/neutralC/CFD-BM-029-024-N.jpg","img/neutralC/CFD-BF-201-080-N.jpg","img/neutralC/CFD-WF-026-002-N.jpg","1","1","1","1","1","1","0.652459100121632","0.612766500096768","0.644667099928483","1","1","1","1","1","1","1","1","1"
"250070","img/neutralC/CFD-WF-026-002-N.jpg","img/neutralC/CFD-BM-029-024-N.jpg","img/neutralC/CFD-WF-022-017-N.jpg","1","1","0","1","1","0","0.644667099928483","0.652459100121632","0.775458900025114","1","1","1","1","1","1","1","1","1"
"250070","img/neutralC/CFD-WF-022-017-N.jpg","img/neutralC/CFD-WF-026-002-N.jpg","img/neutralC/CFD-BM-211-174-N.jpg","0","1","1","0","1","0","0.775458900025114","0.644667099928483","0.682768899947405","1","1","1","1","1","1","1","1","1"
"250070","img/neutralC/CFD-BM-211-174-N.jpg","img/neutralC/CFD-WF-022-017-N.jpg","img/neutralC/CFD-BF-028-001-N.jpg","1","0","1","0","0","1","0.682768899947405","0.775458900025114","0.704064199933782","1","1","1","1","1","1","1","1","1"
"250070","img/neutralC/CFD-BF-028-001-N.jpg","img/neutralC/CFD-BM-211-174-N.jpg","img/neutralC/CFD-LF-216-121-N.jpg","1","1","1","1","0","1","0.704064199933782","0.682768899947405","0.61171709978953","1","1","1","1","1","1","1","1","1"
"250070","img/neutralC/CFD-LF-216-121-N.jpg","img/neutralC/CFD-BF-028-001-N.jpg","img/neutralC/CFD-IM-639-263-N.jpg","1","1","1","1","1","1","0.61171709978953","0.704064199933782","0.682010599877685","1","1","1","1","1","1","1","1","1"
"250070","img/neutralC/CFD-IM-639-263-N.jpg","img/neutralC/CFD-LF-216-121-N.jpg","img/neutralC/CFD-WM-257-161-N.jpg","1","1","1","1","1","1","0.682010599877685","0.61171709978953","0.592687399825081","1","1","1","1","1","1","1","1","1"
"250070","img/neutralC/CFD-WM-257-161-N.jpg","img/neutralC/CFD-IM-639-263-N.jpg","img/neutralC/CFD-LM-252-076-N.jpg","1","1","1","1","1","1","0.592687399825081","0.682010599877685","0.690298500005156","1","1","1","1","1","1","1","1","1"
"250070","img/neutralC/CFD-LM-252-076-N.jpg","img/neutralC/CFD-WM-257-161-N.jpg","img/neutralC/CFD-AM-235-241-N.jpg","1","1","1","1","1","0","0.690298500005156","0.592687399825081","0.722720900084823","1","1","1","1","1","1","1","1","1"
"250070","img/neutralC/CFD-AM-235-241-N.jpg","img/neutralC/CFD-LM-252-076-N.jpg","img/neutralC/CFD-WM-040-022-N.jpg","1","1","1","0","1","0","0.722720900084823","0.690298500005156","0.570366699947044","1","1","1","1","1","1","1","1","1"
"250070","img/neutralC/CFD-WM-040-022-N.jpg","img/neutralC/CFD-AM-235-241-N.jpg","img/neutralC/CFD-BF-003-003-N.jpg","1","1","1","0","0","0","0.570366699947044","0.722720900084823","0.71157280006446","1","1","1","1","1","1","1","1","1"
"250070","img/neutralC/CFD-BF-003-003-N.jpg","img/neutralC/CFD-WM-040-022-N.jpg",NA,"1","1",NA,"0","0",NA,"0.71157280006446","0.570366699947044",NA,"1","1",NA,"1","1",NA,"1","1",NA
"250070","img/neutralC/CFD-WM-014-002-N.jpg",NA,"img/neutralC/CFD-BM-036-003-N.jpg","1",NA,"1","0",NA,"1","0.573911000043154",NA,"0.34959669993259","1",NA,"1","1",NA,"1","1",NA,"1"
"250070","img/neutralC/CFD-BM-036-003-N.jpg","img/neutralC/CFD-WM-014-002-N.jpg","img/neutralC/CFD-IM-726-248-N.jpg","1","1","1","1","0","0","0.34959669993259","0.573911000043154","0.443578199949116","1","1","1","1","1","1","1","1","1"
"250070","img/neutralC/CFD-IM-726-248-N.jpg","img/neutralC/CFD-BM-036-003-N.jpg","img/neutralC/CFD-BF-044-034-N.jpg","1","1","1","0","1","0","0.443578199949116","0.34959669993259","0.500684200087562","1","1","1","1","1","1","1","1","1"
"250070","img/neutralC/CFD-BF-044-034-N.jpg","img/neutralC/CFD-IM-726-248-N.jpg","img/neutralC/CFD-WF-234-086-N.jpg","1","1","1","0","0","1","0.500684200087562","0.443578199949116","0.379102899925783","1","1","1","1","1","1","1","1","1"
"250070","img/neutralC/CFD-WF-234-086-N.jpg","img/neutralC/CFD-BF-044-034-N.jpg","img/neutralC/CFD-IM-721-341-N.jpg","1","1","1","1","0","1","0.379102899925783","0.500684200087562","0.458340199897066","1","1","1","1","1","1","1","1","1"
"250070","img/neutralC/CFD-IM-721-341-N.jpg","img/neutralC/CFD-WF-234-086-N.jpg","img/neutralC/CFD-WF-208-068-N.jpg","1","1","1","1","1","1","0.458340199897066","0.379102899925783","0.407319199992344","1","1","1","1","1","1","1","1","1"
"250070","img/neutralC/CFD-WF-208-068-N.jpg","img/neutralC/CFD-IM-721-341-N.jpg","img/neutralC/CFD-WF-233-112-N.jpg","1","1","1","1","1","1","0.407319199992344","0.458340199897066","0.433374800020829","1","1","1","1","1","1","1","1","1"
"250070","img/neutralC/CFD-WF-233-112-N.jpg","img/neutralC/CFD-WF-208-068-N.jpg","img/neutralC/CFD-WM-248-036-N.jpg","1","1","1","1","1","1","0.433374800020829","0.407319199992344","0.421677500009537","1","1","1","1","1","1","1","1","1"
"250070","img/neutralC/CFD-WM-248-036-N.jpg","img/neutralC/CFD-WF-233-112-N.jpg","img/neutralC/CFD-BF-214-308-N.jpg","1","1","1","1","1","1","0.421677500009537","0.433374800020829","0.404174899915233","1","1","1","1","1","1","1","1","1"
"250070","img/neutralC/CFD-BF-214-308-N.jpg","img/neutralC/CFD-WM-248-036-N.jpg","img/neutralC/CFD-BM-241-235-N.jpg","1","1","1","1","1","0","0.404174899915233","0.421677500009537","0.572259500157088","1","1","1","1","1","1","1","1","1"
"250070","img/neutralC/CFD-BM-241-235-N.jpg","img/neutralC/CFD-BF-214-308-N.jpg","img/neutralC/CFD-BF-036-027-N.jpg","1","1","1","0","1","0","0.572259500157088","0.404174899915233","0.703729200176895","1","1","1","1","1","1","1","1","1"
"250070","img/neutralC/CFD-BF-036-027-N.jpg","img/neutralC/CFD-BM-241-235-N.jpg","img/neutralC/CFD-BF-247-179-N.jpg","1","1","1","0","0","0","0.703729200176895","0.572259500157088","0.460925000021234","1","1","1","1","1","1","1","1","1"
"250070","img/neutralC/CFD-BF-247-179-N.jpg","img/neutralC/CFD-BF-036-027-N.jpg","img/neutralC/CFD-BF-027-002-N.jpg","1","1","1","0","0","1","0.460925000021234","0.703729200176895","0.437551600160077","1","1","1","1","1","1","1","1","1"
"250070","img/neutralC/CFD-BF-027-002-N.jpg","img/neutralC/CFD-BF-247-179-N.jpg","img/neutralC/CFD-BF-236-177-N.jpg","1","1","1","1","0","0","0.437551600160077","0.460925000021234","0.313301999820396","1","1","1","1","1","1","1","1","1"
"250070","img/neutralC/CFD-BF-236-177-N.jpg","img/neutralC/CFD-BF-027-002-N.jpg","img/neutralC/CFD-BF-002-001-N.jpg","1","1","1","0","1","0","0.313301999820396","0.437551600160077","0.485906899906695","1","1","1","1","1","1","1","1","1"
"250070","img/neutralC/CFD-BF-002-001-N.jpg","img/neutralC/CFD-BF-236-177-N.jpg","img/neutralC/CFD-IF-677-452-1-N.jpg","1","1","1","0","0","1","0.485906899906695","0.313301999820396","0.468762599863112","1","1","1","1","1","1","1","1","1"
"250070","img/neutralC/CFD-IF-677-452-1-N.jpg","img/neutralC/CFD-BF-002-001-N.jpg","img/neutralC/CFD-MF-301-024-N.jpg","1","1","1","1","0","0","0.468762599863112","0.485906899906695","0.43324189982377","1","1","1","1","1","1","1","1","1"
"250070","img/neutralC/CFD-MF-301-024-N.jpg","img/neutralC/CFD-IF-677-452-1-N.jpg","img/neutralC/CFD-LM-213-061-N.jpg","1","1","1","0","1","0","0.43324189982377","0.468762599863112","0.506286799907684","1","1","1","1","1","1","1","1","1"
"250070","img/neutralC/CFD-LM-213-061-N.jpg","img/neutralC/CFD-MF-301-024-N.jpg","img/neutralC/CFD-BF-011-002-N.jpg","1","1","1","0","0","1","0.506286799907684","0.43324189982377","0.458892300026491","1","1","1","1","1","1","1","1","1"
"250070","img/neutralC/CFD-BF-011-002-N.jpg","img/neutralC/CFD-LM-213-061-N.jpg","img/neutralC/CFD-IM-707-105-N.jpg","1","1","1","1","0","1","0.458892300026491","0.506286799907684","0.599278300069273","1","1","1","1","1","1","1","1","1"
"250070","img/neutralC/CFD-IM-707-105-N.jpg","img/neutralC/CFD-BF-011-002-N.jpg","img/neutralC/CFD-WM-034-030-N.jpg","1","1","1","1","1","1","0.599278300069273","0.458892300026491","0.604457200039178","1","1","1","1","1","1","1","1","1"
"250070","img/neutralC/CFD-WM-034-030-N.jpg","img/neutralC/CFD-IM-707-105-N.jpg","img/neutralC/CFD-BF-207-004-N.jpg","1","1","1","1","1","1","0.604457200039178","0.599278300069273","0.526493999874219","1","1","1","1","1","1","1","1","1"
"250070","img/neutralC/CFD-BF-207-004-N.jpg","img/neutralC/CFD-WM-034-030-N.jpg","img/neutralC/CFD-BF-006-017-N.jpg","1","1","1","1","1","0","0.526493999874219","0.604457200039178","0.559412500122562","1","1","1","1","1","1","1","1","1"
"250070","img/neutralC/CFD-BF-006-017-N.jpg","img/neutralC/CFD-BF-207-004-N.jpg","img/neutralC/CFD-BM-207-024-N.jpg","1","1","1","0","1","1","0.559412500122562","0.526493999874219","0.417484900215641","1","1","1","1","1","1","1","1","1"
"250070","img/neutralC/CFD-BM-207-024-N.jpg","img/neutralC/CFD-BF-006-017-N.jpg","img/neutralC/CFD-AM-230-150-N.jpg","1","1","1","1","0","0","0.417484900215641","0.559412500122562","0.476278599817306","1","1","1","1","1","1","1","1","1"
"250070","img/neutralC/CFD-AM-230-150-N.jpg","img/neutralC/CFD-BM-207-024-N.jpg","img/neutralC/CFD-IM-696-001-N.jpg","1","1","1","0","1","0","0.476278599817306","0.417484900215641","0.356275500031188","1","1","1","1","1","1","1","1","1"
"250070","img/neutralC/CFD-IM-696-001-N.jpg","img/neutralC/CFD-AM-230-150-N.jpg","img/neutralC/CFD-WF-029-002-N.jpg","1","1","1","0","0","0","0.356275500031188","0.476278599817306","0.320150800049305","1","1","1","1","1","1","1","1","1"
"250070","img/neutralC/CFD-WF-029-002-N.jpg","img/neutralC/CFD-IM-696-001-N.jpg","img/neutralC/CFD-IF-742-103-N.jpg","1","1","1","0","0","1","0.320150800049305","0.356275500031188","0.446151400217786","1","1","1","1","1","1","1","1","1"
"250070","img/neutralC/CFD-IF-742-103-N.jpg","img/neutralC/CFD-WF-029-002-N.jpg","img/neutralC/CFD-BM-238-242-N.jpg","1","1","1","1","0","0","0.446151400217786","0.320150800049305","0.46706649987027","1","1","1","1","1","1","1","1","1"
"250070","img/neutralC/CFD-BM-238-242-N.jpg","img/neutralC/CFD-IF-742-103-N.jpg","img/neutralC/CFD-LF-204-133-N.jpg","1","1","1","0","1","1","0.46706649987027","0.446151400217786","0.463975299848244","1","1","1","1","1","1","1","1","1"
"250070","img/neutralC/CFD-LF-204-133-N.jpg","img/neutralC/CFD-BM-238-242-N.jpg","img/neutralC/CFD-IF-729-393-N.jpg","1","1","0","1","0","0","0.463975299848244","0.46706649987027","0.35537669993937","1","1","1","1","1","1","1","1","1"
"250070","img/neutralC/CFD-IF-729-393-N.jpg","img/neutralC/CFD-LF-204-133-N.jpg",NA,"0","1",NA,"0","1",NA,"0.35537669993937","0.463975299848244",NA,"1","1",NA,"1","1",NA,"1","1",NA
"250070","img/neutralC/CFD-LM-237-264-N.jpg",NA,"img/neutralC/CFD-IM-645-001-N.jpg","1",NA,"1","0",NA,"0","0.53486100002192",NA,"0.551273199962452","1",NA,"1","1",NA,"1","1",NA,"1"
"250070","img/neutralC/CFD-IM-645-001-N.jpg","img/neutralC/CFD-LM-237-264-N.jpg","img/neutralC/CFD-IM-671-601-N.jpg","1","1","1","0","0","0","0.551273199962452","0.53486100002192","0.405716399895027","1","1","1","1","1","1","1","1","1"
"250070","img/neutralC/CFD-IM-671-601-N.jpg","img/neutralC/CFD-IM-645-001-N.jpg","img/neutralC/CFD-LM-228-188-N.jpg","1","1","1","0","0","1","0.405716399895027","0.551273199962452","0.37234490015544","1","1","1","1","1","1","1","1","1"
"250070","img/neutralC/CFD-LM-228-188-N.jpg","img/neutralC/CFD-IM-671-601-N.jpg","img/neutralC/CFD-WM-235-147-N.jpg","1","1","0","1","0","0","0.37234490015544","0.405716399895027","0.347523200092837","1","1","1","1","1","1","1","1","1"
"250070","img/neutralC/CFD-WM-235-147-N.jpg","img/neutralC/CFD-LM-228-188-N.jpg","img/neutralC/CFD-MF-352-054-N.jpg","0","1","1","0","1","0","0.347523200092837","0.37234490015544","0.582978300051764","1","1","1","1","1","1","1","1","1"
"250070","img/neutralC/CFD-MF-352-054-N.jpg","img/neutralC/CFD-WM-235-147-N.jpg","img/neutralC/CFD-BF-229-179-N.jpg","1","0","1","0","0","0","0.582978300051764","0.347523200092837","0.55063940002583","1","1","1","1","1","1","1","1","1"
"250070","img/neutralC/CFD-BF-229-179-N.jpg","img/neutralC/CFD-MF-352-054-N.jpg","img/neutralC/CFD-MF-333-012-N.jpg","1","1","1","0","0","0","0.55063940002583","0.582978300051764","0.447225000010803","1","1","1","1","1","1","1","1","1"
"250070","img/neutralC/CFD-MF-333-012-N.jpg","img/neutralC/CFD-BF-229-179-N.jpg","img/neutralC/CFD-IM-703-182-N.jpg","1","1","1","0","0","1","0.447225000010803","0.55063940002583","0.433270999928936","1","1","1","1","1","1","1","1","1"
"250070","img/neutralC/CFD-IM-703-182-N.jpg","img/neutralC/CFD-MF-333-012-N.jpg","img/neutralC/CFD-LF-220-120-N.jpg","1","1","1","1","0","1","0.433270999928936","0.447225000010803","0.53194099990651","1","1","1","1","1","1","1","1","1"
"250070","img/neutralC/CFD-LF-220-120-N.jpg","img/neutralC/CFD-IM-703-182-N.jpg","img/neutralC/CFD-AM-251-124-N.jpg","1","1","1","1","1","0","0.53194099990651","0.433270999928936","0.45848249993287","1","1","1","1","1","1","1","1","1"
"250070","img/neutralC/CFD-AM-251-124-N.jpg","img/neutralC/CFD-LF-220-120-N.jpg","img/neutralC/CFD-BM-253-004-N.jpg","1","1","1","0","1","1","0.45848249993287","0.53194099990651","0.424189199926332","1","1","1","1","1","1","1","1","1"
"250070","img/neutralC/CFD-BM-253-004-N.jpg","img/neutralC/CFD-AM-251-124-N.jpg","img/neutralC/CFD-BF-226-119-N.jpg","1","1","1","1","0","1","0.424189199926332","0.45848249993287","0.480553400004283","1","1","1","1","1","1","1","1","1"
"250070","img/neutralC/CFD-BF-226-119-N.jpg","img/neutralC/CFD-BM-253-004-N.jpg","img/neutralC/CFD-BF-038-037-N.jpg","1","1","1","1","1","1","0.480553400004283","0.424189199926332","0.37843140005134","1","1","1","1","1","1","1","1","1"
"250070","img/neutralC/CFD-BF-038-037-N.jpg","img/neutralC/CFD-BF-226-119-N.jpg","img/neutralC/CFD-WM-020-001-N.jpg","1","1","1","1","1","1","0.37843140005134","0.480553400004283","0.363223399966955","1","1","1","1","1","1","1","1","1"
"250070","img/neutralC/CFD-WM-020-001-N.jpg","img/neutralC/CFD-BF-038-037-N.jpg","img/neutralC/CFD-LF-218-072-N.jpg","1","1","1","1","1","0","0.363223399966955","0.37843140005134","0.379437200026587","1","1","1","1","1","1","1","1","1"
"250070","img/neutralC/CFD-LF-218-072-N.jpg","img/neutralC/CFD-WM-020-001-N.jpg","img/neutralC/CFD-IM-743-006-N.jpg","1","1","1","0","1","1","0.379437200026587","0.363223399966955","0.378244899911806","1","1","1","1","1","1","1","1","1"
"250070","img/neutralC/CFD-IM-743-006-N.jpg","img/neutralC/CFD-LF-218-072-N.jpg","img/neutralC/CFD-IF-650-315-N.jpg","1","1","1","1","0","0","0.378244899911806","0.379437200026587","0.412748199887574","1","1","1","1","1","1","1","1","1"
"250070","img/neutralC/CFD-IF-650-315-N.jpg","img/neutralC/CFD-IM-743-006-N.jpg","img/neutralC/CFD-AM-211-052-N.jpg","1","1","1","0","1","1","0.412748199887574","0.378244899911806","0.459991799900308","1","1","1","1","1","1","1","1","1"
"250070","img/neutralC/CFD-AM-211-052-N.jpg","img/neutralC/CFD-IF-650-315-N.jpg","img/neutralC/CFD-AM-242-176-N.jpg","1","1","1","1","0","1","0.459991799900308","0.412748199887574","0.393470500130206","1","1","1","1","1","1","1","1","1"
"250070","img/neutralC/CFD-AM-242-176-N.jpg","img/neutralC/CFD-AM-211-052-N.jpg","img/neutralC/CFD-IF-623-129-N.jpg","1","1","1","1","1","1","0.393470500130206","0.459991799900308","0.407060800120234","1","1","1","1","1","1","1","1","1"
"250070","img/neutralC/CFD-IF-623-129-N.jpg","img/neutralC/CFD-AM-242-176-N.jpg","img/neutralC/CFD-WF-214-122-N.jpg","1","1","1","1","1","1","0.407060800120234","0.393470500130206","0.53817420010455","1","1","1","1","1","1","1","1","1"
"250070","img/neutralC/CFD-WF-214-122-N.jpg","img/neutralC/CFD-IF-623-129-N.jpg","img/neutralC/CFD-BM-225-154-N.jpg","1","1","1","1","1","1","0.53817420010455","0.407060800120234","0.488117200089619","1","1","1","1","1","1","1","1","1"
"250070","img/neutralC/CFD-BM-225-154-N.jpg","img/neutralC/CFD-WF-214-122-N.jpg","img/neutralC/CFD-WF-036-023-N.jpg","1","1","1","1","1","0","0.488117200089619","0.53817420010455","0.341528799850494","1","1","1","1","1","1","1","1","2"
"250070","img/neutralC/CFD-WF-036-023-N.jpg","img/neutralC/CFD-BM-225-154-N.jpg","img/neutralC/CFD-WM-219-008-N.jpg","1","1","0","0","1","0","0.341528799850494","0.488117200089619","0.395634099841118","1","1","1","1","1","1","2","1","1"
"250070","img/neutralC/CFD-WM-219-008-N.jpg","img/neutralC/CFD-WF-036-023-N.jpg","img/neutralC/CFD-WF-200-099-N.jpg","0","1","1","0","0","0","0.395634099841118","0.341528799850494","0.443080900004134","1","1","1","1","1","1","1","2","1"
"250070","img/neutralC/CFD-WF-200-099-N.jpg","img/neutralC/CFD-WM-219-008-N.jpg","img/neutralC/CFD-BF-232-187-N.jpg","1","0","1","0","0","1","0.443080900004134","0.395634099841118","0.364871900063008","1","1","1","1","1","1","1","1","1"
"250070","img/neutralC/CFD-BF-232-187-N.jpg","img/neutralC/CFD-WF-200-099-N.jpg","img/neutralC/CFD-WM-004-010-N.jpg","1","1","0","1","0","0","0.364871900063008","0.443080900004134","1.19679830013774","1","1","1","1","1","1","1","1","1"
"250070","img/neutralC/CFD-WM-004-010-N.jpg","img/neutralC/CFD-BF-232-187-N.jpg","img/neutralC/CFD-WM-033-025-N.jpg","0","1","1","0","1","1","1.19679830013774","0.364871900063008","0.406762799946591","1","1","1","1","1","1","1","1","1"
"250070","img/neutralC/CFD-WM-033-025-N.jpg","img/neutralC/CFD-WM-004-010-N.jpg","img/neutralC/CFD-MF-359-019-N.jpg","1","0","1","1","0","0","0.406762799946591","1.19679830013774","0.418450500117615","1","1","1","1","1","1","1","1","1"
"250070","img/neutralC/CFD-MF-359-019-N.jpg","img/neutralC/CFD-WM-033-025-N.jpg","img/neutralC/CFD-WF-001-003-N.jpg","1","1","1","0","1","1","0.418450500117615","0.406762799946591","0.458807799965143","1","1","1","1","1","1","1","1","1"
"250070","img/neutralC/CFD-WF-001-003-N.jpg","img/neutralC/CFD-MF-359-019-N.jpg","img/neutralC/CFD-IM-616-214-N.jpg","1","1","1","1","0","0","0.458807799965143","0.418450500117615","0.529792400076985","1","1","1","1","1","1","1","1","1"
"250070","img/neutralC/CFD-IM-616-214-N.jpg","img/neutralC/CFD-WF-001-003-N.jpg",NA,"1","1",NA,"0","1",NA,"0.529792400076985","0.458807799965143",NA,"1","1",NA,"1","1",NA,"1","1",NA
"250070","img/neutralC/CFD-IM-709-103-N.jpg",NA,"img/neutralC/CFD-MF-329-001-N.jpg","0",NA,"1","0",NA,"0","0.773976000025868",NA,"0.621036299970001","1",NA,"1","1",NA,"1","1",NA,"1"
"250070","img/neutralC/CFD-MF-329-001-N.jpg","img/neutralC/CFD-IM-709-103-N.jpg","img/neutralC/CFD-AF-229-160-N.jpg","1","0","0","0","0","0","0.621036299970001","0.773976000025868","0.335791899822652","1","1","1","1","1","1","1","1","1"
"250070","img/neutralC/CFD-AF-229-160-N.jpg","img/neutralC/CFD-MF-329-001-N.jpg","img/neutralC/CFD-IF-619-197-N.jpg","0","1","1","0","0","0","0.335791899822652","0.621036299970001","0.58748560003005","1","1","1","1","1","1","1","1","1"
"250070","img/neutralC/CFD-IF-619-197-N.jpg","img/neutralC/CFD-AF-229-160-N.jpg","img/neutralC/CFD-IM-675-015-N.jpg","1","0","1","0","0","1","0.58748560003005","0.335791899822652","0.486919899936765","1","1","1","1","1","1","1","1","1"
"250070","img/neutralC/CFD-IM-675-015-N.jpg","img/neutralC/CFD-IF-619-197-N.jpg","img/neutralC/CFD-LF-201-035-N.jpg","1","1","1","1","0","1","0.486919899936765","0.58748560003005","0.459626200143248","1","1","1","1","1","1","1","1","1"
"250070","img/neutralC/CFD-LF-201-035-N.jpg","img/neutralC/CFD-IM-675-015-N.jpg","img/neutralC/CFD-AM-236-090-N.jpg","1","1","1","1","1","1","0.459626200143248","0.486919899936765","0.487914300058037","1","1","1","1","1","1","1","1","1"
"250070","img/neutralC/CFD-AM-236-090-N.jpg","img/neutralC/CFD-LF-201-035-N.jpg","img/neutralC/CFD-MF-340-026-N.jpg","1","1","1","1","1","1","0.487914300058037","0.459626200143248","0.381210200022906","1","1","1","1","1","1","1","1","1"
"250070","img/neutralC/CFD-MF-340-026-N.jpg","img/neutralC/CFD-AM-236-090-N.jpg","img/neutralC/CFD-AF-215-70-N.jpg","1","1","1","1","1","0","0.381210200022906","0.487914300058037","0.398165500024334","1","1","1","1","1","1","1","1","1"
"250070","img/neutralC/CFD-AF-215-70-N.jpg","img/neutralC/CFD-MF-340-026-N.jpg","img/neutralC/CFD-BF-051-035-N.jpg","1","1","1","0","1","0","0.398165500024334","0.381210200022906","0.445212499937043","1","1","1","1","1","1","1","1","1"
"250070","img/neutralC/CFD-BF-051-035-N.jpg","img/neutralC/CFD-AF-215-70-N.jpg","img/neutralC/CFD-WF-012-002-N.jpg","1","1","1","0","0","1","0.445212499937043","0.398165500024334","0.424891700036824","1","1","1","1","1","1","1","1","1"
"250070","img/neutralC/CFD-WF-012-002-N.jpg","img/neutralC/CFD-BF-051-035-N.jpg","img/neutralC/CFD-LM-217-162-N.jpg","1","1","1","1","0","0","0.424891700036824","0.445212499937043","0.46338459989056","1","1","1","1","1","1","1","1","1"
"250070","img/neutralC/CFD-LM-217-162-N.jpg","img/neutralC/CFD-WF-012-002-N.jpg","img/neutralC/CFD-IM-604-014-N.jpg","1","1","1","0","1","0","0.46338459989056","0.424891700036824","0.4863346000202","1","1","1","1","1","1","1","1","1"
"250070","img/neutralC/CFD-IM-604-014-N.jpg","img/neutralC/CFD-LM-217-162-N.jpg","img/neutralC/CFD-IM-637-007-N.jpg","1","1","1","0","0","0","0.4863346000202","0.46338459989056","0.408804300008342","1","1","1","1","1","1","1","1","1"
"250070","img/neutralC/CFD-IM-637-007-N.jpg","img/neutralC/CFD-IM-604-014-N.jpg","img/neutralC/CFD-BM-039-029-N.jpg","1","1","1","0","0","1","0.408804300008342","0.4863346000202","0.422712699975818","1","1","1","1","1","1","1","1","1"
"250070","img/neutralC/CFD-BM-039-029-N.jpg","img/neutralC/CFD-IM-637-007-N.jpg","img/neutralC/CFD-BF-224-002-N.jpg","1","1","1","1","0","1","0.422712699975818","0.408804300008342","0.503489500144497","1","1","1","1","1","1","1","1","1"
"250070","img/neutralC/CFD-BF-224-002-N.jpg","img/neutralC/CFD-BM-039-029-N.jpg","img/neutralC/CFD-AF-254-167-N.jpg","1","1","1","1","1","1","0.503489500144497","0.422712699975818","0.589532499900088","1","1","1","1","1","1","1","1","1"
"250070","img/neutralC/CFD-AF-254-167-N.jpg","img/neutralC/CFD-BF-224-002-N.jpg","img/neutralC/CFD-WM-213-076-N.jpg","1","1","1","1","1","1","0.589532499900088","0.503489500144497","0.298215799964964","1","1","1","1","1","1","1","1","1"
"250070","img/neutralC/CFD-WM-213-076-N.jpg","img/neutralC/CFD-AF-254-167-N.jpg","img/neutralC/CFD-WF-248-129-N.jpg","1","1","1","1","1","0","0.298215799964964","0.589532499900088","0.29630359984003","1","1","1","1","1","1","1","1","1"
"250070","img/neutralC/CFD-WF-248-129-N.jpg","img/neutralC/CFD-WM-213-076-N.jpg","img/neutralC/CFD-WM-024-015-N.jpg","1","1","1","0","1","1","0.29630359984003","0.298215799964964","0.351545200217515","1","1","1","1","1","1","1","1","1"
"250070","img/neutralC/CFD-WM-024-015-N.jpg","img/neutralC/CFD-WF-248-129-N.jpg","img/neutralC/CFD-MF-327-002-N.jpg","1","1","1","1","0","0","0.351545200217515","0.29630359984003","0.329238799866289","1","1","1","1","1","1","1","1","1"
"250070","img/neutralC/CFD-MF-327-002-N.jpg","img/neutralC/CFD-WM-024-015-N.jpg","img/neutralC/CFD-WF-217-085-N.jpg","1","1","1","0","1","1","0.329238799866289","0.351545200217515","0.41976199997589","1","1","1","1","1","1","1","1","1"
"250070","img/neutralC/CFD-WF-217-085-N.jpg","img/neutralC/CFD-MF-327-002-N.jpg","img/neutralC/CFD-MM-304-002-N.jpg","1","1","1","1","0","1","0.41976199997589","0.329238799866289","0.421745399944484","1","1","1","1","1","1","1","1","1"
"250070","img/neutralC/CFD-MM-304-002-N.jpg","img/neutralC/CFD-WF-217-085-N.jpg","img/neutralC/CFD-MF-300-002-N.jpg","1","1","1","1","1","0","0.421745399944484","0.41976199997589","0.409409600077197","1","1","1","1","1","1","1","1","1"
"250070","img/neutralC/CFD-MF-300-002-N.jpg","img/neutralC/CFD-MM-304-002-N.jpg","img/neutralC/CFD-WF-008-002-N.jpg","1","1","1","0","1","1","0.409409600077197","0.421745399944484","0.517186599783599","1","1","1","1","1","1","1","1","1"
"250070","img/neutralC/CFD-WF-008-002-N.jpg","img/neutralC/CFD-MF-300-002-N.jpg","img/neutralC/CFD-BF-043-003-N.jpg","1","1","1","1","0","0","0.517186599783599","0.409409600077197","0.329352099914104","1","1","1","1","1","1","1","1","1"
"250070","img/neutralC/CFD-BF-043-003-N.jpg","img/neutralC/CFD-WF-008-002-N.jpg","img/neutralC/CFD-BM-243-218-N.jpg","1","1","1","0","1","1","0.329352099914104","0.517186599783599","0.371163700008765","1","1","1","1","1","1","1","1","1"
"250070","img/neutralC/CFD-BM-243-218-N.jpg","img/neutralC/CFD-BF-043-003-N.jpg","img/neutralC/CFD-LF-226-174-N.jpg","1","1","0","1","0","0","0.371163700008765","0.329352099914104","0.455963200191036","1","1","1","1","1","1","1","1","1"
"250070","img/neutralC/CFD-LF-226-174-N.jpg","img/neutralC/CFD-BM-243-218-N.jpg","img/neutralC/CFD-IM-685-004-N.jpg","0","1","1","0","1","1","0.455963200191036","0.371163700008765","0.452673400053755","1","1","1","1","1","1","1","1","1"
"250070","img/neutralC/CFD-IM-685-004-N.jpg","img/neutralC/CFD-LF-226-174-N.jpg","img/neutralC/CFD-IF-608-390-N.jpg","1","0","1","1","0","1","0.452673400053755","0.455963200191036","0.450481900013983","1","1","1","1","1","1","1","1","1"
"250070","img/neutralC/CFD-IF-608-390-N.jpg","img/neutralC/CFD-IM-685-004-N.jpg","img/neutralC/CFD-WM-232-070-N.jpg","1","1","1","1","1","0","0.450481900013983","0.452673400053755","0.453580099856481","1","1","1","1","1","1","1","1","1"
"250070","img/neutralC/CFD-WM-232-070-N.jpg","img/neutralC/CFD-IF-608-390-N.jpg","img/neutralC/CFD-WF-212-050-N.jpg","1","1","1","0","1","0","0.453580099856481","0.450481900013983","0.544356999918818","1","1","1","1","1","1","1","1","1"
"250070","img/neutralC/CFD-WF-212-050-N.jpg","img/neutralC/CFD-WM-232-070-N.jpg",NA,"1","1",NA,"0","0",NA,"0.544356999918818","0.453580099856481",NA,"1","1",NA,"1","1",NA,"1","1",NA
"250070","img/neutralC/CFD-WM-255-219-N.jpg",NA,"img/neutralC/CFD-IF-629-234-N.jpg","1",NA,"1","0",NA,"0","0.671285300049931",NA,"0.555526299867779","1",NA,"1","1",NA,"1","1",NA,"1"
"250070","img/neutralC/CFD-IF-629-234-N.jpg","img/neutralC/CFD-WM-255-219-N.jpg","img/neutralC/CFD-AF-232-078-N.jpg","1","1","1","0","0","1","0.555526299867779","0.671285300049931","0.372677200008184","1","1","1","1","1","1","1","1","1"
"250070","img/neutralC/CFD-AF-232-078-N.jpg","img/neutralC/CFD-IF-629-234-N.jpg","img/neutralC/CFD-BM-023-029-N.jpg","1","1","1","1","0","1","0.372677200008184","0.555526299867779","0.362287400057539","1","1","1","1","1","1","1","1","1"
"250070","img/neutralC/CFD-BM-023-029-N.jpg","img/neutralC/CFD-AF-232-078-N.jpg","img/neutralC/CFD-MF-321-003-N.jpg","1","1","1","1","1","0","0.362287400057539","0.372677200008184","0.426256999839097","1","1","1","1","1","1","1","1","1"
"250070","img/neutralC/CFD-MF-321-003-N.jpg","img/neutralC/CFD-BM-023-029-N.jpg","img/neutralC/CFD-LF-215-157-N.jpg","1","1","1","0","1","0","0.426256999839097","0.362287400057539","0.523494899971411","1","1","1","1","1","1","1","1","1"
"250070","img/neutralC/CFD-LF-215-157-N.jpg","img/neutralC/CFD-MF-321-003-N.jpg","img/neutralC/CFD-MM-321-021-N.jpg","1","1","1","0","0","0","0.523494899971411","0.426256999839097","0.453415900003165","1","1","1","1","1","1","1","1","1"
"250070","img/neutralC/CFD-MM-321-021-N.jpg","img/neutralC/CFD-LF-215-157-N.jpg","img/neutralC/CFD-AF-221-147-N.jpg","1","1","1","0","0","0","0.453415900003165","0.523494899971411","0.28297089994885","1","1","1","1","1","1","1","1","1"
"250070","img/neutralC/CFD-AF-221-147-N.jpg","img/neutralC/CFD-MM-321-021-N.jpg","img/neutralC/CFD-BF-218-207-N.jpg","1","1","1","0","0","1","0.28297089994885","0.453415900003165","0.451035900041461","1","1","1","1","1","1","1","1","1"
"250070","img/neutralC/CFD-BF-218-207-N.jpg","img/neutralC/CFD-AF-221-147-N.jpg","img/neutralC/CFD-WM-201-063-N.jpg","1","1","1","1","0","1","0.451035900041461","0.28297089994885","0.424623900093138","1","1","1","1","1","1","1","1","1"
"250070","img/neutralC/CFD-WM-201-063-N.jpg","img/neutralC/CFD-BF-218-207-N.jpg","img/neutralC/CFD-WF-027-003-N.jpg","1","1","1","1","1","1","0.424623900093138","0.451035900041461","0.426412099972367","1","1","1","1","1","1","1","1","1"
"250070","img/neutralC/CFD-WF-027-003-N.jpg","img/neutralC/CFD-WM-201-063-N.jpg","img/neutralC/CFD-LM-253-075-N.jpg","1","1","1","1","1","0","0.426412099972367","0.424623900093138","0.289825099986046","1","1","1","1","1","1","1","1","1"
"250070","img/neutralC/CFD-LM-253-075-N.jpg","img/neutralC/CFD-WF-027-003-N.jpg","img/neutralC/CFD-WM-221-091-N.jpg","1","1","0","0","1","0","0.289825099986046","0.426412099972367","0.328246100107208","1","1","1","1","1","1","1","1","1"
"250070","img/neutralC/CFD-WM-221-091-N.jpg","img/neutralC/CFD-LM-253-075-N.jpg","img/neutralC/CFD-BM-204-003-N.jpg","0","1","1","0","0","0","0.328246100107208","0.289825099986046","0.426122599979863","1","1","1","1","1","1","1","1","1"
"250070","img/neutralC/CFD-BM-204-003-N.jpg","img/neutralC/CFD-WM-221-091-N.jpg","img/neutralC/CFD-WM-009-002-N.jpg","1","0","1","0","0","0","0.426122599979863","0.328246100107208","0.583142200019211","1","1","1","1","1","1","1","1","1"
"250070","img/neutralC/CFD-WM-009-002-N.jpg","img/neutralC/CFD-BM-204-003-N.jpg","img/neutralC/CFD-BF-254-201-N.jpg","1","1","1","0","0","0","0.583142200019211","0.426122599979863","0.492580299964175","1","1","1","1","1","1","1","1","1"
"250070","img/neutralC/CFD-BF-254-201-N.jpg","img/neutralC/CFD-WM-009-002-N.jpg","img/neutralC/CFD-WM-237-052-N.jpg","1","1","1","0","0","1","0.492580299964175","0.583142200019211","0.39687000005506","1","1","1","1","1","1","1","1","1"
"250070","img/neutralC/CFD-WM-237-052-N.jpg","img/neutralC/CFD-BF-254-201-N.jpg","img/neutralC/CFD-BM-200-046-N.jpg","1","1","1","1","0","0","0.39687000005506","0.492580299964175","0.413549300050363","1","1","1","1","1","1","1","1","1"
"250070","img/neutralC/CFD-BM-200-046-N.jpg","img/neutralC/CFD-WM-237-052-N.jpg","img/neutralC/CFD-BF-018-039-N.jpg","1","1","1","0","1","1","0.413549300050363","0.39687000005506","0.391207800013945","1","1","1","1","1","1","1","1","1"
"250070","img/neutralC/CFD-BF-018-039-N.jpg","img/neutralC/CFD-BM-200-046-N.jpg","img/neutralC/CFD-IM-627-178-N.jpg","1","1","1","1","0","1","0.391207800013945","0.413549300050363","0.399645699886605","1","1","1","1","1","1","1","1","1"
"250070","img/neutralC/CFD-IM-627-178-N.jpg","img/neutralC/CFD-BF-018-039-N.jpg","img/neutralC/CFD-MF-342-022-N.jpg","1","1","1","1","1","1","0.399645699886605","0.391207800013945","0.33446990000084","1","1","1","1","1","1","1","1","1"
"250070","img/neutralC/CFD-MF-342-022-N.jpg","img/neutralC/CFD-IM-627-178-N.jpg","img/neutralC/CFD-WF-226-095-N.jpg","1","1","1","1","1","1","0.33446990000084","0.399645699886605","0.40617229999043","1","1","1","1","1","1","1","1","1"
"250070","img/neutralC/CFD-WF-226-095-N.jpg","img/neutralC/CFD-MF-342-022-N.jpg","img/neutralC/CFD-WF-023-003-N.jpg","1","1","1","1","1","1","0.40617229999043","0.33446990000084","0.423750400077552","1","1","1","1","1","1","1","1","1"
"250070","img/neutralC/CFD-WF-023-003-N.jpg","img/neutralC/CFD-WF-226-095-N.jpg","img/neutralC/CFD-AM-244-222-N.jpg","1","1","0","1","1","0","0.423750400077552","0.40617229999043","0.558993400074542","1","1","1","1","1","1","1","1","1"
"250070","img/neutralC/CFD-AM-244-222-N.jpg","img/neutralC/CFD-WF-023-003-N.jpg","img/neutralC/CFD-MF-318-022-N.jpg","0","1","1","0","1","1","0.558993400074542","0.423750400077552","0.731404699850827","1","1","1","1","1","1","1","1","1"
"250070","img/neutralC/CFD-MF-318-022-N.jpg","img/neutralC/CFD-AM-244-222-N.jpg","img/neutralC/CFD-IM-700-009-N.jpg","1","0","1","1","0","1","0.731404699850827","0.558993400074542","0.555234000086784","1","1","1","1","1","1","1","1","1"
"250070","img/neutralC/CFD-IM-700-009-N.jpg","img/neutralC/CFD-MF-318-022-N.jpg","img/neutralC/CFD-LF-211-003-N.jpg","1","1","1","1","1","0","0.555234000086784","0.731404699850827","0.611656200140715","1","1","1","1","1","1","1","1","1"
"250070","img/neutralC/CFD-LF-211-003-N.jpg","img/neutralC/CFD-IM-700-009-N.jpg","img/neutralC/CFD-WF-238-023-N.jpg","1","1","1","0","1","0","0.611656200140715","0.555234000086784","0.59556379984133","1","1","1","1","1","1","1","1","1"
"250070","img/neutralC/CFD-WF-238-023-N.jpg","img/neutralC/CFD-LF-211-003-N.jpg","img/neutralC/CFD-WM-013-001-N.jpg","1","1","1","0","0","1","0.59556379984133","0.611656200140715","0.425339199835435","1","1","1","1","1","1","1","1","1"
"250070","img/neutralC/CFD-WM-013-001-N.jpg","img/neutralC/CFD-WF-238-023-N.jpg","img/neutralC/CFD-WF-245-084-N.jpg","1","1","1","1","0","1","0.425339199835435","0.59556379984133","0.471664200071245","1","1","1","1","1","1","1","1","1"
"250070","img/neutralC/CFD-WF-245-084-N.jpg","img/neutralC/CFD-WM-013-001-N.jpg","img/neutralC/CFD-WF-018-017-N.jpg","1","1","1","1","1","1","0.471664200071245","0.425339199835435","0.419891699915752","1","1","1","1","1","1","1","1","1"
"250070","img/neutralC/CFD-WF-018-017-N.jpg","img/neutralC/CFD-WF-245-084-N.jpg","img/neutralC/CFD-IM-719-221-N.jpg","1","1","1","1","1","0","0.419891699915752","0.471664200071245","0.482314500026405","1","1","1","1","1","1","1","1","1"
"250070","img/neutralC/CFD-IM-719-221-N.jpg","img/neutralC/CFD-WF-018-017-N.jpg",NA,"1","1",NA,"0","1",NA,"0.482314500026405","0.419891699915752",NA,"1","1",NA,"1","1",NA,"1","1",NA
"250070","img/neutralC/CFD-IF-626-375-N.jpg",NA,"img/neutralC/CFD-WM-015-002-N.jpg","1",NA,"1","0",NA,"0","0.606784699950367",NA,"0.568310200003907","1",NA,"1","1",NA,"1","1",NA,"1"
"250070","img/neutralC/CFD-WM-015-002-N.jpg","img/neutralC/CFD-IF-626-375-N.jpg","img/neutralC/CFD-IM-706-002-N.jpg","1","1","1","0","0","0","0.568310200003907","0.606784699950367","0.603383500128984","1","1","1","1","1","1","1","1","1"
"250070","img/neutralC/CFD-IM-706-002-N.jpg","img/neutralC/CFD-WM-015-002-N.jpg","img/neutralC/CFD-WF-007-001-N.jpg","1","1","1","0","0","1","0.603383500128984","0.568310200003907","0.656146000139415","1","1","1","1","1","1","1","1","1"
"250070","img/neutralC/CFD-WF-007-001-N.jpg","img/neutralC/CFD-IM-706-002-N.jpg","img/neutralC/CFD-WM-218-074-N.jpg","1","1","1","1","0","1","0.656146000139415","0.603383500128984","0.409099099924788","1","1","1","1","1","1","1","1","1"
"250070","img/neutralC/CFD-WM-218-074-N.jpg","img/neutralC/CFD-WF-007-001-N.jpg","img/neutralC/CFD-AF-253-130-N.jpg","1","1","1","1","1","1","0.409099099924788","0.656146000139415","0.400748000014573","1","1","1","1","1","1","1","1","1"
"250070","img/neutralC/CFD-AF-253-130-N.jpg","img/neutralC/CFD-WM-218-074-N.jpg","img/neutralC/CFD-MF-316-001-N.jpg","1","1","0","1","1","0","0.400748000014573","0.409099099924788","0.444951300043613","1","1","1","1","1","1","1","1","2"
"250070","img/neutralC/CFD-MF-316-001-N.jpg","img/neutralC/CFD-AF-253-130-N.jpg","img/neutralC/CFD-IM-664-651-N.jpg","0","1","1","0","1","1","0.444951300043613","0.400748000014573","0.487177700037137","1","1","1","1","1","1","2","1","1"
"250070","img/neutralC/CFD-IM-664-651-N.jpg","img/neutralC/CFD-MF-316-001-N.jpg","img/neutralC/CFD-LF-206-078-N.jpg","1","0","1","1","0","1","0.487177700037137","0.444951300043613","0.452399499947205","1","1","1","1","1","1","1","2","1"
"250070","img/neutralC/CFD-LF-206-078-N.jpg","img/neutralC/CFD-IM-664-651-N.jpg","img/neutralC/CFD-IM-680-369-N.jpg","1","1","1","1","1","1","0.452399499947205","0.487177700037137","0.50335399992764","1","1","1","1","1","1","1","1","1"
"250070","img/neutralC/CFD-IM-680-369-N.jpg","img/neutralC/CFD-LF-206-078-N.jpg","img/neutralC/CFD-LM-200-045-N.jpg","1","1","1","1","1","1","0.50335399992764","0.452399499947205","0.564445800147951","1","1","1","1","1","1","1","1","1"
"250070","img/neutralC/CFD-LM-200-045-N.jpg","img/neutralC/CFD-IM-680-369-N.jpg","img/neutralC/CFD-BM-250-170-N.jpg","1","1","1","1","1","1","0.564445800147951","0.50335399992764","0.567008000100031","1","1","1","1","1","1","1","1","1"
"250070","img/neutralC/CFD-BM-250-170-N.jpg","img/neutralC/CFD-LM-200-045-N.jpg","img/neutralC/CFD-WF-244-163-N.jpg","1","1","1","1","1","1","0.567008000100031","0.564445800147951","0.444505300140008","1","1","1","1","1","1","1","1","1"
"250070","img/neutralC/CFD-WF-244-163-N.jpg","img/neutralC/CFD-BM-250-170-N.jpg","img/neutralC/CFD-AM-220-134-N.jpg","1","1","1","1","1","0","0.444505300140008","0.567008000100031","0.460837699938565","1","1","1","1","1","1","1","1","1"
"250070","img/neutralC/CFD-AM-220-134-N.jpg","img/neutralC/CFD-WF-244-163-N.jpg","img/neutralC/CFD-BF-237-172-N.jpg","1","1","1","0","1","1","0.460837699938565","0.444505300140008","0.448085699928924","1","1","1","1","1","1","1","1","1"
"250070","img/neutralC/CFD-BF-237-172-N.jpg","img/neutralC/CFD-AM-220-134-N.jpg","img/neutralC/CFD-WF-030-002-N.jpg","1","1","1","1","0","0","0.448085699928924","0.460837699938565","0.44836000003852","1","1","1","1","1","1","1","1","1"
"250070","img/neutralC/CFD-WF-030-002-N.jpg","img/neutralC/CFD-BF-237-172-N.jpg","img/neutralC/CFD-WF-222-092-N.jpg","1","1","1","0","1","1","0.44836000003852","0.448085699928924","0.409690999891609","1","1","1","1","1","1","1","1","1"
"250070","img/neutralC/CFD-WF-222-092-N.jpg","img/neutralC/CFD-WF-030-002-N.jpg","img/neutralC/CFD-IM-667-369-N.jpg","1","1","0","1","0","0","0.409690999891609","0.44836000003852","0.470091999974102","1","1","1","1","1","1","1","1","2"
"250070","img/neutralC/CFD-IM-667-369-N.jpg","img/neutralC/CFD-WF-222-092-N.jpg","img/neutralC/CFD-AF-233-190-N.jpg","0","1","1","0","1","0","0.470091999974102","0.409690999891609","0.745502199977636","1","1","1","1","1","1","2","1","1"
"250070","img/neutralC/CFD-AF-233-190-N.jpg","img/neutralC/CFD-IM-667-369-N.jpg","img/neutralC/CFD-WM-209-038-N.jpg","1","0","1","0","0","0","0.745502199977636","0.470091999974102","0.560016100062057","1","1","1","1","1","1","1","2","1"
"250070","img/neutralC/CFD-WM-209-038-N.jpg","img/neutralC/CFD-AF-233-190-N.jpg","img/neutralC/CFD-MF-343-001-N.jpg","1","1","1","0","0","1","0.560016100062057","0.745502199977636","0.459560699993744","1","1","1","1","1","1","1","1","1"
"250070","img/neutralC/CFD-MF-343-001-N.jpg","img/neutralC/CFD-WM-209-038-N.jpg","img/neutralC/CFD-IM-702-101-N.jpg","1","1","1","1","0","1","0.459560699993744","0.560016100062057","0.471925400197506","1","1","1","1","1","1","1","1","1"
"250070","img/neutralC/CFD-IM-702-101-N.jpg","img/neutralC/CFD-MF-343-001-N.jpg","img/neutralC/CFD-MF-357-002-N.jpg","1","1","1","1","1","0","0.471925400197506","0.459560699993744","0.475775300059468","1","1","1","1","1","1","1","1","1"
"250070","img/neutralC/CFD-MF-357-002-N.jpg","img/neutralC/CFD-IM-702-101-N.jpg","img/neutralC/CFD-BM-217-082-N.jpg","1","1","1","0","1","0","0.475775300059468","0.471925400197506","0.529809399973601","1","1","1","1","1","1","1","1","1"
"250070","img/neutralC/CFD-BM-217-082-N.jpg","img/neutralC/CFD-MF-357-002-N.jpg","img/neutralC/CFD-MM-324-069-N.jpg","1","1","1","0","0","1","0.529809399973601","0.475775300059468","0.615334500093013","1","1","1","1","1","1","1","1","1"
"250070","img/neutralC/CFD-MM-324-069-N.jpg","img/neutralC/CFD-BM-217-082-N.jpg","img/neutralC/CFD-IF-660-464-N.jpg","1","1","0","1","0","0","0.615334500093013","0.529809399973601","0.604567800182849","1","1","1","1","1","1","1","1","1"
"250070","img/neutralC/CFD-IF-660-464-N.jpg","img/neutralC/CFD-MM-324-069-N.jpg","img/neutralC/CFD-MF-303-013-N.jpg","0","1","1","0","1","0","0.604567800182849","0.615334500093013","0.416568599874154","1","1","1","1","1","1","1","1","1"
"250070","img/neutralC/CFD-MF-303-013-N.jpg","img/neutralC/CFD-IF-660-464-N.jpg","img/neutralC/CFD-LF-255-088-N.jpg","1","0","1","0","0","0","0.416568599874154","0.604567800182849","0.406038299901411","1","1","1","1","1","1","1","1","1"
"250070","img/neutralC/CFD-LF-255-088-N.jpg","img/neutralC/CFD-MF-303-013-N.jpg","img/neutralC/CFD-LM-225-130-N.jpg","1","1","1","0","0","0","0.406038299901411","0.416568599874154","0.372940799919888","1","1","1","1","1","1","1","1","1"
"250070","img/neutralC/CFD-LM-225-130-N.jpg","img/neutralC/CFD-LF-255-088-N.jpg","img/neutralC/CFD-MF-305-014-N.jpg","1","1","1","0","0","1","0.372940799919888","0.406038299901411","0.403394400142133","1","1","1","1","1","1","1","1","1"
"250070","img/neutralC/CFD-MF-305-014-N.jpg","img/neutralC/CFD-LM-225-130-N.jpg","img/neutralC/CFD-BM-001-014-N.jpg","1","1","1","1","0","0","0.403394400142133","0.372940799919888","0.473576999967918","1","1","1","1","1","1","1","1","1"
"250070","img/neutralC/CFD-BM-001-014-N.jpg","img/neutralC/CFD-MF-305-014-N.jpg","img/neutralC/CFD-BF-014-002-N.jpg","1","1","1","0","1","1","0.473576999967918","0.403394400142133","0.39701239997521","1","1","1","1","1","1","1","1","1"
"250070","img/neutralC/CFD-BF-014-002-N.jpg","img/neutralC/CFD-BM-001-014-N.jpg",NA,"1","1",NA,"1","0",NA,"0.39701239997521","0.473576999967918",NA,"1","1",NA,"1","1",NA,"1","1",NA
"250070","img/neutralC/CFD-BF-010-001-N.jpg",NA,"img/neutralC/CFD-LF-250-169-N.jpg","0",NA,"1","1",NA,"1",NA,NA,"1.07432340015657","0",NA,"1","0",NA,"1","0",NA,"2"
"250070","img/neutralC/CFD-LF-250-169-N.jpg","img/neutralC/CFD-BF-010-001-N.jpg","img/neutralC/CFD-BM-212-117-N.jpg","1","0","1","1","1","0","1.07432340015657",NA,"0.460556299891323","1","0","1","1","0","1","2","0","1"
"250070","img/neutralC/CFD-BM-212-117-N.jpg","img/neutralC/CFD-LF-250-169-N.jpg","img/neutralC/CFD-IM-653-008-N.jpg","1","1","1","0","1","0","0.460556299891323","1.07432340015657","0.612850700039417","1","1","1","1","1","1","1","2","1"
"250070","img/neutralC/CFD-IM-653-008-N.jpg","img/neutralC/CFD-BM-212-117-N.jpg","img/neutralC/CFD-LF-242-121-N.jpg","1","1","0","0","0","0","0.612850700039417","0.460556299891323","0.490434899926186","1","1","1","1","1","1","1","1","1"
"250070","img/neutralC/CFD-LF-242-121-N.jpg","img/neutralC/CFD-IM-653-008-N.jpg","img/neutralC/CFD-WM-017-002-N.jpg","0","1","1","0","0","0","0.490434899926186","0.612850700039417","0.552253600209951","1","1","1","1","1","1","1","1","1"
"250070","img/neutralC/CFD-WM-017-002-N.jpg","img/neutralC/CFD-LF-242-121-N.jpg","img/neutralC/CFD-IF-620-218-N.jpg","1","0","1","0","0","0","0.552253600209951","0.490434899926186","0.3832195000723","1","1","1","1","1","1","1","1","1"
"250070","img/neutralC/CFD-IF-620-218-N.jpg","img/neutralC/CFD-WM-017-002-N.jpg","img/neutralC/CFD-WF-209-052-N.jpg","1","1","1","0","0","1","0.3832195000723","0.552253600209951","0.36139400000684","1","1","1","1","1","1","1","1","1"
"250070","img/neutralC/CFD-WF-209-052-N.jpg","img/neutralC/CFD-IF-620-218-N.jpg","img/neutralC/CFD-BM-231-155-N.jpg","1","1","1","1","0","1","0.36139400000684","0.3832195000723","0.444865199970082","1","1","1","1","1","1","1","1","1"
"250070","img/neutralC/CFD-BM-231-155-N.jpg","img/neutralC/CFD-WF-209-052-N.jpg","img/neutralC/CFD-AF-241-141-N.jpg","1","1","1","1","1","1","0.444865199970082","0.36139400000684","0.525852300226688","1","1","1","1","1","1","1","1","1"
"250070","img/neutralC/CFD-AF-241-141-N.jpg","img/neutralC/CFD-BM-231-155-N.jpg","img/neutralC/CFD-IM-686-097-N.jpg","1","1","0","1","1","0","0.525852300226688","0.444865199970082","0.597867799922824","1","1","1","1","1","1","1","1","1"
"250070","img/neutralC/CFD-IM-686-097-N.jpg","img/neutralC/CFD-AF-241-141-N.jpg","img/neutralC/CFD-LM-219-295-N.jpg","0","1","1","0","1","1","0.597867799922824","0.525852300226688","0.440917999949306","1","1","1","1","1","1","1","1","1"
"250070","img/neutralC/CFD-LM-219-295-N.jpg","img/neutralC/CFD-IM-686-097-N.jpg","img/neutralC/CFD-LM-226-175-N.jpg","1","0","0","1","0","0","0.440917999949306","0.597867799922824","0.373561799991876","1","1","1","1","1","1","1","1","1"
"250070","img/neutralC/CFD-LM-226-175-N.jpg","img/neutralC/CFD-LM-219-295-N.jpg","img/neutralC/CFD-IF-665-015-N.jpg","0","1","0","0","1","0","0.373561799991876","0.440917999949306","0.457622800022364","1","1","1","1","1","1","1","1","1"
"250070","img/neutralC/CFD-IF-665-015-N.jpg","img/neutralC/CFD-LM-226-175-N.jpg","img/neutralC/CFD-IM-657-308-N.jpg","0","0","1","0","0","0","0.457622800022364","0.373561799991876","0.496861099964008","1","1","1","1","1","1","1","1","1"
"250070","img/neutralC/CFD-IM-657-308-N.jpg","img/neutralC/CFD-IF-665-015-N.jpg","img/neutralC/CFD-IM-638-250-1-N.jpg","1","0","1","0","0","1","0.496861099964008","0.457622800022364","0.475702800089493","1","1","1","1","1","1","1","1","1"
"250070","img/neutralC/CFD-IM-638-250-1-N.jpg","img/neutralC/CFD-IM-657-308-N.jpg","img/neutralC/CFD-BF-033-028-N.jpg","1","1","1","1","0","0","0.475702800089493","0.496861099964008","0.437754100188613","1","1","1","1","1","1","1","1","1"
"250070","img/neutralC/CFD-BF-033-028-N.jpg","img/neutralC/CFD-IM-638-250-1-N.jpg","img/neutralC/CFD-AF-206-079-N.jpg","1","1","1","0","1","1","0.437754100188613","0.475702800089493","0.477229400072247","1","1","1","1","1","1","1","1","1"
"250070","img/neutralC/CFD-AF-206-079-N.jpg","img/neutralC/CFD-BF-033-028-N.jpg","img/neutralC/CFD-WM-242-011-N.jpg","1","1","1","1","0","0","0.477229400072247","0.437754100188613","0.528223299887031","1","1","1","1","1","1","1","1","1"
"250070","img/neutralC/CFD-WM-242-011-N.jpg","img/neutralC/CFD-AF-206-079-N.jpg","img/neutralC/CFD-WM-227-099-N.jpg","1","1","1","0","1","1","0.528223299887031","0.477229400072247","0.462151800049469","1","1","1","1","1","1","1","1","1"
"250070","img/neutralC/CFD-WM-227-099-N.jpg","img/neutralC/CFD-WM-242-011-N.jpg","img/neutralC/CFD-WM-258-125-N.jpg","1","1","1","1","0","0","0.462151800049469","0.528223299887031","0.573375399922952","1","1","1","1","1","1","1","1","1"
"250070","img/neutralC/CFD-WM-258-125-N.jpg","img/neutralC/CFD-WM-227-099-N.jpg","img/neutralC/CFD-IM-617-174-N.jpg","1","1","1","0","1","0","0.573375399922952","0.462151800049469","0.554955000057817","1","1","1","1","1","1","1","1","1"
"250070","img/neutralC/CFD-IM-617-174-N.jpg","img/neutralC/CFD-WM-258-125-N.jpg","img/neutralC/CFD-BF-238-190-N.jpg","1","1","1","0","0","1","0.554955000057817","0.573375399922952","0.569020200055093","1","1","1","1","1","1","1","1","1"
"250070","img/neutralC/CFD-BF-238-190-N.jpg","img/neutralC/CFD-IM-617-174-N.jpg","img/neutralC/CFD-IM-727-195-N.jpg","1","1","1","1","0","1","0.569020200055093","0.554955000057817","0.399608799954876","1","1","1","1","1","1","1","1","1"
"250070","img/neutralC/CFD-IM-727-195-N.jpg","img/neutralC/CFD-BF-238-190-N.jpg","img/neutralC/CFD-LF-247-051-N.jpg","1","1","1","1","1","1","0.399608799954876","0.569020200055093","0.496955600101501","1","1","1","1","1","1","1","1","1"
"250070","img/neutralC/CFD-LF-247-051-N.jpg","img/neutralC/CFD-IM-727-195-N.jpg","img/neutralC/CFD-BM-018-001-N.jpg","1","1","1","1","1","1","0.496955600101501","0.399608799954876","0.502627399982885","1","1","1","1","1","1","1","1","1"
"250070","img/neutralC/CFD-BM-018-001-N.jpg","img/neutralC/CFD-LF-247-051-N.jpg","img/neutralC/CFD-MF-313-002-N.jpg","1","1","1","1","1","0","0.502627399982885","0.496955600101501","0.536875100107864","1","1","1","1","1","1","1","1","1"
"250070","img/neutralC/CFD-MF-313-002-N.jpg","img/neutralC/CFD-BM-018-001-N.jpg","img/neutralC/CFD-LF-245-166-N.jpg","1","1","1","0","1","1","0.536875100107864","0.502627399982885","0.412471299991012","1","1","1","1","1","1","1","1","1"
"250070","img/neutralC/CFD-LF-245-166-N.jpg","img/neutralC/CFD-MF-313-002-N.jpg","img/neutralC/CFD-LM-233-171-N.jpg","1","1","1","1","0","0","0.412471299991012","0.536875100107864","0.461894100066274","1","1","1","1","1","1","1","1","1"
"250070","img/neutralC/CFD-LM-233-171-N.jpg","img/neutralC/CFD-LF-245-166-N.jpg","img/neutralC/CFD-AF-202-122-N.jpg","1","1","1","0","1","1","0.461894100066274","0.412471299991012","0.415047900052741","1","1","1","1","1","1","1","1","1"
"250070","img/neutralC/CFD-AF-202-122-N.jpg","img/neutralC/CFD-LM-233-171-N.jpg","img/neutralC/CFD-BM-026-002-N.jpg","1","1","1","1","0","0","0.415047900052741","0.461894100066274","0.45381289999932","1","1","1","1","1","1","1","1","1"
"250070","img/neutralC/CFD-BM-026-002-N.jpg","img/neutralC/CFD-AF-202-122-N.jpg","img/neutralC/CFD-BM-005-003-N.jpg","1","1","1","0","1","1","0.45381289999932","0.415047900052741","0.493559300201014","1","1","1","1","1","1","1","1","1"
"250070","img/neutralC/CFD-BM-005-003-N.jpg","img/neutralC/CFD-BM-026-002-N.jpg",NA,"1","1",NA,"1","0",NA,"0.493559300201014","0.45381289999932",NA,"1","1",NA,"1","1",NA,"1","1",NA
"250070","img/neutralC/CFD-WF-223-133-N.jpg",NA,"img/neutralC/CFD-AF-210-050-N.jpg","1",NA,"1","0",NA,"1","0.799272899981588",NA,"0.438293599989265","1",NA,"1","1",NA,"1","1",NA,"1"
"250070","img/neutralC/CFD-AF-210-050-N.jpg","img/neutralC/CFD-WF-223-133-N.jpg","img/neutralC/CFD-BF-004-014-N.jpg","1","1","1","1","0","1","0.438293599989265","0.799272899981588","0.511366900056601","1","1","1","1","1","1","1","1","1"
"250070","img/neutralC/CFD-BF-004-014-N.jpg","img/neutralC/CFD-AF-210-050-N.jpg","img/neutralC/CFD-MF-336-016-N.jpg","1","1","1","1","1","1","0.511366900056601","0.438293599989265","0.369780499953777","1","1","1","1","1","1","1","1","1"
"250070","img/neutralC/CFD-MF-336-016-N.jpg","img/neutralC/CFD-BF-004-014-N.jpg","img/neutralC/CFD-WF-006-002-N.jpg","1","1","0","1","1","0","0.369780499953777","0.511366900056601","0.510123200016096","1","1","1","1","1","1","1","1","2"
"250070","img/neutralC/CFD-WF-006-002-N.jpg","img/neutralC/CFD-MF-336-016-N.jpg","img/neutralC/CFD-IM-659-359-N.jpg","0","1","1","0","1","0","0.510123200016096","0.369780499953777","0.725714100059122","1","1","1","1","1","1","2","1","1"
"250070","img/neutralC/CFD-IM-659-359-N.jpg","img/neutralC/CFD-WF-006-002-N.jpg","img/neutralC/CFD-IM-738-191-N.jpg","1","0","1","0","0","0","0.725714100059122","0.510123200016096","0.571574499830604","1","1","1","1","1","1","1","2","1"
"250070","img/neutralC/CFD-IM-738-191-N.jpg","img/neutralC/CFD-IM-659-359-N.jpg","img/neutralC/CFD-IF-744-114-N.jpg","1","1","1","0","0","0","0.571574499830604","0.725714100059122","0.491597900167108","1","1","1","1","1","1","1","1","1"
"250070","img/neutralC/CFD-IF-744-114-N.jpg","img/neutralC/CFD-IM-738-191-N.jpg","img/neutralC/CFD-IF-673-389-N.jpg","1","1","1","0","0","0","0.491597900167108","0.571574499830604","0.523232100065798","1","1","1","1","1","1","1","1","1"
"250070","img/neutralC/CFD-IF-673-389-N.jpg","img/neutralC/CFD-IF-744-114-N.jpg","img/neutralC/CFD-WM-254-152-N.jpg","1","1","1","0","0","1","0.523232100065798","0.491597900167108","0.409947500098497","1","1","1","1","1","1","1","1","1"
"250070","img/neutralC/CFD-WM-254-152-N.jpg","img/neutralC/CFD-IF-673-389-N.jpg","img/neutralC/CFD-BM-013-002-N.jpg","1","1","1","1","0","1","0.409947500098497","0.523232100065798","0.405352200148627","1","1","1","1","1","1","1","1","1"
"250070","img/neutralC/CFD-BM-013-002-N.jpg","img/neutralC/CFD-WM-254-152-N.jpg","img/neutralC/CFD-WM-228-065-N.jpg","1","1","1","1","1","0","0.405352200148627","0.409947500098497","0.549224899848923","1","1","1","1","1","1","1","1","1"
"250070","img/neutralC/CFD-WM-228-065-N.jpg","img/neutralC/CFD-BM-013-002-N.jpg","img/neutralC/CFD-BM-213-134-N.jpg","1","1","1","0","1","1","0.549224899848923","0.405352200148627","0.537921500159428","1","1","1","1","1","1","1","1","1"
"250070","img/neutralC/CFD-BM-213-134-N.jpg","img/neutralC/CFD-WM-228-065-N.jpg","img/neutralC/CFD-BF-222-240-N.jpg","1","1","1","1","0","0","0.537921500159428","0.549224899848923","0.499985300004482","1","1","1","1","1","1","1","1","1"
"250070","img/neutralC/CFD-BF-222-240-N.jpg","img/neutralC/CFD-BM-213-134-N.jpg","img/neutralC/CFD-AM-221-184-N.jpg","1","1","1","0","1","1","0.499985300004482","0.537921500159428","0.451994499890134","1","1","1","1","1","1","1","1","1"
"250070","img/neutralC/CFD-AM-221-184-N.jpg","img/neutralC/CFD-BF-222-240-N.jpg","img/neutralC/CFD-IF-625-225-N.jpg","1","1","1","1","0","0","0.451994499890134","0.499985300004482","0.521565899951383","1","1","1","1","1","1","1","1","1"
"250070","img/neutralC/CFD-IF-625-225-N.jpg","img/neutralC/CFD-AM-221-184-N.jpg","img/neutralC/CFD-LM-247-095-N.jpg","1","1","1","0","1","0","0.521565899951383","0.451994499890134","0.423248800216243","1","1","1","1","1","1","1","1","1"
"250070","img/neutralC/CFD-LM-247-095-N.jpg","img/neutralC/CFD-IF-625-225-N.jpg","img/neutralC/CFD-LF-241-188-N.jpg","1","1","1","0","0","0","0.423248800216243","0.521565899951383","0.459241200005636","1","1","1","1","1","1","1","1","1"
"250070","img/neutralC/CFD-LF-241-188-N.jpg","img/neutralC/CFD-LM-247-095-N.jpg","img/neutralC/CFD-WM-202-107-N.jpg","1","1","1","0","0","1","0.459241200005636","0.423248800216243","0.385278599802405","1","1","1","1","1","1","1","1","1"
"250070","img/neutralC/CFD-WM-202-107-N.jpg","img/neutralC/CFD-LF-241-188-N.jpg","img/neutralC/CFD-LF-208-127-N.jpg","1","1","1","1","0","0","0.385278599802405","0.459241200005636","0.32764619984664","1","1","1","1","1","1","1","1","1"
"250070","img/neutralC/CFD-LF-208-127-N.jpg","img/neutralC/CFD-WM-202-107-N.jpg","img/neutralC/CFD-BM-003-003-N.jpg","1","1","1","0","1","0","0.32764619984664","0.385278599802405","0.540210800012574","1","1","1","1","1","1","1","1","1"
"250070","img/neutralC/CFD-BM-003-003-N.jpg","img/neutralC/CFD-LF-208-127-N.jpg","img/neutralC/CFD-LF-210-220-N.jpg","1","1","1","0","0","1","0.540210800012574","0.32764619984664","0.570033200085163","1","1","1","1","1","1","1","1","1"
"250070","img/neutralC/CFD-LF-210-220-N.jpg","img/neutralC/CFD-BM-003-003-N.jpg","img/neutralC/CFD-AF-227-207-N.jpg","1","1","1","1","0","1","0.570033200085163","0.540210800012574","0.41889930004254","1","1","1","1","1","1","1","1","1"
"250070","img/neutralC/CFD-AF-227-207-N.jpg","img/neutralC/CFD-LF-210-220-N.jpg","img/neutralC/CFD-LM-238-129-N.jpg","1","1","1","1","1","1","0.41889930004254","0.570033200085163","0.470920100109652","1","1","1","1","1","1","1","1","1"
"250070","img/neutralC/CFD-LM-238-129-N.jpg","img/neutralC/CFD-AF-227-207-N.jpg","img/neutralC/CFD-AF-239-171-N.jpg","1","1","1","1","1","1","0.470920100109652","0.41889930004254","0.494091999949887","1","1","1","1","1","1","1","1","1"
"250070","img/neutralC/CFD-AF-239-171-N.jpg","img/neutralC/CFD-LM-238-129-N.jpg","img/neutralC/CFD-IM-701-312-N.jpg","1","1","1","1","1","0","0.494091999949887","0.470920100109652","0.426688400097191","1","1","1","1","1","1","1","1","1"
"250070","img/neutralC/CFD-IM-701-312-N.jpg","img/neutralC/CFD-AF-239-171-N.jpg","img/neutralC/CFD-MF-312-002-N.jpg","1","1","1","0","1","1","0.426688400097191","0.494091999949887","0.400743900099769","1","1","1","1","1","1","1","1","1"
"250070","img/neutralC/CFD-MF-312-002-N.jpg","img/neutralC/CFD-IM-701-312-N.jpg","img/neutralC/CFD-BM-010-003-N.jpg","1","1","1","1","0","0","0.400743900099769","0.426688400097191","0.436320499982685","1","1","1","1","1","1","1","1","1"
"250070","img/neutralC/CFD-BM-010-003-N.jpg","img/neutralC/CFD-MF-312-002-N.jpg","img/neutralC/CFD-BM-028-002-N.jpg","1","1","1","0","1","1","0.436320499982685","0.400743900099769","0.420443200040609","1","1","1","1","1","1","1","1","1"
"250070","img/neutralC/CFD-BM-028-002-N.jpg","img/neutralC/CFD-BM-010-003-N.jpg","img/neutralC/CFD-WF-033-002-N.jpg","1","1","1","1","0","1","0.420443200040609","0.436320499982685","0.450658299960196","1","1","1","1","1","1","1","1","1"
"250070","img/neutralC/CFD-WF-033-002-N.jpg","img/neutralC/CFD-BM-028-002-N.jpg","img/neutralC/CFD-LF-225-164-N.jpg","1","1","1","1","1","1","0.450658299960196","0.420443200040609","0.477287999819964","1","1","1","1","1","1","1","1","1"
"250070","img/neutralC/CFD-LF-225-164-N.jpg","img/neutralC/CFD-WF-033-002-N.jpg","img/neutralC/CFD-BF-045-003-N.jpg","1","1","1","1","1","0","0.477287999819964","0.450658299960196","0.768250900087878","1","1","1","1","1","1","1","1","1"
"250070","img/neutralC/CFD-BF-045-003-N.jpg","img/neutralC/CFD-LF-225-164-N.jpg",NA,"1","1",NA,"0","1",NA,"0.768250900087878","0.477287999819964",NA,"1","1",NA,"1","1",NA,"1","1",NA
"250070","img/neutralC/CFD-LM-204-001-N.jpg",NA,"img/neutralC/CFD-WF-235-121-N.jpg","0",NA,"1","0",NA,"0","1.41280549997464",NA,"0.557048799935728","1",NA,"1","1",NA,"1","1",NA,"1"
"250070","img/neutralC/CFD-WF-235-121-N.jpg","img/neutralC/CFD-LM-204-001-N.jpg","img/neutralC/CFD-IM-678-482-N.jpg","1","0","1","0","0","0","0.557048799935728","1.41280549997464","0.477843799861148","1","1","1","1","1","1","1","1","1"
"250070","img/neutralC/CFD-IM-678-482-N.jpg","img/neutralC/CFD-WF-235-121-N.jpg","img/neutralC/CFD-IF-732-260-N.jpg","1","1","1","0","0","0","0.477843799861148","0.557048799935728","0.536879499908537","1","1","1","1","1","1","1","1","1"
"250070","img/neutralC/CFD-IF-732-260-N.jpg","img/neutralC/CFD-IM-678-482-N.jpg","img/neutralC/CFD-BM-215-155-N.jpg","1","1","1","0","0","0","0.536879499908537","0.477843799861148","0.559816699940711","1","1","1","1","1","1","1","1","1"
"250070","img/neutralC/CFD-BM-215-155-N.jpg","img/neutralC/CFD-IF-732-260-N.jpg","img/neutralC/CFD-IM-635-010-N.jpg","1","1","1","0","0","1","0.559816699940711","0.536879499908537","0.463774699950591","1","1","1","1","1","1","1","1","1"
"250070","img/neutralC/CFD-IM-635-010-N.jpg","img/neutralC/CFD-BM-215-155-N.jpg","img/neutralC/CFD-AM-245-111-N.jpg","1","1","1","1","0","1","0.463774699950591","0.559816699940711","0.530582400038838","1","1","1","1","1","1","1","1","1"
"250070","img/neutralC/CFD-AM-245-111-N.jpg","img/neutralC/CFD-IM-635-010-N.jpg","img/neutralC/CFD-LM-241-125-N.jpg","1","1","1","1","1","1","0.530582400038838","0.463774699950591","0.589644599938765","1","1","1","1","1","1","1","1","1"
"250070","img/neutralC/CFD-LM-241-125-N.jpg","img/neutralC/CFD-AM-245-111-N.jpg","img/neutralC/CFD-MF-302-027-N.jpg","1","1","1","1","1","0","0.589644599938765","0.530582400038838","0.761429900070652","1","1","1","1","1","1","1","1","1"
"250070","img/neutralC/CFD-MF-302-027-N.jpg","img/neutralC/CFD-LM-241-125-N.jpg","img/neutralC/CFD-AM-225-102-N.jpg","1","1","1","0","1","0","0.761429900070652","0.589644599938765","0.541900999844074","1","1","1","1","1","1","1","1","1"
"250070","img/neutralC/CFD-AM-225-102-N.jpg","img/neutralC/CFD-MF-302-027-N.jpg","img/neutralC/CFD-AF-213-126-N.jpg","1","1","1","0","0","1","0.541900999844074","0.761429900070652","0.485119000077248","1","1","1","1","1","1","1","1","1"
"250070","img/neutralC/CFD-AF-213-126-N.jpg","img/neutralC/CFD-AM-225-102-N.jpg","img/neutralC/CFD-AF-246-242-N.jpg","1","1","1","1","0","0","0.485119000077248","0.541900999844074","0.410515900002792","1","1","1","1","1","1","1","1","1"
"250070","img/neutralC/CFD-AF-246-242-N.jpg","img/neutralC/CFD-AF-213-126-N.jpg","img/neutralC/CFD-BF-040-003-N.jpg","1","1","1","0","1","1","0.410515900002792","0.485119000077248","0.572699399897829","1","1","1","1","1","1","1","1","1"
"250070","img/neutralC/CFD-BF-040-003-N.jpg","img/neutralC/CFD-AF-246-242-N.jpg","img/neutralC/CFD-IF-636-011-N.jpg","1","1","1","1","0","1","0.572699399897829","0.410515900002792","0.444758299970999","1","1","1","1","1","1","1","1","1"
"250070","img/neutralC/CFD-IF-636-011-N.jpg","img/neutralC/CFD-BF-040-003-N.jpg","img/neutralC/CFD-AM-233-236-N.jpg","1","1","1","1","1","1","0.444758299970999","0.572699399897829","0.439684899989516","1","1","1","1","1","1","1","1","1"
"250070","img/neutralC/CFD-AM-233-236-N.jpg","img/neutralC/CFD-IF-636-011-N.jpg","img/neutralC/CFD-AF-234-208-N.jpg","1","1","1","1","1","1","0.439684899989516","0.444758299970999","0.734163799788803","1","1","1","1","1","1","1","1","1"
"250070","img/neutralC/CFD-AF-234-208-N.jpg","img/neutralC/CFD-AM-233-236-N.jpg","img/neutralC/CFD-AF-250-200-N.jpg","1","1","1","1","1","1","0.734163799788803","0.439684899989516","0.39248300017789","1","1","1","1","1","1","1","1","1"
"250070","img/neutralC/CFD-AF-250-200-N.jpg","img/neutralC/CFD-AF-234-208-N.jpg","img/neutralC/CFD-LF-239-148-N.jpg","1","1","1","1","1","0","0.39248300017789","0.734163799788803","0.550641500158235","1","1","1","1","1","1","1","1","1"
"250070","img/neutralC/CFD-LF-239-148-N.jpg","img/neutralC/CFD-AF-250-200-N.jpg","img/neutralC/CFD-WM-018-002-N.jpg","1","1","1","0","1","0","0.550641500158235","0.39248300017789","0.434417500160635","1","1","1","1","1","1","1","1","1"
"250070","img/neutralC/CFD-WM-018-002-N.jpg","img/neutralC/CFD-LF-239-148-N.jpg","img/neutralC/CFD-MF-307-002-N.jpg","1","1","1","0","0","1","0.434417500160635","0.550641500158235","0.515989700099453","1","1","1","1","1","1","1","1","1"
"250070","img/neutralC/CFD-MF-307-002-N.jpg","img/neutralC/CFD-WM-018-002-N.jpg","img/neutralC/CFD-AF-205-155-N.jpg","1","1","1","1","0","0","0.515989700099453","0.434417500160635","0.689443600131199","1","1","1","1","1","1","1","1","1"
"250070","img/neutralC/CFD-AF-205-155-N.jpg","img/neutralC/CFD-MF-307-002-N.jpg","img/neutralC/CFD-BF-042-026-N.jpg","1","1","1","0","1","1","0.689443600131199","0.515989700099453","0.424795399885625","1","1","1","1","1","1","1","1","1"
"250070","img/neutralC/CFD-BF-042-026-N.jpg","img/neutralC/CFD-AF-205-155-N.jpg","img/neutralC/CFD-BM-004-002-N.jpg","1","1","1","1","0","0","0.424795399885625","0.689443600131199","0.569319500122219","1","1","1","1","1","1","1","1","1"
"250070","img/neutralC/CFD-BM-004-002-N.jpg","img/neutralC/CFD-BF-042-026-N.jpg","img/neutralC/CFD-AF-244-168-N.jpg","1","1","1","0","1","0","0.569319500122219","0.424795399885625","0.450863000005484","1","1","1","1","1","1","1","1","1"
"250070","img/neutralC/CFD-AF-244-168-N.jpg","img/neutralC/CFD-BM-004-002-N.jpg","img/neutralC/CFD-IM-632-097-N.jpg","1","1","0","0","0","0","0.450863000005484","0.569319500122219","0.499598999973387","1","1","1","1","1","1","1","1","1"
"250070","img/neutralC/CFD-IM-632-097-N.jpg","img/neutralC/CFD-AF-244-168-N.jpg","img/neutralC/CFD-IM-669-111-N.jpg","0","1","1","0","0","1","0.499598999973387","0.450863000005484","0.575484599918127","1","1","1","1","1","1","1","1","1"
"250070","img/neutralC/CFD-IM-669-111-N.jpg","img/neutralC/CFD-IM-632-097-N.jpg","img/neutralC/CFD-BF-235-168-N.jpg","1","0","1","1","0","1","0.575484599918127","0.499598999973387","0.62833740003407","1","1","1","1","1","1","1","1","1"
"250070","img/neutralC/CFD-BF-235-168-N.jpg","img/neutralC/CFD-IM-669-111-N.jpg","img/neutralC/CFD-WM-253-119-N.jpg","1","1","1","1","1","1","0.62833740003407","0.575484599918127","0.539800699800253","1","1","1","1","1","1","1","1","1"
"250070","img/neutralC/CFD-WM-253-119-N.jpg","img/neutralC/CFD-BF-235-168-N.jpg","img/neutralC/CFD-BF-217-189-N.jpg","1","1","1","1","1","0","0.539800699800253","0.62833740003407","0.476842799922451","1","1","1","1","1","1","1","1","1"
"250070","img/neutralC/CFD-BF-217-189-N.jpg","img/neutralC/CFD-WM-253-119-N.jpg","img/neutralC/CFD-BF-206-143-N.jpg","1","1","1","0","1","1","0.476842799922451","0.539800699800253","0.430531100137159","1","1","1","1","1","1","1","1","1"
"250070","img/neutralC/CFD-BF-206-143-N.jpg","img/neutralC/CFD-BF-217-189-N.jpg","img/neutralC/CFD-BF-020-002-N.jpg","1","1","1","1","0","1","0.430531100137159","0.476842799922451","0.415834699990228","1","1","1","1","1","1","1","1","1"
"250070","img/neutralC/CFD-BF-020-002-N.jpg","img/neutralC/CFD-BF-206-143-N.jpg","img/neutralC/CFD-WF-210-086-N.jpg","1","1","1","1","1","0","0.415834699990228","0.430531100137159","0.476513299858198","1","1","1","1","1","1","1","1","1"
"250070","img/neutralC/CFD-WF-210-086-N.jpg","img/neutralC/CFD-BF-020-002-N.jpg",NA,"1","1",NA,"0","1",NA,"0.476513299858198","0.415834699990228",NA,"1","1",NA,"1","1",NA,"1","1",NA
"250070","img/neutralC/CFD-MF-337-026-N.jpg",NA,"img/neutralC/CFD-BM-239-136-N.jpg","1",NA,"1","1",NA,"1","0.835683299927041",NA,"0.507533099967986","1",NA,"1","1",NA,"1","1",NA,"1"
"250070","img/neutralC/CFD-BM-239-136-N.jpg","img/neutralC/CFD-MF-337-026-N.jpg","img/neutralC/CFD-LF-224-176-N.jpg","1","1","1","1","1","0","0.507533099967986","0.835683299927041","0.682944499887526","1","1","1","1","1","1","1","1","1"
"250070","img/neutralC/CFD-LF-224-176-N.jpg","img/neutralC/CFD-BM-239-136-N.jpg","img/neutralC/CFD-BF-029-031-N.jpg","1","1","1","0","1","1","0.682944499887526","0.507533099967986","0.464789299992844","1","1","1","1","1","1","1","1","1"
"250070","img/neutralC/CFD-BF-029-031-N.jpg","img/neutralC/CFD-LF-224-176-N.jpg","img/neutralC/CFD-LF-230-203-N.jpg","1","1","1","1","0","0","0.464789299992844","0.682944499887526","0.908722099848092","1","1","1","1","1","1","1","1","1"
"250070","img/neutralC/CFD-LF-230-203-N.jpg","img/neutralC/CFD-BF-029-031-N.jpg","img/neutralC/CFD-LF-214-090-N.jpg","1","1","1","0","1","0","0.908722099848092","0.464789299992844","0.498655200004578","1","1","1","1","1","1","1","1","1"
"250070","img/neutralC/CFD-LF-214-090-N.jpg","img/neutralC/CFD-LF-230-203-N.jpg","img/neutralC/CFD-WM-021-001-N.jpg","1","1","1","0","0","1","0.498655200004578","0.908722099848092","0.452145399991423","1","1","1","1","1","1","1","1","1"
"250070","img/neutralC/CFD-WM-021-001-N.jpg","img/neutralC/CFD-LF-214-090-N.jpg","img/neutralC/CFD-IF-634-382-N.jpg","1","1","1","1","0","1","0.452145399991423","0.498655200004578","0.410757899982855","1","1","1","1","1","1","1","1","1"
"250070","img/neutralC/CFD-IF-634-382-N.jpg","img/neutralC/CFD-WM-021-001-N.jpg","img/neutralC/CFD-WF-250-167-N.jpg","1","1","1","1","1","1","0.410757899982855","0.452145399991423","0.56043710000813","1","1","1","1","1","1","1","1","1"
"250070","img/neutralC/CFD-WF-250-167-N.jpg","img/neutralC/CFD-IF-634-382-N.jpg","img/neutralC/CFD-WF-213-031-N.jpg","1","1","1","1","1","1","0.56043710000813","0.410757899982855","0.455882699927315","1","1","1","1","1","1","1","1","1"
"250070","img/neutralC/CFD-WF-213-031-N.jpg","img/neutralC/CFD-WF-250-167-N.jpg","img/neutralC/CFD-BM-019-002-N.jpg","1","1","0","1","1","0","0.455882699927315","0.56043710000813","0.755641900002956","1","1","1","1","1","1","1","1","1"
"250070","img/neutralC/CFD-BM-019-002-N.jpg","img/neutralC/CFD-WF-213-031-N.jpg","img/neutralC/CFD-LM-215-247-N.jpg","0","1","1","0","1","0","0.755641900002956","0.455882699927315","0.568719899980351","1","1","1","1","1","1","1","1","1"
"250070","img/neutralC/CFD-LM-215-247-N.jpg","img/neutralC/CFD-BM-019-002-N.jpg","img/neutralC/CFD-IM-651-308-N.jpg","1","0","1","0","0","0","0.568719899980351","0.755641900002956","0.511702900053933","1","1","1","1","1","1","1","1","1"
"250070","img/neutralC/CFD-IM-651-308-N.jpg","img/neutralC/CFD-LM-215-247-N.jpg","img/neutralC/CFD-AF-231-357-N.jpg","1","1","1","0","0","1","0.511702900053933","0.568719899980351","0.62099720002152","1","1","1","1","1","1","1","1","1"
"250070","img/neutralC/CFD-AF-231-357-N.jpg","img/neutralC/CFD-IM-651-308-N.jpg","img/neutralC/CFD-LF-203-066-N.jpg","1","1","0","1","0","0","0.62099720002152","0.511702900053933","0.642889499897137","1","1","1","1","1","1","1","1","1"
"250070","img/neutralC/CFD-LF-203-066-N.jpg","img/neutralC/CFD-AF-231-357-N.jpg","img/neutralC/CFD-WF-224-099-N.jpg","0","1","1","0","1","0","0.642889499897137","0.62099720002152","0.609322000062093","1","1","1","1","1","1","1","1","1"
"250070","img/neutralC/CFD-WF-224-099-N.jpg","img/neutralC/CFD-LF-203-066-N.jpg","img/neutralC/CFD-BM-033-003-N.jpg","1","0","1","0","0","0","0.609322000062093","0.642889499897137","0.499697000021115","1","1","1","1","1","1","1","1","1"
"250070","img/neutralC/CFD-BM-033-003-N.jpg","img/neutralC/CFD-WF-224-099-N.jpg","img/neutralC/CFD-WM-011-002-N.jpg","1","1","1","0","0","0","0.499697000021115","0.609322000062093","0.533780399942771","1","1","1","1","1","1","1","1","1"
"250070","img/neutralC/CFD-WM-011-002-N.jpg","img/neutralC/CFD-BM-033-003-N.jpg","img/neutralC/CFD-BF-213-188-N.jpg","1","1","1","0","0","1","0.533780399942771","0.499697000021115","0.404816099908203","1","1","1","1","1","1","1","1","1"
"250070","img/neutralC/CFD-BF-213-188-N.jpg","img/neutralC/CFD-WM-011-002-N.jpg","img/neutralC/CFD-BF-039-031-N.jpg","1","1","1","1","0","1","0.404816099908203","0.533780399942771","0.438149500172585","1","1","1","1","1","1","1","1","1"
"250070","img/neutralC/CFD-BF-039-031-N.jpg","img/neutralC/CFD-BF-213-188-N.jpg","img/neutralC/CFD-IF-710-016-N.jpg","1","1","1","1","1","0","0.438149500172585","0.404816099908203","0.476588600082323","1","1","1","1","1","1","1","1","1"
"250070","img/neutralC/CFD-IF-710-016-N.jpg","img/neutralC/CFD-BF-039-031-N.jpg","img/neutralC/CFD-LF-205-100-N.jpg","1","1","1","0","1","1","0.476588600082323","0.438149500172585","0.561079400125891","1","1","1","1","1","1","1","1","1"
"250070","img/neutralC/CFD-LF-205-100-N.jpg","img/neutralC/CFD-IF-710-016-N.jpg","img/neutralC/CFD-LM-218-183-N.jpg","1","1","1","1","0","1","0.561079400125891","0.476588600082323","0.521431600209326","1","1","1","1","1","1","1","1","1"
"250070","img/neutralC/CFD-LM-218-183-N.jpg","img/neutralC/CFD-LF-205-100-N.jpg","img/neutralC/CFD-AM-212-050-N.jpg","1","1","1","1","1","1","0.521431600209326","0.561079400125891","0.340798899997026","1","1","1","1","1","1","1","1","1"
"250070","img/neutralC/CFD-AM-212-050-N.jpg","img/neutralC/CFD-LM-218-183-N.jpg","img/neutralC/CFD-IM-684-008-N.jpg","1","1","1","1","1","1","0.340798899997026","0.521431600209326","0.422249200055376","1","1","1","1","1","1","1","1","1"
"250070","img/neutralC/CFD-IM-684-008-N.jpg","img/neutralC/CFD-AM-212-050-N.jpg","img/neutralC/CFD-AM-201-076-N.jpg","1","1","1","1","1","1","0.422249200055376","0.340798899997026","0.384048499865457","1","1","1","1","1","1","1","1","1"
"250070","img/neutralC/CFD-AM-201-076-N.jpg","img/neutralC/CFD-IM-684-008-N.jpg","img/neutralC/CFD-IF-693-172-N.jpg","1","1","1","1","1","0","0.384048499865457","0.422249200055376","0.445603800006211","1","1","1","1","1","1","1","1","1"
"250070","img/neutralC/CFD-IF-693-172-N.jpg","img/neutralC/CFD-AM-201-076-N.jpg","img/neutralC/CFD-MM-316-156-N.jpg","1","1","1","0","1","1","0.445603800006211","0.384048499865457","0.47081570001319","1","1","1","1","1","1","1","1","1"
"250070","img/neutralC/CFD-MM-316-156-N.jpg","img/neutralC/CFD-IF-693-172-N.jpg","img/neutralC/CFD-WM-041-021-N.jpg","1","1","1","1","0","0","0.47081570001319","0.445603800006211","0.517468900186941","1","1","1","1","1","1","1","1","1"
"250070","img/neutralC/CFD-WM-041-021-N.jpg","img/neutralC/CFD-MM-316-156-N.jpg","img/neutralC/CFD-BF-205-141-N.jpg","1","1","1","0","1","0","0.517468900186941","0.47081570001319","0.628166999900714","1","1","1","1","1","1","1","1","1"
"250070","img/neutralC/CFD-BF-205-141-N.jpg","img/neutralC/CFD-WM-041-021-N.jpg","img/neutralC/CFD-BM-041-035-N.jpg","1","1","0","0","0","0","0.628166999900714","0.517468900186941","0.385381999891251","1","1","1","1","1","1","1","1","1"
"250070","img/neutralC/CFD-BM-041-035-N.jpg","img/neutralC/CFD-BF-205-141-N.jpg","img/neutralC/CFD-BF-253-202-N.jpg","0","1","1","0","0","0","0.385381999891251","0.628166999900714","0.65593529981561","1","1","1","1","1","1","1","1","1"
"250070","img/neutralC/CFD-BF-253-202-N.jpg","img/neutralC/CFD-BM-041-035-N.jpg",NA,"1","0",NA,"0","0",NA,"0.65593529981561","0.385381999891251",NA,"1","1",NA,"1","1",NA,"1","1",NA
"250070","img/neutralC/CFD-IM-646-023-N.jpg",NA,"img/neutralC/CFD-LM-243-075-N.jpg","1",NA,"1","1",NA,"0","0.959517700131983",NA,"0.640710799954832","1",NA,"1","1",NA,"1","1",NA,"1"
"250070","img/neutralC/CFD-LM-243-075-N.jpg","img/neutralC/CFD-IM-646-023-N.jpg","img/neutralC/CFD-WM-212-097-N.jpg","1","1","1","0","1","0","0.640710799954832","0.959517700131983","0.755478499922901","1","1","1","1","1","1","1","1","1"
"250070","img/neutralC/CFD-WM-212-097-N.jpg","img/neutralC/CFD-LM-243-075-N.jpg","img/neutralC/CFD-AM-247-165-N.jpg","1","1","1","0","0","1","0.755478499922901","0.640710799954832","0.47566009988077","1","1","1","1","1","1","1","1","1"
"250070","img/neutralC/CFD-AM-247-165-N.jpg","img/neutralC/CFD-WM-212-097-N.jpg","img/neutralC/CFD-BM-248-128-N.jpg","1","1","1","1","0","0","0.47566009988077","0.755478499922901","0.787538500037044","1","1","1","1","1","1","1","1","1"
"250070","img/neutralC/CFD-BM-248-128-N.jpg","img/neutralC/CFD-AM-247-165-N.jpg","img/neutralC/CFD-WM-006-002-N.jpg","1","1","1","0","1","0","0.787538500037044","0.47566009988077","0.455492899985984","1","1","1","1","1","1","1","1","1"
"250070","img/neutralC/CFD-WM-006-002-N.jpg","img/neutralC/CFD-BM-248-128-N.jpg","img/neutralC/CFD-MF-335-002-N.jpg","1","1","1","0","0","0","0.455492899985984","0.787538500037044","0.629492799984291","1","1","1","1","1","1","1","1","1"
"250070","img/neutralC/CFD-MF-335-002-N.jpg","img/neutralC/CFD-WM-006-002-N.jpg","img/neutralC/CFD-BF-041-001-N.jpg","1","1","1","0","0","1","0.629492799984291","0.455492899985984","0.525629099924117","1","1","1","1","1","1","1","1","1"
"250070","img/neutralC/CFD-BF-041-001-N.jpg","img/neutralC/CFD-MF-335-002-N.jpg","img/neutralC/CFD-IF-642-295-N.jpg","1","1","1","1","0","1","0.525629099924117","0.629492799984291","0.412928000092506","1","1","1","1","1","1","1","1","1"
"250070","img/neutralC/CFD-IF-642-295-N.jpg","img/neutralC/CFD-BF-041-001-N.jpg","img/neutralC/CFD-BM-205-001-N.jpg","1","1","0","1","1","0","0.412928000092506","0.525629099924117","0.446668999968097","1","1","1","1","1","1","1","1","1"
"250070","img/neutralC/CFD-BM-205-001-N.jpg","img/neutralC/CFD-IF-642-295-N.jpg","img/neutralC/CFD-BF-025-002-N.jpg","0","1","1","0","1","0","0.446668999968097","0.412928000092506","0.650004100054502","1","1","1","1","1","1","1","1","1"
"250070","img/neutralC/CFD-BF-025-002-N.jpg","img/neutralC/CFD-BM-205-001-N.jpg","img/neutralC/CFD-WM-215-041-N.jpg","1","0","1","0","0","0","0.650004100054502","0.446668999968097","0.656307999975979","1","1","1","1","1","1","1","1","1"
"250070","img/neutralC/CFD-WM-215-041-N.jpg","img/neutralC/CFD-BF-025-002-N.jpg","img/neutralC/CFD-BF-228-212-N.jpg","1","1","1","0","0","0","0.656307999975979","0.650004100054502","0.472426800057292","1","1","1","1","1","1","1","1","1"
"250070","img/neutralC/CFD-BF-228-212-N.jpg","img/neutralC/CFD-WM-215-041-N.jpg","img/neutralC/CFD-BM-251-013-N.jpg","1","1","1","0","0","1","0.472426800057292","0.656307999975979","0.461455799872056","1","1","1","1","1","1","1","1","1"
"250070","img/neutralC/CFD-BM-251-013-N.jpg","img/neutralC/CFD-BF-228-212-N.jpg","img/neutralC/CFD-WM-249-239-N.jpg","1","1","1","1","0","1","0.461455799872056","0.472426800057292","0.51299860002473","1","1","1","1","1","1","1","1","1"
"250070","img/neutralC/CFD-WM-249-239-N.jpg","img/neutralC/CFD-BM-251-013-N.jpg","img/neutralC/CFD-WF-017-003-N.jpg","1","1","1","1","1","1","0.51299860002473","0.461455799872056","0.558336399961263","1","1","1","1","1","1","1","1","1"
"250070","img/neutralC/CFD-WF-017-003-N.jpg","img/neutralC/CFD-WM-249-239-N.jpg","img/neutralC/CFD-LM-214-165-N.jpg","1","1","1","1","1","1","0.558336399961263","0.51299860002473","0.589943900005892","1","1","1","1","1","1","1","1","1"
"250070","img/neutralC/CFD-LM-214-165-N.jpg","img/neutralC/CFD-WF-017-003-N.jpg","img/neutralC/CFD-WF-228-196-N.jpg","1","1","0","1","1","0","0.589943900005892","0.558336399961263","0.540035200072452","1","1","1","1","1","1","1","1","1"
"250070","img/neutralC/CFD-WF-228-196-N.jpg","img/neutralC/CFD-LM-214-165-N.jpg","img/neutralC/CFD-WM-019-003-N.jpg","0","1","1","0","1","1","0.540035200072452","0.589943900005892","0.71297760005109","1","1","1","1","1","1","1","1","1"
"250070","img/neutralC/CFD-WM-019-003-N.jpg","img/neutralC/CFD-WF-228-196-N.jpg","img/neutralC/CFD-WM-026-001-N.jpg","1","0","1","1","0","1","0.71297760005109","0.540035200072452","0.456021799938753","1","1","1","1","1","1","1","1","1"
"250070","img/neutralC/CFD-WM-026-001-N.jpg","img/neutralC/CFD-WM-019-003-N.jpg","img/neutralC/CFD-WF-005-010-N.jpg","1","1","1","1","1","0","0.456021799938753","0.71297760005109","0.539526500040665","1","1","1","1","1","1","1","1","1"
"250070","img/neutralC/CFD-WF-005-010-N.jpg","img/neutralC/CFD-WM-026-001-N.jpg","img/neutralC/CFD-MM-317-061-N.jpg","1","1","1","0","1","1","0.539526500040665","0.456021799938753","0.432482900097966","1","1","1","1","1","1","1","1","1"
"250070","img/neutralC/CFD-MM-317-061-N.jpg","img/neutralC/CFD-WF-005-010-N.jpg","img/neutralC/CFD-BF-202-109-N.jpg","1","1","1","1","0","1","0.432482900097966","0.539526500040665","0.416490599978715","1","1","1","1","1","1","1","1","1"
"250070","img/neutralC/CFD-BF-202-109-N.jpg","img/neutralC/CFD-MM-317-061-N.jpg","img/neutralC/CFD-LM-216-082-N.jpg","1","1","1","1","1","0","0.416490599978715","0.432482900097966","0.687590100103989","1","1","1","1","1","1","1","1","1"
"250070","img/neutralC/CFD-LM-216-082-N.jpg","img/neutralC/CFD-BF-202-109-N.jpg","img/neutralC/CFD-LM-201-057-N.jpg","1","1","1","0","1","1","0.687590100103989","0.416490599978715","0.367033600108698","1","1","1","1","1","1","1","1","1"
"250070","img/neutralC/CFD-LM-201-057-N.jpg","img/neutralC/CFD-LM-216-082-N.jpg","img/neutralC/CFD-WF-240-083-N.jpg","1","1","1","1","0","0","0.367033600108698","0.687590100103989","0.535034199943766","1","1","1","1","1","1","1","1","1"
"250070","img/neutralC/CFD-WF-240-083-N.jpg","img/neutralC/CFD-LM-201-057-N.jpg","img/neutralC/CFD-BF-212-315-N.jpg","1","1","1","0","1","1","0.535034199943766","0.367033600108698","0.498998099938035","1","1","1","1","1","1","1","1","1"
"250070","img/neutralC/CFD-BF-212-315-N.jpg","img/neutralC/CFD-WF-240-083-N.jpg","img/neutralC/CFD-WM-012-001-N.jpg","1","1","1","1","0","1","0.498998099938035","0.535034199943766","0.583394400076941","1","1","1","1","1","1","1","1","1"
"250070","img/neutralC/CFD-WM-012-001-N.jpg","img/neutralC/CFD-BF-212-315-N.jpg","img/neutralC/CFD-IM-648-337-N.jpg","1","1","1","1","1","0","0.583394400076941","0.498998099938035","0.583559900056571","1","1","1","1","1","1","1","1","1"
"250070","img/neutralC/CFD-IM-648-337-N.jpg","img/neutralC/CFD-WM-012-001-N.jpg","img/neutralC/CFD-MF-309-002-N.jpg","1","1","1","0","1","0","0.583559900056571","0.583394400076941","0.68678450002335","1","1","1","1","1","1","1","1","1"
"250070","img/neutralC/CFD-MF-309-002-N.jpg","img/neutralC/CFD-IM-648-337-N.jpg","img/neutralC/CFD-AF-240-206-N.jpg","1","1","1","0","0","0","0.68678450002335","0.583559900056571","0.493793200002983","1","1","1","1","1","1","1","1","1"
"250070","img/neutralC/CFD-AF-240-206-N.jpg","img/neutralC/CFD-MF-309-002-N.jpg","img/neutralC/CFD-LM-244-068-N.jpg","1","1","1","0","0","1","0.493793200002983","0.68678450002335","0.512345799943432","1","1","1","1","1","1","1","1","1"
"250070","img/neutralC/CFD-LM-244-068-N.jpg","img/neutralC/CFD-AF-240-206-N.jpg",NA,"1","1",NA,"1","0",NA,"0.512345799943432","0.493793200002983",NA,"1","1",NA,"1","1",NA,"1","1",NA
"250070","img/neutralC/CFD-IM-697-015-N.jpg",NA,"img/neutralC/CFD-AM-243-212-N.jpg","1",NA,"1","1",NA,"1","1.06210199999623",NA,"0.548930399818346","1",NA,"1","1",NA,"1","1",NA,"1"
"250070","img/neutralC/CFD-AM-243-212-N.jpg","img/neutralC/CFD-IM-697-015-N.jpg","img/neutralC/CFD-IM-606-008-N.jpg","1","1","1","1","1","0","0.548930399818346","1.06210199999623","0.534246099879965","1","1","1","1","1","1","1","1","1"
"250070","img/neutralC/CFD-IM-606-008-N.jpg","img/neutralC/CFD-AM-243-212-N.jpg","img/neutralC/CFD-BF-244-231-N.jpg","1","1","1","0","1","1","0.534246099879965","0.548930399818346","0.675131999887526","1","1","1","1","1","1","1","1","1"
"250070","img/neutralC/CFD-BF-244-231-N.jpg","img/neutralC/CFD-IM-606-008-N.jpg","img/neutralC/CFD-BM-020-001-N.jpg","1","1","1","1","0","0","0.675131999887526","0.534246099879965","0.496350199915469","1","1","1","1","1","1","1","1","1"
"250070","img/neutralC/CFD-BM-020-001-N.jpg","img/neutralC/CFD-BF-244-231-N.jpg","img/neutralC/CFD-LM-240-013-N.jpg","1","1","1","0","1","1","0.496350199915469","0.675131999887526","0.466095099924132","1","1","1","1","1","1","1","1","1"
"250070","img/neutralC/CFD-LM-240-013-N.jpg","img/neutralC/CFD-BM-020-001-N.jpg","img/neutralC/CFD-MM-306-010-N.jpg","1","1","1","1","0","0","0.466095099924132","0.496350199915469","0.51490360009484","1","1","1","1","1","1","1","1","1"
"250070","img/neutralC/CFD-MM-306-010-N.jpg","img/neutralC/CFD-LM-240-013-N.jpg","img/neutralC/CFD-IM-615-167-N.jpg","1","1","1","0","1","0","0.51490360009484","0.466095099924132","0.473223000066355","1","1","1","1","1","1","1","1","1"
"250070","img/neutralC/CFD-IM-615-167-N.jpg","img/neutralC/CFD-MM-306-010-N.jpg","img/neutralC/CFD-LF-238-154-N.jpg","1","1","1","0","0","1","0.473223000066355","0.51490360009484","0.468061600113288","1","1","1","1","1","1","1","1","1"
"250070","img/neutralC/CFD-LF-238-154-N.jpg","img/neutralC/CFD-IM-615-167-N.jpg","img/neutralC/CFD-AM-219-101-N.jpg","1","1","1","1","0","0","0.468061600113288","0.473223000066355","0.529625599971041","1","1","1","1","1","1","1","1","1"
"250070","img/neutralC/CFD-AM-219-101-N.jpg","img/neutralC/CFD-LF-238-154-N.jpg","img/neutralC/CFD-WF-243-148-N.jpg","1","1","1","0","1","0","0.529625599971041","0.468061600113288","0.472074300050735","1","1","1","1","1","1","1","1","1"
"250070","img/neutralC/CFD-WF-243-148-N.jpg","img/neutralC/CFD-AM-219-101-N.jpg","img/neutralC/CFD-BM-043-071-N.jpg","1","1","1","0","0","0","0.472074300050735","0.529625599971041","0.428648199886084","1","1","1","1","1","1","1","1","1"
"250070","img/neutralC/CFD-BM-043-071-N.jpg","img/neutralC/CFD-WF-243-148-N.jpg","img/neutralC/CFD-AF-237-223-N.jpg","1","1","1","0","0","0","0.428648199886084","0.472074300050735","0.748779099900275","1","1","1","1","1","1","1","1","1"
"250070","img/neutralC/CFD-AF-237-223-N.jpg","img/neutralC/CFD-BM-043-071-N.jpg","img/neutralC/CFD-BM-227-191-N.jpg","1","1","1","0","0","1","0.748779099900275","0.428648199886084","0.642333999974653","1","1","1","1","1","1","1","1","1"
"250070","img/neutralC/CFD-BM-227-191-N.jpg","img/neutralC/CFD-AF-237-223-N.jpg","img/neutralC/CFD-WF-221-005-N.jpg","1","1","1","1","0","0","0.642333999974653","0.748779099900275","0.637648399919271","1","1","1","1","1","1","1","1","1"
"250070","img/neutralC/CFD-WF-221-005-N.jpg","img/neutralC/CFD-BM-227-191-N.jpg","img/neutralC/CFD-WM-025-002-N.jpg","1","1","1","0","1","0","0.637648399919271","0.642333999974653","0.540422899881378","1","1","1","1","1","1","1","1","1"
"250070","img/neutralC/CFD-WM-025-002-N.jpg","img/neutralC/CFD-WF-221-005-N.jpg","img/neutralC/CFD-BF-012-001-N.jpg","1","1","1","0","0","0","0.540422899881378","0.637648399919271","0.520766600035131","1","1","1","1","1","1","1","1","1"
"250070","img/neutralC/CFD-BF-012-001-N.jpg","img/neutralC/CFD-WM-025-002-N.jpg","img/neutralC/CFD-WM-023-001-N.jpg","1","1","1","0","0","0","0.520766600035131","0.540422899881378","0.422388199949637","1","1","1","1","1","1","1","1","1"
"250070","img/neutralC/CFD-WM-023-001-N.jpg","img/neutralC/CFD-BF-012-001-N.jpg","img/neutralC/CFD-LF-212-066-N.jpg","1","1","1","0","0","1","0.422388199949637","0.520766600035131","0.476607300108299","1","1","1","1","1","1","1","1","1"
"250070","img/neutralC/CFD-LF-212-066-N.jpg","img/neutralC/CFD-WM-023-001-N.jpg","img/neutralC/CFD-BM-021-021-N.jpg","1","1","1","1","0","1","0.476607300108299","0.422388199949637","0.54683250002563","1","1","1","1","1","1","1","1","1"
"250070","img/neutralC/CFD-BM-021-021-N.jpg","img/neutralC/CFD-LF-212-066-N.jpg","img/neutralC/CFD-WF-009-001-N.jpg","1","1","1","1","1","1","0.54683250002563","0.476607300108299","0.479507999960333","1","1","1","1","1","1","1","1","1"
"250070","img/neutralC/CFD-WF-009-001-N.jpg","img/neutralC/CFD-BM-021-021-N.jpg","img/neutralC/CFD-LF-222-147-N.jpg","1","1","1","1","1","0","0.479507999960333","0.54683250002563","0.480797099880874","1","1","1","1","1","1","1","1","1"
"250070","img/neutralC/CFD-LF-222-147-N.jpg","img/neutralC/CFD-WF-009-001-N.jpg","img/neutralC/CFD-IM-689-263-N.jpg","1","1","1","0","1","1","0.480797099880874","0.479507999960333","0.443537299986929","1","1","1","1","1","1","1","1","1"
"250070","img/neutralC/CFD-IM-689-263-N.jpg","img/neutralC/CFD-LF-222-147-N.jpg","img/neutralC/CFD-BM-030-003-N.jpg","1","1","1","1","0","0","0.443537299986929","0.480797099880874","0.701508700149134","1","1","1","1","1","1","1","1","1"
"250070","img/neutralC/CFD-BM-030-003-N.jpg","img/neutralC/CFD-IM-689-263-N.jpg","img/neutralC/CFD-BM-009-002-N.jpg","1","1","1","0","1","1","0.701508700149134","0.443537299986929","0.4956737998873","1","1","1","1","1","1","1","1","1"
"250070","img/neutralC/CFD-BM-009-002-N.jpg","img/neutralC/CFD-BM-030-003-N.jpg","img/neutralC/CFD-WF-241-210-N.jpg","1","1","1","1","0","0","0.4956737998873","0.701508700149134","0.496888399822637","1","1","1","1","1","1","1","1","1"
"250070","img/neutralC/CFD-WF-241-210-N.jpg","img/neutralC/CFD-BM-009-002-N.jpg","img/neutralC/CFD-AM-205-153-N.jpg","1","1","1","0","1","1","0.496888399822637","0.4956737998873","0.512705999892205","1","1","1","1","1","1","1","1","1"
"250070","img/neutralC/CFD-AM-205-153-N.jpg","img/neutralC/CFD-WF-241-210-N.jpg","img/neutralC/CFD-IF-676-017-N.jpg","1","1","1","1","0","1","0.512705999892205","0.496888399822637","0.356791500002146","1","1","1","1","1","1","1","1","1"
"250070","img/neutralC/CFD-IF-676-017-N.jpg","img/neutralC/CFD-AM-205-153-N.jpg","img/neutralC/CFD-AM-249-163-N.jpg","1","1","1","1","1","1","0.356791500002146","0.512705999892205","0.388833800097927","1","1","1","1","1","1","1","1","1"
"250070","img/neutralC/CFD-AM-249-163-N.jpg","img/neutralC/CFD-IF-676-017-N.jpg","img/neutralC/CFD-WM-028-003-N.jpg","1","1","1","1","1","1","0.388833800097927","0.356791500002146","0.480475799879059","1","1","1","1","1","1","1","1","1"
"250070","img/neutralC/CFD-WM-028-003-N.jpg","img/neutralC/CFD-AM-249-163-N.jpg","img/neutralC/CFD-MF-328-020-N.jpg","1","1","1","1","1","0","0.480475799879059","0.388833800097927","0.60411910014227","1","1","1","1","1","1","1","1","1"
"250070","img/neutralC/CFD-MF-328-020-N.jpg","img/neutralC/CFD-WM-028-003-N.jpg","img/neutralC/CFD-WF-207-014-N.jpg","1","1","1","0","1","1","0.60411910014227","0.480475799879059","0.365932599874213","1","1","1","1","1","1","1","1","1"
"250070","img/neutralC/CFD-WF-207-014-N.jpg","img/neutralC/CFD-MF-328-020-N.jpg",NA,"1","1",NA,"1","0",NA,"0.365932599874213","0.60411910014227",NA,"1","1",NA,"1","1",NA,"1","1",NA
