"participant_id","face","surpAcc","memory_surp_responses","memory_surp_rt","keep_surp_memory_trial_based_on_rt","surp_block_num","exclude_block","number_of_surp_resp_items_used","num_blocks_excluded"
"250010","img/neutralC/CFD-BF-237-172-N.jpg","0","s","3.93330459995195",1,1,0,2,0
"250010","img/neutralC/CFD-IF-625-225-N.jpg","1","s","5.06055330007803",1,1,0,2,0
"250010","img/neutralC/CFD-WM-225-127-N.jpg","0","k","2.70523110008799",1,1,0,2,0
"250010","img/neutralC/CFD-BF-217-189-N.jpg","1","k","2.33442470000591",1,1,0,2,0
"250010","img/neutralC/CFD-WF-224-099-N.jpg","0","s","1.95330860000104",1,1,0,2,0
"250010","img/neutralC/CFD-WF-207-014-N.jpg","0","s","1.3889993999619",1,1,0,2,0
"250010","img/neutralC/CFD-AM-220-134-N.jpg","1","s","2.77139769995119",1,1,0,2,0
"250010","img/neutralC/CFD-WM-221-091-N.jpg","0","k","1.28018280002289",1,1,0,2,0
"250010","img/neutralC/CFD-LF-242-121-N.jpg","1","k","6.40299930004403",1,1,0,2,0
"250010","img/neutralC/CFD-IM-684-008-N.jpg","1","k","1.494619499892",1,1,0,2,0
"250010","img/neutralC/CFD-WF-002-004-N.jpg","1","k","4.8492583000334",1,1,0,2,0
"250010","img/neutralC/CFD-BF-202-109-N.jpg","1","s","1.75812539993785",1,1,0,2,0
"250010","img/neutralC/CFD-WF-228-196-N.jpg","0","s","1.59447269991506",1,1,0,2,0
"250010","img/neutralC/CFD-BM-029-024-N.jpg","1","k","1.71066930005327",1,1,0,2,0
"250010","img/neutralC/CFD-LM-244-068-N.jpg","0","s","5.73823850008193",1,1,0,2,0
"250010","img/neutralC/CFD-MF-328-020-N.jpg","1","k","4.14940480003133",1,1,0,2,0
"250010","img/neutralC/CFD-WF-221-005-N.jpg","0","k","8.10533179994673",1,1,0,2,0
"250010","img/neutralC/CFD-BF-201-080-N.jpg","1","s","1.68330080003943",1,1,0,2,0
"250010","img/neutralC/CFD-IF-642-295-N.jpg","1","s","1.74798829993233",1,1,0,2,0
"250010","img/neutralC/CFD-WF-027-003-N.jpg","0","s","2.15074620000087",1,1,0,2,0
"250010","img/neutralC/CFD-AM-221-184-N.jpg","0","k","1.19193550001364",1,1,0,2,0
"250010","img/neutralC/CFD-WF-005-010-N.jpg","0","s","3.47386579995509",1,1,0,2,0
"250010","img/neutralC/CFD-WM-249-239-N.jpg","0","s","3.15886059997138",1,1,0,2,0
"250010","img/neutralC/CFD-MF-340-026-N.jpg","0","s","1.05408670008183",1,1,0,2,0
"250010","img/neutralC/CFD-AF-240-206-N.jpg","0","k","1.38237470004242",1,1,0,2,0
"250010","img/neutralC/CFD-MF-336-016-N.jpg","1","s","0.364866900024936",1,1,0,2,0
"250010","img/neutralC/CFD-LF-239-148-N.jpg","0","k","0.832549200044014",1,1,0,2,0
"250010","img/neutralC/CFD-AM-236-090-N.jpg","1","s","1.11476929998025",1,1,0,2,0
"250010","img/neutralC/CFD-IM-743-006-N.jpg","0","s","0.773141199955717",1,1,0,2,0
"250010","img/neutralC/CFD-AF-233-190-N.jpg","1","s","1.58813910000026",1,1,0,2,0
"250010","img/neutralC/CFD-BF-207-004-N.jpg","1","s","0.931752600008622",1,1,0,2,0
"250010","img/neutralC/CFD-AF-205-155-N.jpg","1","s","1.34411579999141",1,1,0,2,0
"250010","img/neutralC/CFD-LF-203-066-N.jpg","0","k","1.15339049999602",1,1,0,2,0
"250010","img/neutralC/CFD-IM-638-250-1-N.jpg","1","s","0.364143599988893",1,1,0,2,0
"250010","img/neutralC/CFD-BF-041-001-N.jpg","0","s","0.596864799968898",1,1,0,2,0
"250010","img/neutralC/CFD-WF-029-002-N.jpg","0","k","0.978508699918166",1,1,0,2,0
"250010","img/neutralC/CFD-WF-245-084-N.jpg","0","s","0.461232600035146",1,1,0,2,0
"250010","img/neutralC/CFD-LF-211-003-N.jpg","0","k","0.774739400018007",1,1,0,2,0
"250010","img/neutralC/CFD-IM-606-008-N.jpg","0","k","0.939830399933271",1,1,0,2,0
"250010","img/neutralC/CFD-LM-252-076-N.jpg","0","k","1.19251810002606",1,1,0,2,0
"250010","img/neutralC/CFD-WM-021-001-N.jpg","1","s","1.32497740001418",1,1,0,2,0
"250010","img/neutralC/CFD-IM-635-010-N.jpg","1","s","0.966394199989736",1,1,0,2,0
"250010","img/neutralC/CFD-WF-243-148-N.jpg","0","s","1.02765449997969",1,1,0,2,0
"250010","img/neutralC/CFD-AF-254-167-N.jpg","1","k","0.862742900033481",1,1,0,2,0
"250010","img/neutralC/CFD-BF-014-002-N.jpg","1","k","1.04629009997007",1,1,0,2,0
"250010","img/neutralC/CFD-BM-027-001-N.jpg","1","k","0.960908300010487",1,1,0,2,0
"250010","img/neutralC/CFD-BF-236-177-N.jpg","1","k","0.573407800053246",1,1,0,2,0
"250010","img/neutralC/CFD-BM-010-003-N.jpg","1","s","0.761546800029464",1,1,0,2,0
"250010","img/neutralC/CFD-BM-250-170-N.jpg","1","k","2.37026150000747",1,2,0,2,0
"250010","img/neutralC/CFD-WM-018-002-N.jpg","0","s","0.390174899948761",1,2,0,2,0
"250010","img/neutralC/CFD-MF-301-024-N.jpg","1","k","0.111675299936906",0,2,0,2,0
"250010","img/neutralC/CFD-AF-221-147-N.jpg","0","s","0.0679512000642717",0,2,0,2,0
"250010","img/neutralC/CFD-AM-235-241-N.jpg","0","k","0.402622099965811",1,2,0,2,0
"250010","img/neutralC/CFD-BF-226-119-N.jpg","0","s","0.400117999990471",1,2,0,2,0
"250010","img/neutralC/CFD-BM-247-240-N.jpg","1","k","0.441088999970816",1,2,0,2,0
"250010","img/neutralC/CFD-AF-215-70-N.jpg","1","k","0.403716999921016",1,2,0,2,0
"250010","img/neutralC/CFD-WM-253-119-N.jpg","0","k","0.298610899946652",1,2,0,2,0
"250010","img/neutralC/CFD-BF-212-315-N.jpg","1","s","0.351974800112657",1,2,0,2,0
"250010","img/neutralC/CFD-BF-039-031-N.jpg","1","s","0.0775660000508651",0,2,0,2,0
"250010","img/neutralC/CFD-LF-222-147-N.jpg","1","k","2.55272240005434",1,2,0,2,0
"250010","img/neutralC/CFD-LM-218-183-N.jpg","1","s","0.103483000071719",0,2,0,2,0
"250010","img/neutralC/CFD-WF-006-002-N.jpg","0","k","0.306440299958922",1,2,0,2,0
"250010","img/neutralC/CFD-BM-018-001-N.jpg","1","k","0.275791099993512",1,2,0,2,0
"250010","img/neutralC/CFD-AF-229-160-N.jpg","0","k","0.209886700031348",1,2,0,2,0
"250010","img/neutralC/CFD-BF-002-001-N.jpg","0","k","0.0797871999675408",0,2,0,2,0
"250010","img/neutralC/CFD-WM-006-002-N.jpg","0","k","0.0148410999681801",0,2,0,2,0
"250010","img/neutralC/CFD-AM-245-111-N.jpg","0","k","0.265196699998342",1,2,0,2,0
"250010","img/neutralC/CFD-BF-010-001-N.jpg","0","s","0.432424200000241",1,2,0,2,0
"250010","img/neutralC/CFD-MF-335-002-N.jpg","1","k","0.31480230006855",1,2,0,2,0
"250010","img/neutralC/CFD-WF-235-121-N.jpg","0","s","0.524902699980885",1,2,0,2,0
"250010","img/neutralC/CFD-BF-020-002-N.jpg","1","s","0.430539699969813",1,2,0,2,0
"250010","img/neutralC/CFD-LF-212-066-N.jpg","1","s","0.497486099950038",1,2,0,2,0
"250010","img/neutralC/CFD-LM-243-075-N.jpg","0","s","0.453396699973382",1,2,0,2,0
"250010","img/neutralC/CFD-LF-208-127-N.jpg","1","k","0.376991900033318",1,2,0,2,0
"250010","img/neutralC/CFD-MF-309-002-N.jpg","0","k","0.28218249999918",1,2,0,2,0
"250010","img/neutralC/CFD-MF-318-022-N.jpg","0","k","0.0462225000374019",0,2,0,2,0
"250010","img/neutralC/CFD-BF-028-001-N.jpg","0","s","0.209749100031331",1,2,0,2,0
"250010","img/neutralC/CFD-BM-013-002-N.jpg","1","k","0.0996746000600979",0,2,0,2,0
"250010","img/neutralC/CFD-AM-247-165-N.jpg","1","s","0.176281800027937",0,2,0,2,0
"250010","img/neutralC/CFD-IM-696-001-N.jpg","1","k","0.191797999897972",0,2,0,2,0
"250010","img/neutralC/CFD-WF-209-052-N.jpg","1","k","0.137347399955615",0,2,0,2,0
"250010","img/neutralC/CFD-AF-237-223-N.jpg","0","s","0.0691328999819234",0,2,0,2,0
"250010","img/neutralC/CFD-IM-675-015-N.jpg","1","s","0.33372190000955",1,2,0,2,0
"250010","img/neutralC/CFD-WF-238-023-N.jpg","1","s","0.413862399989739",1,2,0,2,0
"250010","img/neutralC/CFD-LF-214-090-N.jpg","0","s","0.500380899989977",1,2,0,2,0
"250010","img/neutralC/CFD-WF-226-095-N.jpg","0","s","0.0308708999073133",0,2,0,2,0
"250010","img/neutralC/CFD-LM-200-045-N.jpg","0","k","0.244684000033885",1,2,0,2,0
"250010","img/neutralC/CFD-LM-219-295-N.jpg","0","k","0.104111199965701",0,2,0,2,0
"250010","img/neutralC/CFD-LM-238-129-N.jpg","1","k","0.358316499972716",1,2,0,2,0
"250010","img/neutralC/CFD-WM-024-015-N.jpg","0","k","0.180683900020085",0,2,0,2,0
"250010","img/neutralC/CFD-BF-232-187-N.jpg","1","k","0.375850700074807",1,2,0,2,0
"250010","img/neutralC/CFD-LM-226-175-N.jpg","1","s","0.168109100079164",0,2,0,2,0
"250010","img/neutralC/CFD-WF-007-001-N.jpg","0","k","0.174335099989548",0,2,0,2,0
"250010","img/neutralC/CFD-AM-230-150-N.jpg","0","k","0.198032999993302",0,2,0,2,0
"250010","img/neutralC/CFD-BM-001-014-N.jpg","0","k","0.307247400050983",1,2,0,2,0
"250010","img/neutralC/CFD-IM-703-182-N.jpg","1","k","0.288384100073017",1,2,0,2,0
"250010","img/neutralC/CFD-WM-002-009-N.jpg","0","s","3.1201414000243",1,3,0,2,0
"250010","img/neutralC/CFD-LM-215-247-N.jpg","0","k","4.11292859993409",1,3,0,2,0
"250010","img/neutralC/CFD-LF-238-154-N.jpg","0","k","0.205419300007634",1,3,0,2,0
"250010","img/neutralC/CFD-AM-244-222-N.jpg","0","s","0.0380267000291497",0,3,0,2,0
"250010","img/neutralC/CFD-MF-343-001-N.jpg","0","k","0.206967300036922",1,3,0,2,0
"250010","img/neutralC/CFD-LF-250-169-N.jpg","0","k","0.10524639999494",0,3,0,2,0
"250010","img/neutralC/CFD-IM-702-101-N.jpg","0","s","0.156835500034504",0,3,0,2,0
"250010","img/neutralC/CFD-BF-222-240-N.jpg","0","s","0.204341399949044",1,3,0,2,0
"250010","img/neutralC/CFD-LM-233-171-N.jpg","0","s","0.364031999954022",1,3,0,2,0
"250010","img/neutralC/CFD-LF-210-220-N.jpg","1","k","0.303417999995872",1,3,0,2,0
"250010","img/neutralC/CFD-BF-006-017-N.jpg","0","k","0.327573199989274",1,3,0,2,0
"250010","img/neutralC/CFD-LF-218-072-N.jpg","1","s","0.0590504999272525",0,3,0,2,0
"250010","img/neutralC/CFD-IM-637-007-N.jpg","1","s","0.269387400010601",1,3,0,2,0
"250010","img/neutralC/CFD-BM-215-155-N.jpg","0","s","0.259388799895532",1,3,0,2,0
"250010","img/neutralC/CFD-LF-247-051-N.jpg","0","s","0.348748599993996",1,3,0,2,0
"250010","img/neutralC/CFD-WF-241-210-N.jpg","0","s","0.0812195999315009",0,3,0,2,0
"250010","img/neutralC/CFD-IM-646-023-N.jpg","0","s","0.197354399948381",0,3,0,2,0
"250010","img/neutralC/CFD-WF-018-017-N.jpg","0","k","0.22151289996691",1,3,0,2,0
"250010","img/neutralC/CFD-BM-241-235-N.jpg","0","k","3.97712029994",1,3,0,2,0
"250010","img/neutralC/CFD-BF-253-202-N.jpg","1","k","0.383246699930169",1,3,0,2,0
"250010","img/neutralC/CFD-BM-243-218-N.jpg","0","k","0.492240399937145",1,3,0,2,0
"250010","img/neutralC/CFD-MF-337-026-N.jpg","0","s","1.50550349999685",1,3,0,2,0
"250010","img/neutralC/CFD-WM-041-021-N.jpg","0","k","0.603822799981572",1,3,0,2,0
"250010","img/neutralC/CFD-BF-254-201-N.jpg","1","k","0.902221599943004",1,3,0,2,0
"250010","img/neutralC/CFD-IM-616-214-N.jpg","1","s","1.38385780004319",1,3,0,2,0
"250010","img/neutralC/CFD-IM-697-015-N.jpg","1","k","1.84363510005642",1,3,0,2,0
"250010","img/neutralC/CFD-IM-615-167-N.jpg","1","k","1.71539909997955",1,3,0,2,0
"250010","img/neutralC/CFD-BM-019-002-N.jpg","1","k","0.753493299940601",1,3,0,2,0
"250010","img/neutralC/CFD-IF-620-218-N.jpg","0","k","1.24194310000166",1,3,0,2,0
"250010","img/neutralC/CFD-BF-042-026-N.jpg","0","k","0.69284780009184",1,3,0,2,0
"250010","img/neutralC/CFD-MF-302-027-N.jpg","1","k","0.9194303000113",1,3,0,2,0
"250010","img/neutralC/CFD-AF-206-079-N.jpg","0","k","1.46228009997867",1,3,0,2,0
"250010","img/neutralC/CFD-IM-719-221-N.jpg","0","k","1.3555966001004",1,3,0,2,0
"250010","img/neutralC/CFD-LF-236-221-N.jpg","1","k","0.858366100001149",1,3,0,2,0
"250010","img/neutralC/CFD-LM-214-165-N.jpg","1","k","0.758908199961297",1,3,0,2,0
"250010","img/neutralC/CFD-LM-253-075-N.jpg","0","k","1.17692429991439",1,3,0,2,0
"250010","img/neutralC/CFD-WF-222-092-N.jpg","0","k","2.72630720003508",1,3,0,2,0
"250010","img/neutralC/CFD-IF-629-234-N.jpg","0","k","1.45999440003652",1,3,0,2,0
"250010","img/neutralC/CFD-LF-230-203-N.jpg","1","k","0.669555799919181",1,3,0,2,0
"250010","img/neutralC/CFD-AF-202-122-N.jpg","1","s","5.20706559997052",1,3,0,2,0
"250010","img/neutralC/CFD-BM-225-154-N.jpg","1","k","0.067506399936974",0,3,0,2,0
"250010","img/neutralC/CFD-IM-604-014-N.jpg","0","s","0.365636300062761",1,3,0,2,0
"250010","img/neutralC/CFD-BF-214-308-N.jpg","1","k","0.408691099961288",1,3,0,2,0
"250010","img/neutralC/CFD-BM-021-021-N.jpg","0","k","0.044767800020054",0,3,0,2,0
"250010","img/neutralC/CFD-WF-223-133-N.jpg","1","s","0.728645399911329",1,3,0,2,0
"250010","img/neutralC/CFD-IF-676-017-N.jpg","0","s","0.325116300024092",1,3,0,2,0
"250010","img/neutralC/CFD-IF-608-390-N.jpg","0","s","0.124912399915047",0,3,0,2,0
"250010","img/neutralC/CFD-WM-237-052-N.jpg","0","s","0.312985199969262",1,3,0,2,0
"250010","img/neutralC/CFD-AF-241-141-N.jpg","1","k","0.0815799999982119",0,4,0,2,0
"250010","img/neutralC/CFD-MF-316-001-N.jpg","0","s","0.171169799985364",0,4,0,2,0
"250010","img/neutralC/CFD-LF-226-174-N.jpg","0","s","0.155319800018333",0,4,0,2,0
"250010","img/neutralC/CFD-IM-727-195-N.jpg","1","k","0.214784299954772",1,4,0,2,0
"250010","img/neutralC/CFD-BM-200-046-N.jpg","1","k","0.111035999958403",0,4,0,2,0
"250010","img/neutralC/CFD-IM-648-337-N.jpg","0","s","0.199529899982736",0,4,0,2,0
"250010","img/neutralC/CFD-AF-210-050-N.jpg","1","s","0.0695092000532895",0,4,0,2,0
"250010","img/neutralC/CFD-WF-009-001-N.jpg","0","k","0.0841561000561342",0,4,0,2,0
"250010","img/neutralC/CFD-LM-225-130-N.jpg","0","s","0.280212800018489",1,4,0,2,0
"250010","img/neutralC/CFD-MF-357-002-N.jpg","0","k","0.16058340005111",0,4,0,2,0
"250010","img/neutralC/CFD-BM-248-128-N.jpg","0","s","0.195706499973312",0,4,0,2,0
"250010","img/neutralC/CFD-LF-220-120-N.jpg","1","s","0.184917900012806",0,4,0,2,0
"250010","img/neutralC/CFD-AM-205-153-N.jpg","0","s","0.0126930000260472",0,4,0,2,0
"250010","img/neutralC/CFD-AM-243-212-N.jpg","0","s","0.0701814000494778",0,4,0,2,0
"250010","img/neutralC/CFD-IF-729-393-N.jpg","1","k","0.323696000035852",1,4,0,2,0
"250010","img/neutralC/CFD-MF-327-002-N.jpg","0","k","0.608103199978359",1,4,0,2,0
"250010","img/neutralC/CFD-BF-213-188-N.jpg","0","k","0.347640800056979",1,4,0,2,0
"250010","img/neutralC/CFD-BF-206-143-N.jpg","1","k","0.765595100005157",1,4,0,2,0
"250010","img/neutralC/CFD-WM-025-002-N.jpg","0","k","0.553674700087868",1,4,0,2,0
"250010","img/neutralC/CFD-IM-709-103-N.jpg","1","k","0.0256997999968007",0,4,0,2,0
"250010","img/neutralC/CFD-BF-029-031-N.jpg","0","s","0.521448599989526",1,4,0,2,0
"250010","img/neutralC/CFD-IM-721-341-N.jpg","1","k","0.447288500028662",1,4,0,2,0
"250010","img/neutralC/CFD-LF-205-100-N.jpg","1","k","0.931876600021496",1,4,0,2,0
"250010","img/neutralC/CFD-BM-211-174-N.jpg","0","k","0.748323599924333",1,4,0,2,0
"250010","img/neutralC/CFD-MF-303-013-N.jpg","0","s","3.02438299998175",1,4,0,2,0
"250010","img/neutralC/CFD-WF-012-002-N.jpg","1","s","0.697260699933395",1,4,0,2,0
"250010","img/neutralC/CFD-WM-040-022-N.jpg","0","k","0.705702600069344",1,4,0,2,0
"250010","img/neutralC/CFD-MF-329-001-N.jpg","0","s","0.602182099944912",1,4,0,2,0
"250010","img/neutralC/CFD-AM-201-076-N.jpg","1","k","0.655175100080669",1,4,0,2,0
"250010","img/neutralC/CFD-MF-312-002-N.jpg","1","s","0.0490814000368118",0,4,0,2,0
"250010","img/neutralC/CFD-WF-210-086-N.jpg","0","s","0.319791399990208",1,4,0,2,0
"250010","img/neutralC/CFD-BM-033-003-N.jpg","0","s","0.425179099896923",1,4,0,2,0
"250010","img/neutralC/CFD-BM-204-003-N.jpg","1","k","2.30214169993997",1,4,0,2,0
"250010","img/neutralC/CFD-IF-650-315-N.jpg","0","s","0.758719600038603",1,4,0,2,0
"250010","img/neutralC/CFD-WM-232-070-N.jpg","1","k","0.788154000067152",1,4,0,2,0
"250010","img/neutralC/CFD-MF-342-022-N.jpg","1","s","0.907655899995007",1,4,0,2,0
"250010","img/neutralC/CFD-WF-214-122-N.jpg","0","k","1.14220730005763",1,4,0,2,0
"250010","img/neutralC/CFD-IF-732-260-N.jpg","1","k","0.781931400066242",1,4,0,2,0
"250010","img/neutralC/CFD-IM-706-002-N.jpg","0","s","0.419093300006352",1,4,0,2,0
"250010","img/neutralC/CFD-WM-026-001-N.jpg","0","s","0.416839199955575",1,4,0,2,0
"250010","img/neutralC/CFD-IF-742-103-N.jpg","0","s","0.308696000021882",1,4,0,2,0
"250010","img/neutralC/CFD-IM-685-004-N.jpg","0","s","0.232816400006413",1,4,0,2,0
"250010","img/neutralC/CFD-AM-249-163-N.jpg","1","s","0.214787299977615",1,4,0,2,0
"250010","img/neutralC/CFD-WF-248-129-N.jpg","0","s","0.311892000027001",1,4,0,2,0
"250010","img/neutralC/CFD-BM-212-117-N.jpg","0","s","0.111293299938552",0,4,0,2,0
"250010","img/neutralC/CFD-BF-224-002-N.jpg","0","k","0.431006400031038",1,4,0,2,0
"250010","img/neutralC/CFD-IM-653-008-N.jpg","1","k","0.284743500058539",1,4,0,2,0
"250010","img/neutralC/CFD-WM-257-161-N.jpg","0","s","0.715693699894473",1,4,0,2,0
"250010","img/neutralC/CFD-WM-202-107-N.jpg","0","s","0.15199980000034",0,5,0,2,0
"250010","img/neutralC/CFD-BM-251-013-N.jpg","1","k","0.12803649995476",0,5,0,2,0
"250010","img/neutralC/CFD-AM-225-102-N.jpg","1","k","0.254781499970704",1,5,0,2,0
"250010","img/neutralC/CFD-BF-025-002-N.jpg","0","s","0.274008199921809",1,5,0,2,0
"250010","img/neutralC/CFD-AF-232-078-N.jpg","1","s","0.058255200041458",0,5,0,2,0
"250010","img/neutralC/CFD-WM-258-125-N.jpg","1","k","0.103218499920331",0,5,0,2,0
"250010","img/neutralC/CFD-BF-045-003-N.jpg","0","k","0.071959700086154",0,5,0,2,0
"250010","img/neutralC/CFD-IF-677-452-1-N.jpg","0","k","0.213155800011009",1,5,0,2,0
"250010","img/neutralC/CFD-AM-251-124-N.jpg","0","k","0.166650200029835",0,5,0,2,0
"250010","img/neutralC/CFD-IM-738-191-N.jpg","1","s","0.579887600033544",1,5,0,2,0
"250010","img/neutralC/CFD-IM-701-312-N.jpg","0","s","0.437113199965097",1,5,0,2,0
"250010","img/neutralC/CFD-LF-255-088-N.jpg","0","s","0.474373599980026",1,5,0,2,0
"250010","img/neutralC/CFD-LF-206-078-N.jpg","1","s","0.0906618000008166",0,5,0,2,0
"250010","img/neutralC/CFD-IM-639-263-N.jpg","1","s","0.305586399976164",1,5,0,2,0
"250010","img/neutralC/CFD-BF-003-003-N.jpg","0","s","0.244220599997789",1,5,0,2,0
"250010","img/neutralC/CFD-WM-209-038-N.jpg","0","s","0.342417600098997",1,5,0,2,0
"250010","img/neutralC/CFD-AF-227-207-N.jpg","1","s","0.420237299986184",1,5,0,2,0
"250010","img/neutralC/CFD-BM-005-003-N.jpg","0","s","0.490072599961422",1,5,0,2,0
"250010","img/neutralC/CFD-AF-213-126-N.jpg","0","s","0.857359300018288",1,5,0,2,0
"250010","img/neutralC/CFD-BF-255-140-N.jpg","0","k","1.1850848000031",1,5,0,2,0
"250010","img/neutralC/CFD-WM-255-219-N.jpg","0","k","0.519925900036469",1,5,0,2,0
"250010","img/neutralC/CFD-BF-027-002-N.jpg","0","s","0.196764099993743",0,5,0,2,0
"250010","img/neutralC/CFD-AM-212-050-N.jpg","1","s","0.754794100066647",1,5,0,2,0
"250010","img/neutralC/CFD-LF-241-188-N.jpg","0","s","0.760859900037758",1,5,0,2,0
"250010","img/neutralC/CFD-WM-038-003-N.jpg","0","k","1.24403760000132",1,5,0,2,0
"250010","img/neutralC/CFD-WM-014-002-N.jpg","0","k","0.477345500024967",1,5,0,2,0
"250010","img/neutralC/CFD-WF-036-023-N.jpg","1","k","0.348052099929191",1,5,0,2,0
"250010","img/neutralC/CFD-WM-213-076-N.jpg","1","k","0.121844300068915",0,5,0,2,0
"250010","img/neutralC/CFD-BF-004-014-N.jpg","0","s","0.306502599967644",1,5,0,2,0
"250010","img/neutralC/CFD-BF-033-028-N.jpg","1","s","0.0770526000997052",0,5,0,2,0
"250010","img/neutralC/CFD-AM-242-176-N.jpg","0","s","0.421228499966674",1,5,0,2,0
"250010","img/neutralC/CFD-BM-039-029-N.jpg","1","s","0.660354599938728",1,5,0,2,0
"250010","img/neutralC/CFD-WF-026-002-N.jpg","1","s","0.0817828000290319",0,5,0,2,0
"250010","img/neutralC/CFD-IM-680-369-N.jpg","1","s","0.949457300012",1,5,0,2,0
"250010","img/neutralC/CFD-BF-238-190-N.jpg","0","s","0.269313300028443",1,5,0,2,0
"250010","img/neutralC/CFD-LM-217-162-N.jpg","0","s","0.229628000059165",1,5,0,2,0
"250010","img/neutralC/CFD-WM-254-152-N.jpg","1","s","0.236346499994397",1,5,0,2,0
"250010","img/neutralC/CFD-AF-244-168-N.jpg","0","s","0.438631600001827",1,5,0,2,0
"250010","img/neutralC/CFD-IF-673-389-N.jpg","0","s","0.811841599992476",1,5,0,2,0
"250010","img/neutralC/CFD-MM-321-021-N.jpg","1","s","0.167085799970664",0,5,0,2,0
"250010","img/neutralC/CFD-BF-208-266-N.jpg","1","s","1.0965572000714",1,5,0,2,0
"250010","img/neutralC/CFD-MM-316-156-N.jpg","0","k","0.723528099944815",1,5,0,2,0
"250010","img/neutralC/CFD-BF-038-037-N.jpg","0","k","0.694557800074108",1,5,0,2,0
"250010","img/neutralC/CFD-LM-216-082-N.jpg","0","s","0.676433900021948",1,5,0,2,0
"250010","img/neutralC/CFD-IM-659-359-N.jpg","0","s","0.832835100009106",1,5,0,2,0
"250010","img/neutralC/CFD-WF-008-002-N.jpg","0","k","0.52219409996178",1,5,0,2,0
"250010","img/neutralC/CFD-BF-018-039-N.jpg","1","k","0.140714999986812",0,5,0,2,0
"250010","img/neutralC/CFD-LM-204-001-N.jpg","0","k","0.256266999989748",1,5,0,2,0
"250010","img/neutralC/CFD-IM-627-178-N.jpg","0","k","0.388964400044642",1,6,0,2,0
"250010","img/neutralC/CFD-BM-003-003-N.jpg","0","k","0.382911400054582",1,6,0,2,0
"250010","img/neutralC/CFD-WM-248-036-N.jpg","1","s","0.125812700018287",0,6,0,2,0
"250010","img/neutralC/CFD-WM-009-002-N.jpg","1","s","0.0620807999512181",0,6,0,2,0
"250010","img/neutralC/CFD-MF-313-002-N.jpg","0","s","0.080897800042294",0,6,0,2,0
"250010","img/neutralC/CFD-WF-200-099-N.jpg","0","k","0.161758700036444",0,6,0,2,0
"250010","img/neutralC/CFD-BF-051-035-N.jpg","1","k","0.2252015999984",1,6,0,2,0
"250010","img/neutralC/CFD-LF-224-176-N.jpg","0","s","0.0188846999080852",0,6,0,2,0
"250010","img/neutralC/CFD-WM-019-003-N.jpg","1","k","0.140357900061645",0,6,0,2,0
"250010","img/neutralC/CFD-LM-237-264-N.jpg","0","k","0.261110799969174",1,6,0,2,0
"250010","img/neutralC/CFD-AF-250-200-N.jpg","0","s","0.0865578999510035",0,6,0,2,0
"250010","img/neutralC/CFD-WM-228-065-N.jpg","1","s","0.258036599960178",1,6,0,2,0
"250010","img/neutralC/CFD-IM-651-308-N.jpg","0","k","0.195159700000659",0,6,0,2,0
"250010","img/neutralC/CFD-WF-023-003-N.jpg","1","s","0.27016120008193",1,6,0,2,0
"250010","img/neutralC/CFD-AF-239-171-N.jpg","0","s","0.196180799975991",0,6,0,2,0
"250010","img/neutralC/CFD-WM-017-002-N.jpg","0","k","0.438681300031021",1,6,0,2,0
"250010","img/neutralC/CFD-BM-036-003-N.jpg","0","s","0.0682723000645638",0,6,0,2,0
"250010","img/neutralC/CFD-LM-241-125-N.jpg","1","k","1.12515799992252",1,6,0,2,0
"250010","img/neutralC/CFD-IF-634-382-N.jpg","1","s","0.228558600065298",1,6,0,2,0
"250010","img/neutralC/CFD-BM-030-003-N.jpg","0","s","0.367387700011022",1,6,0,2,0
"250010","img/neutralC/CFD-IF-672-305-N.jpg","0","s","0.104408200015314",0,6,0,2,0
"250010","img/neutralC/CFD-BF-043-003-N.jpg","1","s","0.424314099946059",1,6,0,2,0
"250010","img/neutralC/CFD-MM-319-052-N.jpg","1","s","0.347404700005427",1,6,0,2,0
"250010","img/neutralC/CFD-WF-033-002-N.jpg","1","k","0.545431699953042",1,6,0,2,0
"250010","img/neutralC/CFD-BM-207-024-N.jpg","1","s","0.258564300020225",1,6,0,2,0
"250010","img/neutralC/CFD-BM-217-082-N.jpg","0","s","0.327394700027071",1,6,0,2,0
"250010","img/neutralC/CFD-IM-669-111-N.jpg","1","s","0.254009299911559",1,6,0,2,0
"250010","img/neutralC/CFD-BF-218-207-N.jpg","0","k","0.368383000022732",1,6,0,2,0
"250010","img/neutralC/CFD-BM-015-015-N.jpg","1","s","0.941282500047237",1,6,0,2,0
"250010","img/neutralC/CFD-IF-718-001-N.jpg","1","s","0.580029999953695",1,6,0,2,0
"250010","img/neutralC/CFD-IM-664-651-N.jpg","0","s","0.309592699981295",1,6,0,2,0
"250010","img/neutralC/CFD-LM-213-061-N.jpg","0","k","0.187401400064118",0,6,0,2,0
"250010","img/neutralC/CFD-AM-211-052-N.jpg","0","s","0.457688700058497",1,6,0,2,0
"250010","img/neutralC/CFD-IF-710-016-N.jpg","1","s","0.732202099985443",1,6,0,2,0
"250010","img/neutralC/CFD-WF-240-083-N.jpg","0","s","0.377068200032227",1,6,0,2,0
"250010","img/neutralC/CFD-WF-208-068-N.jpg","0","s","1.48202700004913",1,6,0,2,0
"250010","img/neutralC/CFD-IF-693-172-N.jpg","0","k","0.379648800007999",1,6,0,2,0
"250010","img/neutralC/CFD-BM-023-029-N.jpg","0","s","0.405420299968682",1,6,0,2,0
"250010","img/neutralC/CFD-IM-689-263-N.jpg","0","s","0.0486213999101892",0,6,0,2,0
"250010","img/neutralC/CFD-WM-219-008-N.jpg","0","k","0.463686999981292",1,6,0,2,0
"250010","img/neutralC/CFD-MF-321-003-N.jpg","0","s","0.122574500041083",0,6,0,2,0
"250010","img/neutralC/CFD-WM-242-011-N.jpg","1","k","0.471473700017668",1,6,0,2,0
"250010","img/neutralC/CFD-BF-044-034-N.jpg","0","k","0.321975399972871",1,6,0,2,0
"250010","img/neutralC/CFD-BM-026-002-N.jpg","0","k","0.169183699996211",0,6,0,2,0
"250010","img/neutralC/CFD-IF-665-015-N.jpg","1","k","0.259588800021447",1,6,0,2,0
"250010","img/neutralC/CFD-WM-015-002-N.jpg","1","k","0.049953700043261",0,6,0,2,0
"250010","img/neutralC/CFD-IM-667-369-N.jpg","0","k","0.146669699926861",0,6,0,2,0
"250010","img/neutralC/CFD-MM-306-010-N.jpg","0","k","0.363405400072224",1,6,0,2,0
"250010","img/neutralC/CFD-IM-674-281-N.jpg","0","s","0.511725699994713",1,7,0,2,0
"250010","img/neutralC/CFD-BM-009-002-N.jpg","0","k","0.247710600029677",1,7,0,2,0
"250010","img/neutralC/CFD-WM-004-010-N.jpg","0","k","0.17487310001161",0,7,0,2,0
"250010","img/neutralC/CFD-WM-023-001-N.jpg","0","k","0.0375994000351056",0,7,0,2,0
"250010","img/neutralC/CFD-WF-250-167-N.jpg","0","k","0.330005900003016",1,7,0,2,0
"250010","img/neutralC/CFD-WM-020-001-N.jpg","1","s","0.296438000048511",1,7,0,2,0
"250010","img/neutralC/CFD-MF-300-002-N.jpg","1","s","0.552998700062744",1,7,0,2,0
"250010","img/neutralC/CFD-BF-205-141-N.jpg","0","s","0.190917399944738",0,7,0,2,0
"250010","img/neutralC/CFD-WM-033-025-N.jpg","1","k","0.033884400036186",0,7,0,2,0
"250010","img/neutralC/CFD-IM-700-009-N.jpg","0","k","0.274088700069115",1,7,0,2,0
"250010","img/neutralC/CFD-LF-204-133-N.jpg","1","s","0.364216899964958",1,7,0,2,0
"250010","img/neutralC/CFD-IF-660-464-N.jpg","1","k","0.123383000027388",0,7,0,2,0
"250010","img/neutralC/CFD-WF-244-163-N.jpg","0","s","0.366265800083056",1,7,0,2,0
"250010","img/neutralC/CFD-BM-227-191-N.jpg","0","k","0.0982895999914035",0,7,0,2,0
"250010","img/neutralC/CFD-WM-034-030-N.jpg","0","k","0.226575699984096",1,7,0,2,0
"250010","img/neutralC/CFD-AM-219-101-N.jpg","1","k","0.126902700052597",0,7,0,2,0
"250010","img/neutralC/CFD-WF-001-003-N.jpg","0","k","0.0266017999965698",0,7,0,2,0
"250010","img/neutralC/CFD-BM-238-242-N.jpg","1","k","0.153918599942699",0,7,0,2,0
"250010","img/neutralC/CFD-WM-215-041-N.jpg","0","k","0.0827985000796616",0,7,0,2,0
"250010","img/neutralC/CFD-WF-234-086-N.jpg","1","s","0.292436499963515",1,7,0,2,0
"250010","img/neutralC/CFD-IF-744-114-N.jpg","0","k","0.156997499987483",0,7,0,2,0
"250010","img/neutralC/CFD-WF-213-031-N.jpg","1","s","0.755564799997956",1,7,0,2,0
"250010","img/neutralC/CFD-LM-247-095-N.jpg","1","k","0.16250089998357",0,7,0,2,0
"250010","img/neutralC/CFD-IM-657-308-N.jpg","0","k","0.333040300058201",1,7,0,2,0
"250010","img/neutralC/CFD-IM-671-601-N.jpg","0","s","0.28667659999337",1,7,0,2,0
"250010","img/neutralC/CFD-BF-012-001-N.jpg","0","s","0.0800233000190929",0,7,0,2,0
"250010","img/neutralC/CFD-AF-246-242-N.jpg","0","s","0.294768199906684",1,7,0,2,0
"250010","img/neutralC/CFD-BM-020-001-N.jpg","0","k","0.284143500030041",1,7,0,2,0
"250010","img/neutralC/CFD-WM-212-097-N.jpg","0","k","0.140085399965756",0,7,0,2,0
"250010","img/neutralC/CFD-WM-028-003-N.jpg","0","k","0.118000200018287",0,7,0,2,0
"250010","img/neutralC/CFD-WF-030-002-N.jpg","1","k","0.131783599965274",0,7,0,2,0
"250010","img/neutralC/CFD-WM-012-001-N.jpg","1","k","0.102343300008215",0,7,0,2,0
"250010","img/neutralC/CFD-LF-225-164-N.jpg","0","s","0.0145034999586642",0,7,0,2,0
"250010","img/neutralC/CFD-BM-213-134-N.jpg","1","s","0.153602299978957",0,7,0,2,0
"250010","img/neutralC/CFD-IM-707-105-N.jpg","0","k","0.240668100072071",1,7,0,2,0
"250010","img/neutralC/CFD-WM-227-099-N.jpg","0","s","0.02840420010034",0,7,0,2,0
"250010","img/neutralC/CFD-AF-253-130-N.jpg","0","s","0.287534799892455",1,7,0,2,0
"250010","img/neutralC/CFD-LF-245-166-N.jpg","1","k","1.47892050002702",1,7,0,2,0
"250010","img/neutralC/CFD-BM-004-002-N.jpg","0","k","0.559043899993412",1,7,0,2,0
"250010","img/neutralC/CFD-MM-304-002-N.jpg","1","s","5.87012089998461",1,7,0,2,0
"250010","img/neutralC/CFD-AM-233-236-N.jpg","1","s","0.350785499904305",1,7,0,2,0
"250010","img/neutralC/CFD-BM-253-004-N.jpg","1","k","0.377007700037211",1,7,0,2,0
"250010","img/neutralC/CFD-BM-239-136-N.jpg","1","s","0.123839000007138",0,7,0,2,0
"250010","img/neutralC/CFD-WF-233-112-N.jpg","0","k","0.465081500005908",1,7,0,2,0
"250010","img/neutralC/CFD-MF-305-014-N.jpg","0","s","0.205613099969923",1,7,0,2,0
"250010","img/neutralC/CFD-IM-632-097-N.jpg","1","k","0.0601043000351638",0,7,0,2,0
"250010","img/neutralC/CFD-IM-617-174-N.jpg","0","k","0.011839099926874",0,7,0,2,0
"250010","img/neutralC/CFD-MF-307-002-N.jpg","0","k","0.33932119992096",1,7,0,2,0
"250010","img/neutralC/CFD-IF-623-129-N.jpg","0","k","0.107890799990855",0,8,0,2,0
"250010","img/neutralC/CFD-WM-218-074-N.jpg","1","k","0.0276801999425516",0,8,0,2,0
"250010","img/neutralC/CFD-LF-201-035-N.jpg","0","k","0.0325001999735832",0,8,0,2,0
"250010","img/neutralC/CFD-IF-626-375-N.jpg","0","s","0.342970500001684",1,8,0,2,0
"250010","img/neutralC/CFD-BF-229-179-N.jpg","1","k","0.140686400001869",0,8,0,2,0
"250010","img/neutralC/CFD-WM-013-001-N.jpg","1","k","0.00814950000494719",0,8,0,2,0
"250010","img/neutralC/CFD-WF-022-017-N.jpg","0","k","0.270012299995869",1,8,0,2,0
"250010","img/neutralC/CFD-MF-359-019-N.jpg","0","k","0.275970600079745",1,8,0,2,0
"250010","img/neutralC/CFD-WM-235-147-N.jpg","0","k","0.0357559999683872",0,8,0,2,0
"250010","img/neutralC/CFD-AF-234-208-N.jpg","1","s","0.254494599997997",1,8,0,2,0
"250010","img/neutralC/CFD-LM-240-013-N.jpg","0","s","0.137922400026582",0,8,0,2,0
"250010","img/neutralC/CFD-WF-212-050-N.jpg","1","s","0.229827899951488",1,8,0,2,0
"250010","img/neutralC/CFD-IF-636-011-N.jpg","1","k","0.14712880004663",0,8,0,2,0
"250010","img/neutralC/CFD-BF-247-179-N.jpg","0","k","0.0678364000050351",0,8,0,2,0
"250010","img/neutralC/CFD-BM-028-002-N.jpg","1","k","0.142102200072259",0,8,0,2,0
"250010","img/neutralC/CFD-AF-231-357-N.jpg","0","s","0.14430580008775",0,8,0,2,0
"250010","img/neutralC/CFD-AM-217-085-N.jpg","1","s","0.0048269999679178",0,8,0,2,0
"250010","img/neutralC/CFD-WF-017-003-N.jpg","1","s","0.172841799911112",0,8,0,2,0
"250010","img/neutralC/CFD-LF-216-121-N.jpg","0","k","0.0905458000488579",0,8,0,2,0
"250010","img/neutralC/CFD-AM-215-120-N.jpg","1","s","0.0820122000295669",0,8,0,2,0
"250010","img/neutralC/CFD-MM-317-061-N.jpg","1","k","0.235826800111681",1,8,0,2,0
"250010","img/neutralC/CFD-IM-728-041-N.jpg","0","s","0.302081600064412",1,8,0,2,0
"250010","img/neutralC/CFD-WM-201-063-N.jpg","1","s","0.230005400022492",1,8,0,2,0
"250010","img/neutralC/CFD-LF-215-157-N.jpg","1","s","0.241559999994934",1,8,0,2,0
"250010","img/neutralC/CFD-LM-201-057-N.jpg","1","s","0.0379723999649286",0,8,0,2,0
"250010","img/neutralC/CFD-IM-645-001-N.jpg","0","s","0.188416799996048",0,8,0,2,0
"250010","img/neutralC/CFD-BF-235-168-N.jpg","1","s","0.286523399990983",1,8,0,2,0
"250010","img/neutralC/CFD-BM-043-071-N.jpg","1","k","0.076623099972494",0,8,0,2,0
"250010","img/neutralC/CFD-IF-619-197-N.jpg","0","s","0.344414199935272",1,8,0,2,0
"250010","img/neutralC/CFD-IM-726-248-N.jpg","0","s","0.565810599946417",1,8,0,2,0
"250010","img/neutralC/CFD-WM-011-002-N.jpg","0","s","0.618049799930304",1,8,0,2,0
"250010","img/neutralC/CFD-MM-324-069-N.jpg","1","s","0.346912499982864",1,8,0,2,0
"250010","img/neutralC/CFD-IM-678-482-N.jpg","1","s","0.0313714999938384",0,8,0,2,0
"250010","img/neutralC/CFD-BF-036-027-N.jpg","1","s","0.372208599932492",1,8,0,2,0
"250010","img/neutralC/CFD-BF-040-003-N.jpg","0","k","0.19692350004334",0,8,0,2,0
"250010","img/neutralC/CFD-BF-228-212-N.jpg","1","s","0.401743200025521",1,8,0,2,0
"250010","img/neutralC/CFD-BM-205-001-N.jpg","1","s","0.233165200101212",1,8,0,2,0
"250010","img/neutralC/CFD-LM-228-188-N.jpg","1","k","0.0253142999717966",0,8,0,2,0
"250010","img/neutralC/CFD-BF-011-002-N.jpg","0","s","0.36068299994804",1,8,0,2,0
"250010","img/neutralC/CFD-BF-244-231-N.jpg","0","s","0.281998799997382",1,8,0,2,0
"250010","img/neutralC/CFD-BF-204-189-N.jpg","0","k","0.0964745000237599",0,8,0,2,0
"250010","img/neutralC/CFD-MF-333-012-N.jpg","0","k","0.584822000004351",1,8,0,2,0
"250010","img/neutralC/CFD-BM-231-155-N.jpg","0","k","0.206103099975735",1,8,0,2,0
"250010","img/neutralC/CFD-BF-023-010-N.jpg","1","k","0.0894979999866337",0,8,0,2,0
"250010","img/neutralC/CFD-MF-352-054-N.jpg","0","s","0.118103600107133",0,8,0,2,0
"250010","img/neutralC/CFD-IM-686-097-N.jpg","0","k","0.212399200070649",1,8,0,2,0
"250010","img/neutralC/CFD-WF-217-085-N.jpg","1","s","1.8909263999667",1,8,0,2,0
"250010","img/neutralC/CFD-BM-041-035-N.jpg","1","s","0.641080399975181",1,8,0,2,0
