"participant_id","face","surpAcc","memory_surp_responses","memory_surp_rt","keep_surp_memory_trial_based_on_rt","surp_block_num","exclude_block","number_of_surp_resp_items_used","num_blocks_excluded"
"250004","img/neutralC/CFD-WF-221-005-N.jpg","0","k","5.22671780001838",1,1,0,2,0
"250004","img/neutralC/CFD-IM-606-008-N.jpg","1","s","1.11634479998611",1,1,0,2,0
"250004","img/neutralC/CFD-BM-010-003-N.jpg","1","s","2.71572620002553",1,1,0,2,0
"250004","img/neutralC/CFD-BF-217-189-N.jpg","0","s","1.46201450005174",1,1,0,2,0
"250004","img/neutralC/CFD-IF-625-225-N.jpg","0","k","2.44988969998667",1,1,0,2,0
"250004","img/neutralC/CFD-BF-041-001-N.jpg","0","s","1.24856099998578",1,1,0,2,0
"250004","img/neutralC/CFD-WF-224-099-N.jpg","0","s","2.8107985999668",1,1,0,2,0
"250004","img/neutralC/CFD-MF-336-016-N.jpg","1","s","1.96357459999854",1,1,0,2,0
"250004","img/neutralC/CFD-WF-027-003-N.jpg","1","k","4.74056359997485",1,1,0,2,0
"250004","img/neutralC/CFD-AM-221-184-N.jpg","0","k","2.70201100001577",1,1,0,2,0
"250004","img/neutralC/CFD-BF-014-002-N.jpg","1","k","2.48325099999784",1,1,0,2,0
"250004","img/neutralC/CFD-AF-240-206-N.jpg","1","s","3.49455490004038",1,1,0,2,0
"250004","img/neutralC/CFD-IM-638-250-1-N.jpg","1","s","2.1779102999717",1,1,0,2,0
"250004","img/neutralC/CFD-WM-221-091-N.jpg","1","s","3.48792569997022",1,1,0,2,0
"250004","img/neutralC/CFD-WM-225-127-N.jpg","0","k","3.59526339999866",1,1,0,2,0
"250004","img/neutralC/CFD-WF-005-010-N.jpg","0","s","4.91300150001189",1,1,0,2,0
"250004","img/neutralC/CFD-LF-211-003-N.jpg","1","s","2.91024120000657",1,1,0,2,0
"250004","img/neutralC/CFD-WF-029-002-N.jpg","1","s","1.14848700002767",1,1,0,2,0
"250004","img/neutralC/CFD-LF-239-148-N.jpg","1","s","1.79748619999737",1,1,0,2,0
"250004","img/neutralC/CFD-AF-205-155-N.jpg","1","s","2.68983390001813",1,1,0,2,0
"250004","img/neutralC/CFD-MF-340-026-N.jpg","0","s","4.343839499983",1,1,0,2,0
"250004","img/neutralC/CFD-WF-207-014-N.jpg","0","s","1.62090679997345",1,1,0,2,0
"250004","img/neutralC/CFD-LF-203-066-N.jpg","1","s","2.04184240003815",1,1,0,2,0
"250004","img/neutralC/CFD-BF-207-004-N.jpg","0","k","2.1219504000037",1,1,0,2,0
"250004","img/neutralC/CFD-BF-201-080-N.jpg","0","k","2.30249370000092",1,1,0,2,0
"250004","img/neutralC/CFD-IM-743-006-N.jpg","0","s","2.10898580000503",1,1,0,2,0
"250004","img/neutralC/CFD-AF-254-167-N.jpg","1","k","3.00467420002678",1,1,0,2,0
"250004","img/neutralC/CFD-IF-642-295-N.jpg","1","s","2.50938250002218",1,1,0,2,0
"250004","img/neutralC/CFD-MF-328-020-N.jpg","0","s","1.59713740000734",1,1,0,2,0
"250004","img/neutralC/CFD-AM-220-134-N.jpg","1","s","1.21370889997343",1,1,0,2,0
"250004","img/neutralC/CFD-WF-243-148-N.jpg","1","k","1.66668409999693",1,1,0,2,0
"250004","img/neutralC/CFD-IM-684-008-N.jpg","1","k","1.56653439998627",1,1,0,2,0
"250004","img/neutralC/CFD-WF-002-004-N.jpg","1","k","4.00997289997758",1,1,0,2,0
"250004","img/neutralC/CFD-LM-252-076-N.jpg","0","k","2.23187020001933",1,1,0,2,0
"250004","img/neutralC/CFD-WM-021-001-N.jpg","1","s","3.08519610000076",1,1,0,2,0
"250004","img/neutralC/CFD-LM-244-068-N.jpg","0","s","2.51956600003177",1,1,0,2,0
"250004","img/neutralC/CFD-IM-635-010-N.jpg","1","s","1.59667589998571",1,1,0,2,0
"250004","img/neutralC/CFD-WF-228-196-N.jpg","0","s","1.33589689998189",1,1,0,2,0
"250004","img/neutralC/CFD-BF-202-109-N.jpg","1","s","7.46582639997359",1,1,0,2,0
"250004","img/neutralC/CFD-AF-233-190-N.jpg","1","s","1.49538149998989",1,1,0,2,0
"250004","img/neutralC/CFD-BF-236-177-N.jpg","0","s","1.33697269996628",1,1,0,2,0
"250004","img/neutralC/CFD-LF-242-121-N.jpg","0","s","1.46666490001371",1,1,0,2,0
"250004","img/neutralC/CFD-BF-237-172-N.jpg","0","s","1.21863529999973",1,1,0,2,0
"250004","img/neutralC/CFD-AM-236-090-N.jpg","1","s","1.20717250002781",1,1,0,2,0
"250004","img/neutralC/CFD-BM-027-001-N.jpg","1","k","1.58177660004003",1,1,0,2,0
"250004","img/neutralC/CFD-BM-029-024-N.jpg","1","k","1.36922079999931",1,1,0,2,0
"250004","img/neutralC/CFD-WM-249-239-N.jpg","1","k","3.10354169999482",1,1,0,2,0
"250004","img/neutralC/CFD-WF-245-084-N.jpg","0","s","1.65681019995827",1,1,0,2,0
"250004","img/neutralC/CFD-MF-309-002-N.jpg","1","s","1.25477520003915",1,2,0,2,0
"250004","img/neutralC/CFD-WM-018-002-N.jpg","0","s","1.05371170002036",1,2,0,2,0
"250004","img/neutralC/CFD-LF-214-090-N.jpg","0","s","4.92350610002177",1,2,0,2,0
"250004","img/neutralC/CFD-LM-238-129-N.jpg","0","s","1.24282749998383",1,2,0,2,0
"250004","img/neutralC/CFD-BF-232-187-N.jpg","0","s","1.79979610000737",1,2,0,2,0
"250004","img/neutralC/CFD-BF-212-315-N.jpg","0","k","1.58152449998306",1,2,0,2,0
"250004","img/neutralC/CFD-IM-696-001-N.jpg","1","k","1.30559499998344",1,2,0,2,0
"250004","img/neutralC/CFD-BF-226-119-N.jpg","0","s","1.48036570003023",1,2,0,2,0
"250004","img/neutralC/CFD-WF-235-121-N.jpg","0","s","1.2342842000071",1,2,0,2,0
"250004","img/neutralC/CFD-WF-226-095-N.jpg","1","k","2.7605819000164",1,2,0,2,0
"250004","img/neutralC/CFD-BM-250-170-N.jpg","1","k","1.89228159998311",1,2,0,2,0
"250004","img/neutralC/CFD-AM-230-150-N.jpg","1","s","1.59020870004315",1,2,0,2,0
"250004","img/neutralC/CFD-AM-245-111-N.jpg","1","s","1.50365849997615",1,2,0,2,0
"250004","img/neutralC/CFD-BF-010-001-N.jpg","1","k","2.53366250003455",1,2,0,2,0
"250004","img/neutralC/CFD-BM-018-001-N.jpg","1","k","3.37345650000498",1,2,0,2,0
"250004","img/neutralC/CFD-LM-219-295-N.jpg","1","s","1.27325530000962",1,2,0,2,0
"250004","img/neutralC/CFD-AM-247-165-N.jpg","1","s","5.53760000003967",1,2,0,2,0
"250004","img/neutralC/CFD-IM-675-015-N.jpg","1","s","2.91151399997761",1,2,0,2,0
"250004","img/neutralC/CFD-BF-020-002-N.jpg","1","s","1.27693549997639",1,2,0,2,0
"250004","img/neutralC/CFD-AF-229-160-N.jpg","1","s","1.38238720002118",1,2,0,2,0
"250004","img/neutralC/CFD-LM-243-075-N.jpg","0","s","1.57198900001822",1,2,0,2,0
"250004","img/neutralC/CFD-LM-226-175-N.jpg","0","k","3.45427300001029",1,2,0,2,0
"250004","img/neutralC/CFD-WM-024-015-N.jpg","1","s","1.85938530002022",1,2,0,2,0
"250004","img/neutralC/CFD-IM-703-182-N.jpg","1","k","1.2059560000198",1,2,0,2,0
"250004","img/neutralC/CFD-BF-039-031-N.jpg","1","s","1.42429230001289",1,2,0,2,0
"250004","img/neutralC/CFD-LF-208-127-N.jpg","0","s","2.39818849996664",1,2,0,2,0
"250004","img/neutralC/CFD-AF-221-147-N.jpg","0","s","2.31418049999047",1,2,0,2,0
"250004","img/neutralC/CFD-LM-218-183-N.jpg","0","k","3.79213110002456",1,2,0,2,0
"250004","img/neutralC/CFD-AF-237-223-N.jpg","0","s","1.82836210000096",1,2,0,2,0
"250004","img/neutralC/CFD-LF-222-147-N.jpg","0","s","1.45683300000383",1,2,0,2,0
"250004","img/neutralC/CFD-BM-247-240-N.jpg","1","k","4.42554460000247",1,2,0,2,0
"250004","img/neutralC/CFD-BF-028-001-N.jpg","0","s","1.57612570002675",1,2,0,2,0
"250004","img/neutralC/CFD-LM-200-045-N.jpg","1","s","1.8160712000099",1,2,0,2,0
"250004","img/neutralC/CFD-WF-238-023-N.jpg","1","s","3.55642009997973",1,2,0,2,0
"250004","img/neutralC/CFD-WF-209-052-N.jpg","0","s","1.69292679999489",1,2,0,2,0
"250004","img/neutralC/CFD-MF-335-002-N.jpg","0","s","3.45160809997469",1,2,0,2,0
"250004","img/neutralC/CFD-LF-212-066-N.jpg","1","s","6.3773098999518",1,2,0,2,0
"250004","img/neutralC/CFD-AF-215-70-N.jpg","1","k","1.34451009996701",1,2,0,2,0
"250004","img/neutralC/CFD-BF-002-001-N.jpg","1","s","2.06680289999349",1,2,0,2,0
"250004","img/neutralC/CFD-WM-006-002-N.jpg","0","k","1.38640600000508",1,2,0,2,0
"250004","img/neutralC/CFD-MF-318-022-N.jpg","1","s","1.75058019999415",1,2,0,2,0
"250004","img/neutralC/CFD-WF-007-001-N.jpg","0","k","3.11266809998779",1,2,0,2,0
"250004","img/neutralC/CFD-AM-235-241-N.jpg","1","s","2.1511649999884",1,2,0,2,0
"250004","img/neutralC/CFD-BM-001-014-N.jpg","1","s","1.59938259999035",1,2,0,2,0
"250004","img/neutralC/CFD-WF-006-002-N.jpg","1","s","4.43988660001196",1,2,0,2,0
"250004","img/neutralC/CFD-WM-253-119-N.jpg","1","s","1.59299179998925",1,2,0,2,0
"250004","img/neutralC/CFD-BM-013-002-N.jpg","1","k","1.46425989997806",1,2,0,2,0
"250004","img/neutralC/CFD-MF-301-024-N.jpg","1","k","1.81903060001787",1,2,0,2,0
"250004","img/neutralC/CFD-LM-233-171-N.jpg","0","s","1.22478230000706",1,3,0,2,0
"250004","img/neutralC/CFD-IF-620-218-N.jpg","1","s","1.21257010003319",1,3,0,2,0
"250004","img/neutralC/CFD-IM-702-101-N.jpg","1","k","0.982405700022355",1,3,0,2,0
"250004","img/neutralC/CFD-BF-253-202-N.jpg","0","s","1.79428929998539",1,3,0,2,0
"250004","img/neutralC/CFD-AF-206-079-N.jpg","1","s","1.7581609999761",1,3,0,2,0
"250004","img/neutralC/CFD-LM-253-075-N.jpg","1","s","1.13768909999635",1,3,0,2,0
"250004","img/neutralC/CFD-LF-230-203-N.jpg","0","s","0.775695200019982",1,3,0,2,0
"250004","img/neutralC/CFD-LF-250-169-N.jpg","1","s","1.67767440003809",1,3,0,2,0
"250004","img/neutralC/CFD-WM-002-009-N.jpg","1","k","2.53143480001017",1,3,0,2,0
"250004","img/neutralC/CFD-MF-343-001-N.jpg","1","s","3.20001770003",1,3,0,2,0
"250004","img/neutralC/CFD-WM-237-052-N.jpg","1","k","2.42246629996225",1,3,0,2,0
"250004","img/neutralC/CFD-WF-241-210-N.jpg","1","k","1.36796220001997",1,3,0,2,0
"250004","img/neutralC/CFD-IF-676-017-N.jpg","1","k","1.65605450002477",1,3,0,2,0
"250004","img/neutralC/CFD-BM-215-155-N.jpg","1","k","1.40644220000831",1,3,0,2,0
"250004","img/neutralC/CFD-BF-042-026-N.jpg","0","k","2.7016280000098",1,3,0,2,0
"250004","img/neutralC/CFD-IF-608-390-N.jpg","0","s","2.76406060002046",1,3,0,2,0
"250004","img/neutralC/CFD-IM-637-007-N.jpg","1","s","1.23561370000243",1,3,0,2,0
"250004","img/neutralC/CFD-BM-243-218-N.jpg","1","s","3.45686069998192",1,3,0,2,0
"250004","img/neutralC/CFD-LF-210-220-N.jpg","0","s","1.22620360000292",1,3,0,2,0
"250004","img/neutralC/CFD-WF-018-017-N.jpg","1","s","6.28848859999562",1,3,0,2,0
"250004","img/neutralC/CFD-IM-615-167-N.jpg","1","k","1.01972430001479",1,3,0,2,0
"250004","img/neutralC/CFD-WF-223-133-N.jpg","1","s","1.56622239999706",1,3,0,2,0
"250004","img/neutralC/CFD-IM-646-023-N.jpg","1","k","1.10006799997063",1,3,0,2,0
"250004","img/neutralC/CFD-IF-629-234-N.jpg","1","s","1.81177509995177",1,3,0,2,0
"250004","img/neutralC/CFD-BF-254-201-N.jpg","0","s","1.55470100004459",1,3,0,2,0
"250004","img/neutralC/CFD-BF-222-240-N.jpg","0","s","2.99839299998712",1,3,0,2,0
"250004","img/neutralC/CFD-BF-214-308-N.jpg","1","k","1.49631369998679",1,3,0,2,0
"250004","img/neutralC/CFD-LF-236-221-N.jpg","1","k","2.72690469998633",1,3,0,2,0
"250004","img/neutralC/CFD-AM-244-222-N.jpg","1","k","2.44062569999369",1,3,0,2,0
"250004","img/neutralC/CFD-IM-604-014-N.jpg","1","k","2.22801110002911",1,3,0,2,0
"250004","img/neutralC/CFD-BM-021-021-N.jpg","1","s","1.98043039999902",1,3,0,2,0
"250004","img/neutralC/CFD-LF-238-154-N.jpg","1","s","1.63361520000035",1,3,0,2,0
"250004","img/neutralC/CFD-IM-697-015-N.jpg","0","s","1.33623130002525",1,3,0,2,0
"250004","img/neutralC/CFD-BM-019-002-N.jpg","0","s","0.808042899996508",1,3,0,2,0
"250004","img/neutralC/CFD-LM-214-165-N.jpg","0","s","1.15555900003528",1,3,0,2,0
"250004","img/neutralC/CFD-LF-247-051-N.jpg","0","s","1.60331010003574",1,3,0,2,0
"250004","img/neutralC/CFD-MF-302-027-N.jpg","1","k","1.66014059999725",1,3,0,2,0
"250004","img/neutralC/CFD-AF-202-122-N.jpg","1","s","1.07748259999789",1,3,0,2,0
"250004","img/neutralC/CFD-WF-222-092-N.jpg","1","s","2.103949500015",1,3,0,2,0
"250004","img/neutralC/CFD-BF-006-017-N.jpg","1","s","1.60936520004179",1,3,0,2,0
"250004","img/neutralC/CFD-BM-225-154-N.jpg","1","k","2.1124170999974",1,3,0,2,0
"250004","img/neutralC/CFD-MF-337-026-N.jpg","0","s","1.65056219999678",1,3,0,2,0
"250004","img/neutralC/CFD-BM-241-235-N.jpg","1","s","0.785599299997557",1,3,0,2,0
"250004","img/neutralC/CFD-LF-218-072-N.jpg","0","k","2.35504210001091",1,3,0,2,0
"250004","img/neutralC/CFD-IM-719-221-N.jpg","0","k","1.67285570001695",1,3,0,2,0
"250004","img/neutralC/CFD-LM-215-247-N.jpg","0","k","1.36570609995397",1,3,0,2,0
"250004","img/neutralC/CFD-IM-616-214-N.jpg","1","s","3.21671139996033",1,3,0,2,0
"250004","img/neutralC/CFD-WM-041-021-N.jpg","1","s","1.28494219999993",1,3,0,2,0
"250004","img/neutralC/CFD-AM-243-212-N.jpg","0","s","1.09783729998162",1,4,0,2,0
"250004","img/neutralC/CFD-WM-232-070-N.jpg","0","s","0.707871399994474",1,4,0,2,0
"250004","img/neutralC/CFD-LF-205-100-N.jpg","0","s","0.882336000038777",1,4,0,2,0
"250004","img/neutralC/CFD-WF-210-086-N.jpg","0","s","1.09703639999498",1,4,0,2,0
"250004","img/neutralC/CFD-WM-257-161-N.jpg","1","k","0.685799599974416",1,4,0,2,0
"250004","img/neutralC/CFD-IF-732-260-N.jpg","1","k","1.16500650002854",1,4,0,2,0
"250004","img/neutralC/CFD-AM-249-163-N.jpg","0","k","1.0982027000282",1,4,0,2,0
"250004","img/neutralC/CFD-BM-200-046-N.jpg","1","k","1.67033650004305",1,4,0,2,0
"250004","img/neutralC/CFD-WM-025-002-N.jpg","1","s","0.994398400012869",1,4,0,2,0
"250004","img/neutralC/CFD-BM-204-003-N.jpg","1","k","1.3840306000202",1,4,0,2,0
"250004","img/neutralC/CFD-BM-212-117-N.jpg","1","k","0.691836200014222",1,4,0,2,0
"250004","img/neutralC/CFD-MF-342-022-N.jpg","1","s","0.677278799994383",1,4,0,2,0
"250004","img/neutralC/CFD-MF-303-013-N.jpg","1","k","0.835828099981882",1,4,0,2,0
"250004","img/neutralC/CFD-BF-224-002-N.jpg","0","k","2.25350819999585",1,4,0,2,0
"250004","img/neutralC/CFD-LF-220-120-N.jpg","0","k","1.25566010002512",1,4,0,2,0
"250004","img/neutralC/CFD-AF-241-141-N.jpg","0","s","1.5306019000127",1,4,0,2,0
"250004","img/neutralC/CFD-IF-650-315-N.jpg","1","k","1.15744470001664",1,4,0,2,0
"250004","img/neutralC/CFD-BF-029-031-N.jpg","0","s","0.928251600009389",1,4,0,2,0
"250004","img/neutralC/CFD-MF-312-002-N.jpg","0","k","2.8468836999964",1,4,0,2,0
"250004","img/neutralC/CFD-BM-248-128-N.jpg","0","s","1.63238239998464",1,4,0,2,0
"250004","img/neutralC/CFD-WF-012-002-N.jpg","1","s","1.52953680005157",1,4,0,2,0
"250004","img/neutralC/CFD-IM-721-341-N.jpg","1","k","1.20408160000807",1,4,0,2,0
"250004","img/neutralC/CFD-IM-653-008-N.jpg","0","s","1.30585509998491",1,4,0,2,0
"250004","img/neutralC/CFD-MF-316-001-N.jpg","0","s","1.07525469997199",1,4,0,2,0
"250004","img/neutralC/CFD-IM-709-103-N.jpg","1","k","1.30942300002789",1,4,0,2,0
"250004","img/neutralC/CFD-BM-033-003-N.jpg","1","k","1.06281490001129",1,4,0,2,0
"250004","img/neutralC/CFD-WM-026-001-N.jpg","1","k","2.1822766000405",1,4,0,2,0
"250004","img/neutralC/CFD-BM-211-174-N.jpg","0","k","1.53829090000363",1,4,0,2,0
"250004","img/neutralC/CFD-AM-201-076-N.jpg","1","k","1.34661439998308",1,4,0,2,0
"250004","img/neutralC/CFD-BF-213-188-N.jpg","0","k","1.9752227999852",1,4,0,2,0
"250004","img/neutralC/CFD-IM-685-004-N.jpg","0","s","1.30218599998625",1,4,0,2,0
"250004","img/neutralC/CFD-BF-206-143-N.jpg","1","k","2.54379620001419",1,4,0,2,0
"250004","img/neutralC/CFD-IM-727-195-N.jpg","1","k","1.19949970004382",1,4,0,2,0
"250004","img/neutralC/CFD-WF-009-001-N.jpg","0","k","1.7820359999896",1,4,0,2,0
"250004","img/neutralC/CFD-LM-225-130-N.jpg","0","s","1.62077519996092",1,4,0,2,0
"250004","img/neutralC/CFD-IM-648-337-N.jpg","1","k","2.21774539997568",1,4,0,2,0
"250004","img/neutralC/CFD-IF-729-393-N.jpg","0","s","1.24944399995729",1,4,0,2,0
"250004","img/neutralC/CFD-WF-214-122-N.jpg","1","s","0.974889699951746",1,4,0,2,0
"250004","img/neutralC/CFD-MF-357-002-N.jpg","1","s","0.752129699976649",1,4,0,2,0
"250004","img/neutralC/CFD-IF-742-103-N.jpg","1","k","1.38320360000944",1,4,0,2,0
"250004","img/neutralC/CFD-WM-040-022-N.jpg","0","k","0.920092699991074",1,4,0,2,0
"250004","img/neutralC/CFD-WF-248-129-N.jpg","0","s","1.23459940002067",1,4,0,2,0
"250004","img/neutralC/CFD-LF-226-174-N.jpg","0","s","1.15843279997353",1,4,0,2,0
"250004","img/neutralC/CFD-IM-706-002-N.jpg","0","s","1.15804119996028",1,4,0,2,0
"250004","img/neutralC/CFD-MF-329-001-N.jpg","0","s","3.17783870000858",1,4,0,2,0
"250004","img/neutralC/CFD-MF-327-002-N.jpg","1","s","1.05086269997992",1,4,0,2,0
"250004","img/neutralC/CFD-AF-210-050-N.jpg","1","s","0.789986799994949",1,4,0,2,0
"250004","img/neutralC/CFD-AM-205-153-N.jpg","0","s","1.06879310001386",1,4,0,2,0
"250004","img/neutralC/CFD-WF-008-002-N.jpg","1","s","1.1663261000067",1,5,0,2,0
"250004","img/neutralC/CFD-WF-026-002-N.jpg","1","s","1.07056910003303",1,5,0,2,0
"250004","img/neutralC/CFD-BM-005-003-N.jpg","0","s","1.1982330000028",1,5,0,2,0
"250004","img/neutralC/CFD-MM-321-021-N.jpg","0","k","1.93900039995788",1,5,0,2,0
"250004","img/neutralC/CFD-AF-244-168-N.jpg","1","k","2.03249350003898",1,5,0,2,0
"250004","img/neutralC/CFD-LM-204-001-N.jpg","1","s","1.13359449995914",1,5,0,2,0
"250004","img/neutralC/CFD-AF-232-078-N.jpg","1","s","1.02927820000332",1,5,0,2,0
"250004","img/neutralC/CFD-LM-217-162-N.jpg","0","s","1.93702309997752",1,5,0,2,0
"250004","img/neutralC/CFD-BF-025-002-N.jpg","1","k","4.49441729998216",1,5,0,2,0
"250004","img/neutralC/CFD-LF-255-088-N.jpg","0","s","1.61330319999252",1,5,0,2,0
"250004","img/neutralC/CFD-BF-033-028-N.jpg","1","s","1.46319069998572",1,5,0,2,0
"250004","img/neutralC/CFD-BM-251-013-N.jpg","1","k","1.13442489999579",1,5,0,2,0
"250004","img/neutralC/CFD-AM-251-124-N.jpg","1","s","1.22863020002842",1,5,0,2,0
"250004","img/neutralC/CFD-BF-004-014-N.jpg","0","s","1.4482594000292",1,5,0,2,0
"250004","img/neutralC/CFD-IM-639-263-N.jpg","1","s","1.90844680002192",1,5,0,2,0
"250004","img/neutralC/CFD-AM-212-050-N.jpg","1","s","1.26820320001571",1,5,0,2,0
"250004","img/neutralC/CFD-WM-213-076-N.jpg","0","s","1.4607180999592",1,5,0,2,0
"250004","img/neutralC/CFD-BF-003-003-N.jpg","0","s","1.44933109998237",1,5,0,2,0
"250004","img/neutralC/CFD-WM-209-038-N.jpg","0","s","1.05049190000864",1,5,0,2,0
"250004","img/neutralC/CFD-WM-202-107-N.jpg","0","s","1.76356370002031",1,5,0,2,0
"250004","img/neutralC/CFD-IF-677-452-1-N.jpg","1","s","1.79688049998367",1,5,0,2,0
"250004","img/neutralC/CFD-IM-738-191-N.jpg","1","s","1.46780690003652",1,5,0,2,0
"250004","img/neutralC/CFD-BF-238-190-N.jpg","0","s","1.29710349999368",1,5,0,2,0
"250004","img/neutralC/CFD-AM-225-102-N.jpg","0","s","1.35594929999206",1,5,0,2,0
"250004","img/neutralC/CFD-BM-039-029-N.jpg","1","s","1.61795819998952",1,5,0,2,0
"250004","img/neutralC/CFD-MM-316-156-N.jpg","1","s","2.13561960001243",1,5,0,2,0
"250004","img/neutralC/CFD-AM-242-176-N.jpg","0","s","1.15909109998029",1,5,0,2,0
"250004","img/neutralC/CFD-WM-014-002-N.jpg","1","s","1.1845644999994",1,5,0,2,0
"250004","img/neutralC/CFD-IM-659-359-N.jpg","0","s","0.973251999996137",1,5,0,2,0
"250004","img/neutralC/CFD-WM-255-219-N.jpg","0","k","1.13034699996933",1,5,0,2,0
"250004","img/neutralC/CFD-WM-038-003-N.jpg","0","k","1.40533649997087",1,5,0,2,0
"250004","img/neutralC/CFD-LF-241-188-N.jpg","0","s","1.0489768999978",1,5,0,2,0
"250004","img/neutralC/CFD-AF-227-207-N.jpg","1","s","0.943738999951165",1,5,0,2,0
"250004","img/neutralC/CFD-AF-213-126-N.jpg","1","k","0.721941000025254",1,5,0,2,0
"250004","img/neutralC/CFD-BF-038-037-N.jpg","0","k","0.462296599987894",1,5,0,2,0
"250004","img/neutralC/CFD-WM-258-125-N.jpg","1","k","0.621373300033156",1,5,0,2,0
"250004","img/neutralC/CFD-BF-255-140-N.jpg","0","k","0.706094599969219",1,5,0,2,0
"250004","img/neutralC/CFD-WF-036-023-N.jpg","0","s","0.854655499977525",1,5,0,2,0
"250004","img/neutralC/CFD-IM-680-369-N.jpg","0","k","0.904772599984426",1,5,0,2,0
"250004","img/neutralC/CFD-LM-216-082-N.jpg","0","s","0.454979699978139",1,5,0,2,0
"250004","img/neutralC/CFD-BF-018-039-N.jpg","1","k","0.296270099992398",1,5,0,2,0
"250004","img/neutralC/CFD-LF-206-078-N.jpg","0","k","1.61251790000824",1,5,0,2,0
"250004","img/neutralC/CFD-IM-701-312-N.jpg","1","k","0.736786299967207",1,5,0,2,0
"250004","img/neutralC/CFD-BF-208-266-N.jpg","0","k","1.15608510002494",1,5,0,2,0
"250004","img/neutralC/CFD-WM-254-152-N.jpg","1","s","0.975046200037468",1,5,0,2,0
"250004","img/neutralC/CFD-BF-045-003-N.jpg","1","s","0.812744399998337",1,5,0,2,0
"250004","img/neutralC/CFD-BF-027-002-N.jpg","0","s","1.00317049998557",1,5,0,2,0
"250004","img/neutralC/CFD-IF-673-389-N.jpg","0","s","0.873018699989188",1,5,0,2,0
"250004","img/neutralC/CFD-LF-224-176-N.jpg","1","k","1.48001840000506",1,6,0,2,0
"250004","img/neutralC/CFD-IM-664-651-N.jpg","0","s","1.34650759998476",1,6,0,2,0
"250004","img/neutralC/CFD-IM-627-178-N.jpg","1","s","0.508366999973077",1,6,0,2,0
"250004","img/neutralC/CFD-AM-211-052-N.jpg","1","k","0.7639944999828",1,6,0,2,0
"250004","img/neutralC/CFD-IF-693-172-N.jpg","0","k","0.625159199989866",1,6,0,2,0
"250004","img/neutralC/CFD-WM-248-036-N.jpg","1","s","0.246093599998858",1,6,0,2,0
"250004","img/neutralC/CFD-IF-634-382-N.jpg","0","k","2.94100679998519",1,6,0,2,0
"250004","img/neutralC/CFD-IF-665-015-N.jpg","1","k","1.05556359997718",1,6,0,2,0
"250004","img/neutralC/CFD-LM-237-264-N.jpg","0","k","0.630057099973783",1,6,0,2,0
"250004","img/neutralC/CFD-BM-217-082-N.jpg","0","s","1.00462409999454",1,6,0,2,0
"250004","img/neutralC/CFD-WF-200-099-N.jpg","1","s","1.88883920002263",1,6,0,2,0
"250004","img/neutralC/CFD-BM-026-002-N.jpg","1","s","1.11694400000852",1,6,0,2,0
"250004","img/neutralC/CFD-WF-240-083-N.jpg","0","s","1.70193609996932",1,6,0,2,0
"250004","img/neutralC/CFD-IM-669-111-N.jpg","1","s","2.64184290001867",1,6,0,2,0
"250004","img/neutralC/CFD-MF-313-002-N.jpg","1","k","3.10247730003903",1,6,0,2,0
"250004","img/neutralC/CFD-BF-043-003-N.jpg","1","s","1.74972559994785",1,6,0,2,0
"250004","img/neutralC/CFD-WM-242-011-N.jpg","0","s","1.61396199994488",1,6,0,2,0
"250004","img/neutralC/CFD-BM-003-003-N.jpg","1","s","1.0881799000199",1,6,0,2,0
"250004","img/neutralC/CFD-WF-033-002-N.jpg","0","s","1.00378109997837",1,6,0,2,0
"250004","img/neutralC/CFD-WM-019-003-N.jpg","0","s","1.2384858999867",1,6,0,2,0
"250004","img/neutralC/CFD-MM-306-010-N.jpg","1","s","0.932347099995241",1,6,0,2,0
"250004","img/neutralC/CFD-BM-036-003-N.jpg","0","s","1.31495760002872",1,6,0,2,0
"250004","img/neutralC/CFD-IF-718-001-N.jpg","0","k","0.723947599995881",1,6,0,2,0
"250004","img/neutralC/CFD-LM-241-125-N.jpg","0","s","1.20288320002146",1,6,0,2,0
"250004","img/neutralC/CFD-BM-030-003-N.jpg","0","s","1.55864930001553",1,6,0,2,0
"250004","img/neutralC/CFD-LM-213-061-N.jpg","0","k","0.509380899951793",1,6,0,2,0
"250004","img/neutralC/CFD-WM-009-002-N.jpg","1","s","0.488952899992",1,6,0,2,0
"250004","img/neutralC/CFD-WM-015-002-N.jpg","0","s","0.831019499979448",1,6,0,2,0
"250004","img/neutralC/CFD-IM-689-263-N.jpg","0","s","1.10709270002553",1,6,0,2,0
"250004","img/neutralC/CFD-BM-023-029-N.jpg","0","s","1.00874809996458",1,6,0,2,0
"250004","img/neutralC/CFD-WF-023-003-N.jpg","0","k","1.05459099996369",1,6,0,2,0
"250004","img/neutralC/CFD-IM-651-308-N.jpg","1","s","1.05595339997672",1,6,0,2,0
"250004","img/neutralC/CFD-AF-239-171-N.jpg","1","k","2.61106880003354",1,6,0,2,0
"250004","img/neutralC/CFD-BM-015-015-N.jpg","1","s","1.55034020001767",1,6,0,2,0
"250004","img/neutralC/CFD-BF-051-035-N.jpg","0","s","1.98276949999854",1,6,0,2,0
"250004","img/neutralC/CFD-WM-017-002-N.jpg","1","s","1.92708989995299",1,6,0,2,0
"250004","img/neutralC/CFD-AF-250-200-N.jpg","0","s","0.843343099986669",1,6,0,2,0
"250004","img/neutralC/CFD-MF-321-003-N.jpg","0","s","0.545281500031706",1,6,0,2,0
"250004","img/neutralC/CFD-WF-208-068-N.jpg","1","k","0.728462400031276",1,6,0,2,0
"250004","img/neutralC/CFD-WM-228-065-N.jpg","1","s","0.582168900000397",1,6,0,2,0
"250004","img/neutralC/CFD-BM-207-024-N.jpg","1","s","0.816965900012292",1,6,0,2,0
"250004","img/neutralC/CFD-MM-319-052-N.jpg","1","s","0.587560400017537",1,6,0,2,0
"250004","img/neutralC/CFD-BF-044-034-N.jpg","0","k","0.8182489000028",1,6,0,2,0
"250004","img/neutralC/CFD-IM-667-369-N.jpg","1","s","0.783546700025909",1,6,0,2,0
"250004","img/neutralC/CFD-BF-218-207-N.jpg","1","s","0.870844100019895",1,6,0,2,0
"250004","img/neutralC/CFD-WM-219-008-N.jpg","1","s","0.901977600005921",1,6,0,2,0
"250004","img/neutralC/CFD-IF-710-016-N.jpg","0","k","1.72134879999794",1,6,0,2,0
"250004","img/neutralC/CFD-IF-672-305-N.jpg","1","k","1.05526650004322",1,6,0,2,0
"250004","img/neutralC/CFD-WM-023-001-N.jpg","1","s","1.01472650002688",1,7,0,2,0
"250004","img/neutralC/CFD-IM-657-308-N.jpg","1","s","0.704007300024386",1,7,0,2,0
"250004","img/neutralC/CFD-AF-253-130-N.jpg","1","k","0.971920499985572",1,7,0,2,0
"250004","img/neutralC/CFD-WF-001-003-N.jpg","0","k","1.3500500000082",1,7,0,2,0
"250004","img/neutralC/CFD-BM-227-191-N.jpg","0","k","0.774353599990718",1,7,0,2,0
"250004","img/neutralC/CFD-WM-033-025-N.jpg","0","s","0.718275999999605",1,7,0,2,0
"250004","img/neutralC/CFD-WM-004-010-N.jpg","1","s","1.08680109999841",1,7,0,2,0
"250004","img/neutralC/CFD-WF-250-167-N.jpg","0","k","1.23465659999056",1,7,0,2,0
"250004","img/neutralC/CFD-IM-700-009-N.jpg","1","s","0.93095920002088",1,7,0,2,0
"250004","img/neutralC/CFD-IM-632-097-N.jpg","1","k","0.972601399989799",1,7,0,2,0
"250004","img/neutralC/CFD-LM-247-095-N.jpg","0","s","0.783507599961013",1,7,0,2,0
"250004","img/neutralC/CFD-WM-215-041-N.jpg","1","s","0.924643000005744",1,7,0,2,0
"250004","img/neutralC/CFD-WF-030-002-N.jpg","0","s","1.09514620003756",1,7,0,2,0
"250004","img/neutralC/CFD-WM-028-003-N.jpg","1","s","0.949272500001825",1,7,0,2,0
"250004","img/neutralC/CFD-IF-744-114-N.jpg","1","s","1.38988490001066",1,7,0,2,0
"250004","img/neutralC/CFD-IM-674-281-N.jpg","0","s","1.17576299997745",1,7,0,2,0
"250004","img/neutralC/CFD-WM-020-001-N.jpg","1","s","1.45079430000624",1,7,0,2,0
"250004","img/neutralC/CFD-WM-212-097-N.jpg","1","s","0.951072700030636",1,7,0,2,0
"250004","img/neutralC/CFD-BF-012-001-N.jpg","0","s","0.749278000032064",1,7,0,2,0
"250004","img/neutralC/CFD-IM-671-601-N.jpg","0","s","0.666048700048123",1,7,0,2,0
"250004","img/neutralC/CFD-MF-305-014-N.jpg","0","s","0.660143600020092",1,7,0,2,0
"250004","img/neutralC/CFD-IM-707-105-N.jpg","1","s","0.334119800012559",1,7,0,2,0
"250004","img/neutralC/CFD-LF-245-166-N.jpg","0","s","0.478649600001518",1,7,0,2,0
"250004","img/neutralC/CFD-AM-233-236-N.jpg","0","k","0.462650200002827",1,7,0,2,0
"250004","img/neutralC/CFD-AF-246-242-N.jpg","1","k","0.541079799993895",1,7,0,2,0
"250004","img/neutralC/CFD-MF-307-002-N.jpg","1","s","0.887096600024961",1,7,0,2,0
"250004","img/neutralC/CFD-WM-227-099-N.jpg","1","k","0.724823400028981",1,7,0,2,0
"250004","img/neutralC/CFD-MF-300-002-N.jpg","0","k","0.942267599981278",1,7,0,2,0
"250004","img/neutralC/CFD-BM-020-001-N.jpg","0","k","0.683390200021677",1,7,0,2,0
"250004","img/neutralC/CFD-BM-253-004-N.jpg","0","s","1.0816772999824",1,7,0,2,0
"250004","img/neutralC/CFD-WF-234-086-N.jpg","0","k","0.893865099991672",1,7,0,2,0
"250004","img/neutralC/CFD-IM-617-174-N.jpg","1","s","0.840841099969111",1,7,0,2,0
"250004","img/neutralC/CFD-BM-004-002-N.jpg","1","s","1.34325009997701",1,7,0,2,0
"250004","img/neutralC/CFD-LF-225-164-N.jpg","0","s","1.08580390003044",1,7,0,2,0
"250004","img/neutralC/CFD-WF-244-163-N.jpg","1","k","1.19105470000068",1,7,0,2,0
"250004","img/neutralC/CFD-BM-239-136-N.jpg","1","s","1.52326639997773",1,7,0,2,0
"250004","img/neutralC/CFD-BF-205-141-N.jpg","0","s","0.870925700000953",1,7,0,2,0
"250004","img/neutralC/CFD-LF-204-133-N.jpg","1","s","1.13769970001886",1,7,0,2,0
"250004","img/neutralC/CFD-WF-233-112-N.jpg","0","k","0.909139900002629",1,7,0,2,0
"250004","img/neutralC/CFD-WM-012-001-N.jpg","0","s","0.817836299946066",1,7,0,2,0
"250004","img/neutralC/CFD-BM-009-002-N.jpg","1","s","1.52258210000582",1,7,0,2,0
"250004","img/neutralC/CFD-AM-219-101-N.jpg","0","s","0.88167929998599",1,7,0,2,0
"250004","img/neutralC/CFD-BM-238-242-N.jpg","1","k","1.35587400000077",1,7,0,2,0
"250004","img/neutralC/CFD-WF-213-031-N.jpg","0","k","0.942272600019351",1,7,0,2,0
"250004","img/neutralC/CFD-WM-034-030-N.jpg","1","s","1.24174239998683",1,7,0,2,0
"250004","img/neutralC/CFD-BM-213-134-N.jpg","0","k","1.21211389999371",1,7,0,2,0
"250004","img/neutralC/CFD-IF-660-464-N.jpg","1","k","0.89676029997645",1,7,0,2,0
"250004","img/neutralC/CFD-MM-304-002-N.jpg","1","s","1.31362480000826",1,7,0,2,0
"250004","img/neutralC/CFD-WF-217-085-N.jpg","0","k","0.903314600000158",1,8,0,2,0
"250004","img/neutralC/CFD-LM-240-013-N.jpg","0","s","0.611829600005876",1,8,0,2,0
"250004","img/neutralC/CFD-WM-013-001-N.jpg","1","k","0.993885999952909",1,8,0,2,0
"250004","img/neutralC/CFD-LF-216-121-N.jpg","0","k","0.882783200009726",1,8,0,2,0
"250004","img/neutralC/CFD-BF-036-027-N.jpg","0","k","0.681116199993994",1,8,0,2,0
"250004","img/neutralC/CFD-IM-726-248-N.jpg","1","k","0.685613000008743",1,8,0,2,0
"250004","img/neutralC/CFD-BM-231-155-N.jpg","0","k","0.593189800041728",1,8,0,2,0
"250004","img/neutralC/CFD-BM-028-002-N.jpg","0","s","1.07033949997276",1,8,0,2,0
"250004","img/neutralC/CFD-AF-231-357-N.jpg","1","k","1.60775089997333",1,8,0,2,0
"250004","img/neutralC/CFD-WM-201-063-N.jpg","0","k","2.6742866000277",1,8,0,2,0
"250004","img/neutralC/CFD-BF-247-179-N.jpg","1","s","1.13247220002813",1,8,0,2,0
"250004","img/neutralC/CFD-IF-623-129-N.jpg","1","s","4.50206450000405",1,8,0,2,0
"250004","img/neutralC/CFD-LM-201-057-N.jpg","1","s","0.86419539997587",1,8,0,2,0
"250004","img/neutralC/CFD-AM-215-120-N.jpg","0","k","2.29773709998699",1,8,0,2,0
"250004","img/neutralC/CFD-LF-201-035-N.jpg","1","s","2.43890569999348",1,8,0,2,0
"250004","img/neutralC/CFD-BF-228-212-N.jpg","0","k","2.32420540001476",1,8,0,2,0
"250004","img/neutralC/CFD-IF-626-375-N.jpg","1","k","0.996551499993075",1,8,0,2,0
"250004","img/neutralC/CFD-IF-636-011-N.jpg","0","s","1.12011730001541",1,8,0,2,0
"250004","img/neutralC/CFD-IM-728-041-N.jpg","0","s","0.939343900012318",1,8,0,2,0
"250004","img/neutralC/CFD-WF-022-017-N.jpg","0","k","1.49313320004148",1,8,0,2,0
"250004","img/neutralC/CFD-BF-244-231-N.jpg","0","s","0.891594899992924",1,8,0,2,0
"250004","img/neutralC/CFD-AM-217-085-N.jpg","1","s","0.934287499985658",1,8,0,2,0
"250004","img/neutralC/CFD-WM-218-074-N.jpg","0","s","1.2114983999636",1,8,0,2,0
"250004","img/neutralC/CFD-IM-678-482-N.jpg","0","k","1.03422159998445",1,8,0,2,0
"250004","img/neutralC/CFD-MM-317-061-N.jpg","1","k","0.64188530005049",1,8,0,2,0
"250004","img/neutralC/CFD-WF-212-050-N.jpg","1","s","0.474237899994478",1,8,0,2,0
"250004","img/neutralC/CFD-BF-040-003-N.jpg","0","k","0.678864900022745",1,8,0,2,0
"250004","img/neutralC/CFD-LF-215-157-N.jpg","1","s","0.764629099983722",1,8,0,2,0
"250004","img/neutralC/CFD-MF-359-019-N.jpg","0","k","0.537325900048018",1,8,0,2,0
"250004","img/neutralC/CFD-BM-205-001-N.jpg","0","k","0.660037499968894",1,8,0,2,0
"250004","img/neutralC/CFD-MF-352-054-N.jpg","1","k","0.79098030005116",1,8,0,2,0
"250004","img/neutralC/CFD-BF-011-002-N.jpg","0","s","1.57367129996419",1,8,0,2,0
"250004","img/neutralC/CFD-MM-324-069-N.jpg","0","k","0.673125300032552",1,8,0,2,0
"250004","img/neutralC/CFD-AF-234-208-N.jpg","1","s","1.05692649999401",1,8,0,2,0
"250004","img/neutralC/CFD-BF-235-168-N.jpg","1","s","0.934660699975211",1,8,0,2,0
"250004","img/neutralC/CFD-LM-228-188-N.jpg","0","s","0.627618499973323",1,8,0,2,0
"250004","img/neutralC/CFD-BM-043-071-N.jpg","1","k","0.660117099992931",1,8,0,2,0
"250004","img/neutralC/CFD-BF-023-010-N.jpg","0","s","0.612636199977715",1,8,0,2,0
"250004","img/neutralC/CFD-IF-619-197-N.jpg","0","s","0.9572002000059",1,8,0,2,0
"250004","img/neutralC/CFD-IM-686-097-N.jpg","1","s","0.702091399987694",1,8,0,2,0
"250004","img/neutralC/CFD-MF-333-012-N.jpg","0","k","0.574106400017627",1,8,0,2,0
"250004","img/neutralC/CFD-WF-017-003-N.jpg","0","k","0.975533700024243",1,8,0,2,0
"250004","img/neutralC/CFD-WM-011-002-N.jpg","1","k","2.11265490000369",1,8,0,2,0
"250004","img/neutralC/CFD-WM-235-147-N.jpg","1","s","1.09336410003016",1,8,0,2,0
"250004","img/neutralC/CFD-BF-229-179-N.jpg","0","s","0.845962999970652",1,8,0,2,0
"250004","img/neutralC/CFD-BF-204-189-N.jpg","1","s","2.55954629997723",1,8,0,2,0
"250004","img/neutralC/CFD-BM-041-035-N.jpg","1","s","0.778133900021203",1,8,0,2,0
"250004","img/neutralC/CFD-IM-645-001-N.jpg","1","k","1.08574789995328",1,8,0,2,0
