"participant_id","current_trial_face","pre_trial_face","post_trial_face","current_trial_accuracy","pre_trial_accuracy","post_trial_accuracy","current_trial_congruency","pre_trial_congruency","post_trial_congruency","current_trial_rt","pre_trial_rt","post_trial_rt","current_trial_responded","pre_trial_responded","post_trial_responded","current_trial_legitResponse","pre_trial_legitResponse","post_trial_legitResponse","current_trial_resp_nums","pre_trial_resp_nums","post_trial_resp_nums"
"250047","img/neutralC/CFD-IF-634-382-N.jpg",NA,"img/neutralC/CFD-WF-224-099-N.jpg","1",NA,"1","1",NA,"0","0.558001900091767",NA,"0.596116000087932","1",NA,"1","1",NA,"1","1",NA,"1"
"250047","img/neutralC/CFD-WF-224-099-N.jpg","img/neutralC/CFD-IF-634-382-N.jpg","img/neutralC/CFD-BF-253-202-N.jpg","1","1","1","0","1","0","0.596116000087932","0.558001900091767","0.657686499878764","1","1","1","1","1","1","1","1","1"
"250047","img/neutralC/CFD-BF-253-202-N.jpg","img/neutralC/CFD-WF-224-099-N.jpg","img/neutralC/CFD-IM-651-308-N.jpg","1","1","1","0","0","0","0.657686499878764","0.596116000087932","0.500926400069147","1","1","1","1","1","1","1","1","1"
"250047","img/neutralC/CFD-IM-651-308-N.jpg","img/neutralC/CFD-BF-253-202-N.jpg","img/neutralC/CFD-BF-039-031-N.jpg","1","1","1","0","0","1","0.500926400069147","0.657686499878764","0.482977399835363","1","1","1","1","1","1","1","1","1"
"250047","img/neutralC/CFD-BF-039-031-N.jpg","img/neutralC/CFD-IM-651-308-N.jpg","img/neutralC/CFD-LM-218-183-N.jpg","1","1","1","1","0","1","0.482977399835363","0.500926400069147","0.420079899951816","1","1","1","1","1","1","1","1","1"
"250047","img/neutralC/CFD-LM-218-183-N.jpg","img/neutralC/CFD-BF-039-031-N.jpg","img/neutralC/CFD-WF-213-031-N.jpg","1","1","1","1","1","1","0.420079899951816","0.482977399835363","0.480205200146884","1","1","1","1","1","1","1","1","1"
"250047","img/neutralC/CFD-WF-213-031-N.jpg","img/neutralC/CFD-LM-218-183-N.jpg","img/neutralC/CFD-MF-337-026-N.jpg","1","1","1","1","1","1","0.480205200146884","0.420079899951816","0.376453300006688","1","1","1","1","1","1","1","1","1"
"250047","img/neutralC/CFD-MF-337-026-N.jpg","img/neutralC/CFD-WF-213-031-N.jpg","img/neutralC/CFD-IF-710-016-N.jpg","1","1","1","1","1","0","0.376453300006688","0.480205200146884","0.564087700098753","1","1","1","1","1","1","1","1","1"
"250047","img/neutralC/CFD-IF-710-016-N.jpg","img/neutralC/CFD-MF-337-026-N.jpg","img/neutralC/CFD-BF-213-188-N.jpg","1","1","1","0","1","1","0.564087700098753","0.376453300006688","0.491870699916035","1","1","1","1","1","1","1","1","1"
"250047","img/neutralC/CFD-BF-213-188-N.jpg","img/neutralC/CFD-IF-710-016-N.jpg","img/neutralC/CFD-LM-215-247-N.jpg","1","1","1","1","0","0","0.491870699916035","0.564087700098753","0.522689600009471","1","1","1","1","1","1","1","1","1"
"250047","img/neutralC/CFD-LM-215-247-N.jpg","img/neutralC/CFD-BF-213-188-N.jpg","img/neutralC/CFD-IF-693-172-N.jpg","1","1","0","0","1","0","0.522689600009471","0.491870699916035","0.488740699831396","1","1","1","1","1","1","1","1","1"
"250047","img/neutralC/CFD-IF-693-172-N.jpg","img/neutralC/CFD-LM-215-247-N.jpg","img/neutralC/CFD-LF-205-100-N.jpg","0","1","1","0","0","1","0.488740699831396","0.522689600009471","0.621440000133589","1","1","1","1","1","1","1","1","1"
"250047","img/neutralC/CFD-LF-205-100-N.jpg","img/neutralC/CFD-IF-693-172-N.jpg","img/neutralC/CFD-BM-019-002-N.jpg","1","0","1","1","0","0","0.621440000133589","0.488740699831396","0.436159599805251","1","1","1","1","1","1","1","1","1"
"250047","img/neutralC/CFD-BM-019-002-N.jpg","img/neutralC/CFD-LF-205-100-N.jpg","img/neutralC/CFD-WM-011-002-N.jpg","1","1","0","0","1","0","0.436159599805251","0.621440000133589","0.582128300098702","1","1","1","1","1","1","1","1","1"
"250047","img/neutralC/CFD-WM-011-002-N.jpg","img/neutralC/CFD-BM-019-002-N.jpg","img/neutralC/CFD-LF-230-203-N.jpg","0","1","1","0","0","0","0.582128300098702","0.436159599805251","0.659160000039265","1","1","1","1","1","1","1","1","1"
"250047","img/neutralC/CFD-LF-230-203-N.jpg","img/neutralC/CFD-WM-011-002-N.jpg","img/neutralC/CFD-WM-021-001-N.jpg","1","0","1","0","0","1","0.659160000039265","0.582128300098702","0.394493100000545","1","1","1","1","1","1","1","1","1"
"250047","img/neutralC/CFD-WM-021-001-N.jpg","img/neutralC/CFD-LF-230-203-N.jpg","img/neutralC/CFD-LF-224-176-N.jpg","1","1","1","1","0","0","0.394493100000545","0.659160000039265","0.592369799967855","1","1","1","1","1","1","1","1","1"
"250047","img/neutralC/CFD-LF-224-176-N.jpg","img/neutralC/CFD-WM-021-001-N.jpg","img/neutralC/CFD-AM-201-076-N.jpg","1","1","1","0","1","1","0.592369799967855","0.394493100000545","0.567705699941143","1","1","1","1","1","1","1","1","1"
"250047","img/neutralC/CFD-AM-201-076-N.jpg","img/neutralC/CFD-LF-224-176-N.jpg","img/neutralC/CFD-WF-250-167-N.jpg","1","1","1","1","0","1","0.567705699941143","0.592369799967855","0.488700499990955","1","1","1","1","1","1","1","1","1"
"250047","img/neutralC/CFD-WF-250-167-N.jpg","img/neutralC/CFD-AM-201-076-N.jpg","img/neutralC/CFD-LF-214-090-N.jpg","1","1","1","1","1","0","0.488700499990955","0.567705699941143","0.587786399992183","1","1","1","1","1","1","1","1","1"
"250047","img/neutralC/CFD-LF-214-090-N.jpg","img/neutralC/CFD-WF-250-167-N.jpg","img/neutralC/CFD-MM-316-156-N.jpg","1","1","1","0","1","1","0.587786399992183","0.488700499990955","0.435320799937472","1","1","1","1","1","1","1","1","1"
"250047","img/neutralC/CFD-MM-316-156-N.jpg","img/neutralC/CFD-LF-214-090-N.jpg","img/neutralC/CFD-IM-684-008-N.jpg","1","1","1","1","0","1","0.435320799937472","0.587786399992183","0.521788300015032","1","1","1","1","1","1","1","1","1"
"250047","img/neutralC/CFD-IM-684-008-N.jpg","img/neutralC/CFD-MM-316-156-N.jpg","img/neutralC/CFD-BF-029-031-N.jpg","1","1","1","1","1","1","0.521788300015032","0.435320799937472","0.441309199901298","1","1","1","1","1","1","1","1","1"
"250047","img/neutralC/CFD-BF-029-031-N.jpg","img/neutralC/CFD-IM-684-008-N.jpg","img/neutralC/CFD-BM-041-035-N.jpg","1","1","1","1","1","0","0.441309199901298","0.521788300015032","0.462215800071135","1","1","1","1","1","1","1","1","1"
"250047","img/neutralC/CFD-BM-041-035-N.jpg","img/neutralC/CFD-BF-029-031-N.jpg","img/neutralC/CFD-BM-239-136-N.jpg","1","1","1","0","1","1","0.462215800071135","0.441309199901298","0.476360300090164","1","1","1","1","1","1","1","1","1"
"250047","img/neutralC/CFD-BM-239-136-N.jpg","img/neutralC/CFD-BM-041-035-N.jpg","img/neutralC/CFD-LF-203-066-N.jpg","1","1","0","1","0","0","0.476360300090164","0.462215800071135","0.914674200117588","1","1","1","1","1","1","1","1","1"
"250047","img/neutralC/CFD-LF-203-066-N.jpg","img/neutralC/CFD-BM-239-136-N.jpg","img/neutralC/CFD-AM-212-050-N.jpg","0","1","1","0","1","1","0.914674200117588","0.476360300090164","0.469586499966681","1","1","1","1","1","1","1","1","1"
"250047","img/neutralC/CFD-AM-212-050-N.jpg","img/neutralC/CFD-LF-203-066-N.jpg","img/neutralC/CFD-AF-231-357-N.jpg","1","0","1","1","0","1","0.469586499966681","0.914674200117588","0.397617199923843","1","1","1","1","1","1","1","1","1"
"250047","img/neutralC/CFD-AF-231-357-N.jpg","img/neutralC/CFD-AM-212-050-N.jpg","img/neutralC/CFD-BF-205-141-N.jpg","1","1","1","1","1","0","0.397617199923843","0.469586499966681","0.506081399973482","1","1","1","1","1","1","1","1","1"
"250047","img/neutralC/CFD-BF-205-141-N.jpg","img/neutralC/CFD-AF-231-357-N.jpg","img/neutralC/CFD-BM-033-003-N.jpg","1","1","1","0","1","0","0.506081399973482","0.397617199923843","0.51084419991821","1","1","1","1","1","1","1","1","1"
"250047","img/neutralC/CFD-BM-033-003-N.jpg","img/neutralC/CFD-BF-205-141-N.jpg","img/neutralC/CFD-WM-041-021-N.jpg","1","1","1","0","0","0","0.51084419991821","0.506081399973482","0.474585399962962","1","1","1","1","1","1","1","1","1"
"250047","img/neutralC/CFD-WM-041-021-N.jpg","img/neutralC/CFD-BM-033-003-N.jpg",NA,"1","1",NA,"0","0",NA,"0.474585399962962","0.51084419991821",NA,"1","1",NA,"1","1",NA,"1","1",NA
"250047","img/neutralC/CFD-BM-036-003-N.jpg",NA,"img/neutralC/CFD-BF-011-002-N.jpg","1",NA,"1","1",NA,"1","0.463929899968207",NA,"0.433493700111285","1",NA,"1","1",NA,"1","1",NA,"1"
"250047","img/neutralC/CFD-BF-011-002-N.jpg","img/neutralC/CFD-BM-036-003-N.jpg","img/neutralC/CFD-WM-014-002-N.jpg","1","1","1","1","1","0","0.433493700111285","0.463929899968207","0.489952199859545","1","1","1","1","1","1","1","1","1"
"250047","img/neutralC/CFD-WM-014-002-N.jpg","img/neutralC/CFD-BF-011-002-N.jpg","img/neutralC/CFD-WF-208-068-N.jpg","1","1","1","0","1","1","0.489952199859545","0.433493700111285","0.387619800167158","1","1","1","1","1","1","1","1","1"
"250047","img/neutralC/CFD-WF-208-068-N.jpg","img/neutralC/CFD-WM-014-002-N.jpg","img/neutralC/CFD-IM-726-248-N.jpg","1","1","0","1","0","0","0.387619800167158","0.489952199859545","0.314016900025308","1","1","1","1","1","1","1","1","1"
"250047","img/neutralC/CFD-IM-726-248-N.jpg","img/neutralC/CFD-WF-208-068-N.jpg","img/neutralC/CFD-WM-248-036-N.jpg","0","1","1","0","1","1","0.314016900025308","0.387619800167158","0.476502900011837","1","1","1","1","1","1","1","1","1"
"250047","img/neutralC/CFD-WM-248-036-N.jpg","img/neutralC/CFD-IM-726-248-N.jpg","img/neutralC/CFD-IF-729-393-N.jpg","1","0","1","1","0","0","0.476502900011837","0.314016900025308","0.444407199975103","1","1","1","1","1","1","1","1","1"
"250047","img/neutralC/CFD-IF-729-393-N.jpg","img/neutralC/CFD-WM-248-036-N.jpg","img/neutralC/CFD-BM-241-235-N.jpg","1","1","1","0","1","0","0.444407199975103","0.476502900011837","0.466825400013477","1","1","1","1","1","1","1","1","1"
"250047","img/neutralC/CFD-BM-241-235-N.jpg","img/neutralC/CFD-IF-729-393-N.jpg","img/neutralC/CFD-BF-044-034-N.jpg","1","1","1","0","0","0","0.466825400013477","0.444407199975103","0.429853499867022","1","1","1","1","1","1","1","1","1"
"250047","img/neutralC/CFD-BF-044-034-N.jpg","img/neutralC/CFD-BM-241-235-N.jpg","img/neutralC/CFD-BF-207-004-N.jpg","1","1","1","0","0","1","0.429853499867022","0.466825400013477","0.36160649987869","1","1","1","1","1","1","1","1","1"
"250047","img/neutralC/CFD-BF-207-004-N.jpg","img/neutralC/CFD-BF-044-034-N.jpg","img/neutralC/CFD-BF-002-001-N.jpg","1","1","0","1","0","0","0.36160649987869","0.429853499867022","0.452134700026363","1","1","1","1","1","1","1","1","1"
"250047","img/neutralC/CFD-BF-002-001-N.jpg","img/neutralC/CFD-BF-207-004-N.jpg","img/neutralC/CFD-IF-742-103-N.jpg","0","1","1","0","1","1","0.452134700026363","0.36160649987869","0.473140099784359","1","1","1","1","1","1","1","1","1"
"250047","img/neutralC/CFD-IF-742-103-N.jpg","img/neutralC/CFD-BF-002-001-N.jpg","img/neutralC/CFD-BF-036-027-N.jpg","1","0","1","1","0","0","0.473140099784359","0.452134700026363","0.507525300141424","1","1","1","1","1","1","1","1","1"
"250047","img/neutralC/CFD-BF-036-027-N.jpg","img/neutralC/CFD-IF-742-103-N.jpg","img/neutralC/CFD-BF-214-308-N.jpg","1","1","1","0","1","1","0.507525300141424","0.473140099784359","0.461357299936935","1","1","1","1","1","1","1","1","1"
"250047","img/neutralC/CFD-BF-214-308-N.jpg","img/neutralC/CFD-BF-036-027-N.jpg","img/neutralC/CFD-BF-006-017-N.jpg","1","1","1","1","0","0","0.461357299936935","0.507525300141424","0.44001720007509","1","1","1","1","1","1","1","1","1"
"250047","img/neutralC/CFD-BF-006-017-N.jpg","img/neutralC/CFD-BF-214-308-N.jpg","img/neutralC/CFD-BF-027-002-N.jpg","1","1","1","0","1","1","0.44001720007509","0.461357299936935","0.40047729993239","1","1","1","1","1","1","1","1","1"
"250047","img/neutralC/CFD-BF-027-002-N.jpg","img/neutralC/CFD-BF-006-017-N.jpg","img/neutralC/CFD-LM-213-061-N.jpg","1","1","1","1","0","0","0.40047729993239","0.44001720007509","0.509186000097543","1","1","1","1","1","1","1","1","1"
"250047","img/neutralC/CFD-LM-213-061-N.jpg","img/neutralC/CFD-BF-027-002-N.jpg","img/neutralC/CFD-IM-696-001-N.jpg","1","1","1","0","1","0","0.509186000097543","0.40047729993239","0.530813100049272","1","1","1","1","1","1","1","1","1"
"250047","img/neutralC/CFD-IM-696-001-N.jpg","img/neutralC/CFD-LM-213-061-N.jpg","img/neutralC/CFD-WM-034-030-N.jpg","1","1","1","0","0","1","0.530813100049272","0.509186000097543","0.404894599923864","1","1","1","1","1","1","1","1","1"
"250047","img/neutralC/CFD-WM-034-030-N.jpg","img/neutralC/CFD-IM-696-001-N.jpg","img/neutralC/CFD-WF-029-002-N.jpg","1","1","1","1","0","0","0.404894599923864","0.530813100049272","0.511565800057724","1","1","1","1","1","1","1","1","1"
"250047","img/neutralC/CFD-WF-029-002-N.jpg","img/neutralC/CFD-WM-034-030-N.jpg","img/neutralC/CFD-LF-204-133-N.jpg","1","1","1","0","1","1","0.511565800057724","0.404894599923864","0.416908200131729","1","1","1","1","1","1","1","1","1"
"250047","img/neutralC/CFD-LF-204-133-N.jpg","img/neutralC/CFD-WF-029-002-N.jpg","img/neutralC/CFD-AM-230-150-N.jpg","1","1","1","1","0","0","0.416908200131729","0.511565800057724","0.364621999906376","1","1","1","1","1","1","1","1","1"
"250047","img/neutralC/CFD-AM-230-150-N.jpg","img/neutralC/CFD-LF-204-133-N.jpg","img/neutralC/CFD-MF-301-024-N.jpg","1","1","1","0","1","0","0.364621999906376","0.416908200131729","0.403074499918148","1","1","1","1","1","1","1","1","1"
"250047","img/neutralC/CFD-MF-301-024-N.jpg","img/neutralC/CFD-AM-230-150-N.jpg","img/neutralC/CFD-IF-677-452-1-N.jpg","1","1","1","0","0","1","0.403074499918148","0.364621999906376","0.338290599873289","1","1","1","1","1","1","1","1","1"
"250047","img/neutralC/CFD-IF-677-452-1-N.jpg","img/neutralC/CFD-MF-301-024-N.jpg","img/neutralC/CFD-WF-233-112-N.jpg","1","1","1","1","0","1","0.338290599873289","0.403074499918148","0.550127699971199","1","1","1","1","1","1","1","1","1"
"250047","img/neutralC/CFD-WF-233-112-N.jpg","img/neutralC/CFD-IF-677-452-1-N.jpg","img/neutralC/CFD-IM-707-105-N.jpg","1","1","1","1","1","1","0.550127699971199","0.338290599873289","0.405172500060871","1","1","1","1","1","1","1","1","1"
"250047","img/neutralC/CFD-IM-707-105-N.jpg","img/neutralC/CFD-WF-233-112-N.jpg","img/neutralC/CFD-WF-234-086-N.jpg","1","1","0","1","1","1","0.405172500060871","0.550127699971199","0.347624399932101","1","1","1","1","1","1","1","1","1"
"250047","img/neutralC/CFD-WF-234-086-N.jpg","img/neutralC/CFD-IM-707-105-N.jpg","img/neutralC/CFD-IM-721-341-N.jpg","0","1","1","1","1","1","0.347624399932101","0.405172500060871","0.407919799908996","1","1","1","1","1","1","1","1","1"
"250047","img/neutralC/CFD-IM-721-341-N.jpg","img/neutralC/CFD-WF-234-086-N.jpg","img/neutralC/CFD-BF-247-179-N.jpg","1","0","1","1","1","0","0.407919799908996","0.347624399932101","0.410661400062963","1","1","1","1","1","1","1","1","1"
"250047","img/neutralC/CFD-BF-247-179-N.jpg","img/neutralC/CFD-IM-721-341-N.jpg","img/neutralC/CFD-BM-207-024-N.jpg","1","1","1","0","1","1","0.410661400062963","0.407919799908996","0.439333199989051","1","1","1","1","1","1","1","1","1"
"250047","img/neutralC/CFD-BM-207-024-N.jpg","img/neutralC/CFD-BF-247-179-N.jpg","img/neutralC/CFD-BM-238-242-N.jpg","1","1","1","1","0","0","0.439333199989051","0.410661400062963","0.318931000074372","1","1","1","1","1","1","1","1","1"
"250047","img/neutralC/CFD-BM-238-242-N.jpg","img/neutralC/CFD-BM-207-024-N.jpg","img/neutralC/CFD-BF-236-177-N.jpg","1","1","0","0","1","0","0.318931000074372","0.439333199989051","0.346490100026131","1","1","1","1","1","1","1","1","1"
"250047","img/neutralC/CFD-BF-236-177-N.jpg","img/neutralC/CFD-BM-238-242-N.jpg",NA,"0","1",NA,"0","0",NA,"0.346490100026131","0.318931000074372",NA,"1","1",NA,"1","1",NA,"1","1",NA
"250047","img/neutralC/CFD-AF-206-079-N.jpg",NA,"img/neutralC/CFD-WF-209-052-N.jpg","1",NA,"1","1",NA,"1","0.557074300013483",NA,"0.359214800177142","1",NA,"1","1",NA,"1","1",NA,"1"
"250047","img/neutralC/CFD-WF-209-052-N.jpg","img/neutralC/CFD-AF-206-079-N.jpg","img/neutralC/CFD-IF-665-015-N.jpg","1","1","0","1","1","0","0.359214800177142","0.557074300013483","0.484918899834156","1","1","1","1","1","1","1","1","1"
"250047","img/neutralC/CFD-IF-665-015-N.jpg","img/neutralC/CFD-WF-209-052-N.jpg","img/neutralC/CFD-BF-033-028-N.jpg","0","1","1","0","1","0","0.484918899834156","0.359214800177142","0.366386499954388","1","1","1","1","1","1","1","1","1"
"250047","img/neutralC/CFD-BF-033-028-N.jpg","img/neutralC/CFD-IF-665-015-N.jpg","img/neutralC/CFD-IM-686-097-N.jpg","1","0","1","0","0","0","0.366386499954388","0.484918899834156","0.549848299939185","1","1","1","1","1","1","1","1","1"
"250047","img/neutralC/CFD-IM-686-097-N.jpg","img/neutralC/CFD-BF-033-028-N.jpg","img/neutralC/CFD-IM-657-308-N.jpg","1","1","1","0","0","0","0.549848299939185","0.366386499954388","0.332930099917576","1","1","1","1","1","1","1","1","1"
"250047","img/neutralC/CFD-IM-657-308-N.jpg","img/neutralC/CFD-IM-686-097-N.jpg","img/neutralC/CFD-WM-227-099-N.jpg","1","1","1","0","0","1","0.332930099917576","0.549848299939185","0.395598400151357","1","1","1","1","1","1","1","1","1"
"250047","img/neutralC/CFD-WM-227-099-N.jpg","img/neutralC/CFD-IM-657-308-N.jpg","img/neutralC/CFD-LM-219-295-N.jpg","1","1","1","1","0","1","0.395598400151357","0.332930099917576","0.379384400090203","1","1","1","1","1","1","1","1","1"
"250047","img/neutralC/CFD-LM-219-295-N.jpg","img/neutralC/CFD-WM-227-099-N.jpg","img/neutralC/CFD-LF-247-051-N.jpg","1","1","1","1","1","1","0.379384400090203","0.395598400151357","0.448528399923816","1","1","1","1","1","1","1","1","1"
"250047","img/neutralC/CFD-LF-247-051-N.jpg","img/neutralC/CFD-LM-219-295-N.jpg","img/neutralC/CFD-IF-620-218-N.jpg","1","1","0","1","1","0","0.448528399923816","0.379384400090203","0.323892599903047","1","1","1","1","1","1","1","1","1"
"250047","img/neutralC/CFD-IF-620-218-N.jpg","img/neutralC/CFD-LF-247-051-N.jpg","img/neutralC/CFD-BM-005-003-N.jpg","0","1","1","0","1","1","0.323892599903047","0.448528399923816","0.503294699825346","1","1","1","1","1","1","1","1","1"
"250047","img/neutralC/CFD-BM-005-003-N.jpg","img/neutralC/CFD-IF-620-218-N.jpg","img/neutralC/CFD-WM-017-002-N.jpg","1","0","1","1","0","0","0.503294699825346","0.323892599903047","0.570013299817219","1","1","1","1","1","1","1","1","1"
"250047","img/neutralC/CFD-WM-017-002-N.jpg","img/neutralC/CFD-BM-005-003-N.jpg","img/neutralC/CFD-BM-018-001-N.jpg","1","1","1","0","1","1","0.570013299817219","0.503294699825346","0.380533599993214","1","1","1","1","1","1","1","1","1"
"250047","img/neutralC/CFD-BM-018-001-N.jpg","img/neutralC/CFD-WM-017-002-N.jpg","img/neutralC/CFD-MF-313-002-N.jpg","1","1","1","1","0","0","0.380533599993214","0.570013299817219","0.491993200033903","1","1","1","1","1","1","1","1","1"
"250047","img/neutralC/CFD-MF-313-002-N.jpg","img/neutralC/CFD-BM-018-001-N.jpg","img/neutralC/CFD-LF-245-166-N.jpg","1","1","1","0","1","1","0.491993200033903","0.380533599993214","0.434321699896827","1","1","1","1","1","1","1","1","1"
"250047","img/neutralC/CFD-LF-245-166-N.jpg","img/neutralC/CFD-MF-313-002-N.jpg","img/neutralC/CFD-WM-258-125-N.jpg","1","1","1","1","0","0","0.434321699896827","0.491993200033903","0.356246700044721","1","1","1","1","1","1","1","1","1"
"250047","img/neutralC/CFD-WM-258-125-N.jpg","img/neutralC/CFD-LF-245-166-N.jpg","img/neutralC/CFD-BM-231-155-N.jpg","1","1","1","0","1","1","0.356246700044721","0.434321699896827","0.37976699997671","1","1","1","1","1","1","1","1","1"
"250047","img/neutralC/CFD-BM-231-155-N.jpg","img/neutralC/CFD-WM-258-125-N.jpg","img/neutralC/CFD-BM-212-117-N.jpg","1","1","1","1","0","0","0.37976699997671","0.356246700044721","0.436015400104225","1","1","1","1","1","1","1","1","1"
"250047","img/neutralC/CFD-BM-212-117-N.jpg","img/neutralC/CFD-BM-231-155-N.jpg","img/neutralC/CFD-BM-026-002-N.jpg","1","1","0","0","1","0","0.436015400104225","0.37976699997671","0.421264400007203","1","1","1","1","1","1","1","1","1"
"250047","img/neutralC/CFD-BM-026-002-N.jpg","img/neutralC/CFD-BM-212-117-N.jpg","img/neutralC/CFD-BF-010-001-N.jpg","0","1","1","0","0","1","0.421264400007203","0.436015400104225","0.391291900072247","1","1","1","1","1","1","1","1","1"
"250047","img/neutralC/CFD-BF-010-001-N.jpg","img/neutralC/CFD-BM-026-002-N.jpg","img/neutralC/CFD-LF-242-121-N.jpg","1","0","1","1","0","0","0.391291900072247","0.421264400007203","0.489176500122994","1","1","1","1","1","1","1","1","1"
"250047","img/neutralC/CFD-LF-242-121-N.jpg","img/neutralC/CFD-BF-010-001-N.jpg","img/neutralC/CFD-IM-617-174-N.jpg","1","1","0","0","1","0","0.489176500122994","0.391291900072247","0.864720699843019","1","1","1","1","1","1","1","1","1"
"250047","img/neutralC/CFD-IM-617-174-N.jpg","img/neutralC/CFD-LF-242-121-N.jpg","img/neutralC/CFD-BF-238-190-N.jpg","0","1","1","0","0","1","0.864720699843019","0.489176500122994","0.415145999984816","1","1","1","1","1","1","1","1","1"
"250047","img/neutralC/CFD-BF-238-190-N.jpg","img/neutralC/CFD-IM-617-174-N.jpg","img/neutralC/CFD-IM-727-195-N.jpg","1","0","1","1","0","1","0.415145999984816","0.864720699843019","0.433762700064108","1","1","1","1","1","1","1","1","1"
"250047","img/neutralC/CFD-IM-727-195-N.jpg","img/neutralC/CFD-BF-238-190-N.jpg","img/neutralC/CFD-AF-202-122-N.jpg","1","1","1","1","1","1","0.433762700064108","0.415145999984816","0.378719700034708","1","1","1","1","1","1","1","1","1"
"250047","img/neutralC/CFD-AF-202-122-N.jpg","img/neutralC/CFD-IM-727-195-N.jpg","img/neutralC/CFD-LM-233-171-N.jpg","1","1","1","1","1","0","0.378719700034708","0.433762700064108","0.427029399899766","1","1","1","1","1","1","1","1","1"
"250047","img/neutralC/CFD-LM-233-171-N.jpg","img/neutralC/CFD-AF-202-122-N.jpg","img/neutralC/CFD-LF-250-169-N.jpg","1","1","1","0","1","1","0.427029399899766","0.378719700034708","0.307243400020525","1","1","1","1","1","1","1","1","1"
"250047","img/neutralC/CFD-LF-250-169-N.jpg","img/neutralC/CFD-LM-233-171-N.jpg","img/neutralC/CFD-IM-653-008-N.jpg","1","1","0","1","0","0","0.307243400020525","0.427029399899766","0.455656499834731","1","1","1","1","1","1","1","1","1"
"250047","img/neutralC/CFD-IM-653-008-N.jpg","img/neutralC/CFD-LF-250-169-N.jpg","img/neutralC/CFD-WM-242-011-N.jpg","0","1","1","0","1","0","0.455656499834731","0.307243400020525","0.474281699862331","1","1","1","1","1","1","1","1","1"
"250047","img/neutralC/CFD-WM-242-011-N.jpg","img/neutralC/CFD-IM-653-008-N.jpg","img/neutralC/CFD-IM-638-250-1-N.jpg","1","0","1","0","0","1","0.474281699862331","0.455656499834731","0.338999299798161","1","1","1","1","1","1","1","1","1"
"250047","img/neutralC/CFD-IM-638-250-1-N.jpg","img/neutralC/CFD-WM-242-011-N.jpg","img/neutralC/CFD-AF-241-141-N.jpg","1","1","1","1","0","1","0.338999299798161","0.474281699862331","0.398167700041085","1","1","1","1","1","1","1","1","1"
"250047","img/neutralC/CFD-AF-241-141-N.jpg","img/neutralC/CFD-IM-638-250-1-N.jpg","img/neutralC/CFD-LM-226-175-N.jpg","1","1","1","1","1","0","0.398167700041085","0.338999299798161","0.45690290001221","1","1","1","1","1","1","1","1","1"
"250047","img/neutralC/CFD-LM-226-175-N.jpg","img/neutralC/CFD-AF-241-141-N.jpg",NA,"1","1",NA,"0","1",NA,"0.45690290001221","0.398167700041085",NA,"1","1",NA,"1","1",NA,"1","1",NA
"250047","img/neutralC/CFD-MF-340-026-N.jpg",NA,"img/neutralC/CFD-BM-243-218-N.jpg","1",NA,"1","1",NA,"1","0.982682599918917",NA,"0.507306799991056","1",NA,"1","1",NA,"1","1",NA,"1"
"250047","img/neutralC/CFD-BM-243-218-N.jpg","img/neutralC/CFD-MF-340-026-N.jpg","img/neutralC/CFD-BM-039-029-N.jpg","1","1","1","1","1","1","0.507306799991056","0.982682599918917","0.393585599958897","1","1","1","1","1","1","1","1","1"
"250047","img/neutralC/CFD-BM-039-029-N.jpg","img/neutralC/CFD-BM-243-218-N.jpg","img/neutralC/CFD-LF-201-035-N.jpg","1","1","1","1","1","1","0.393585599958897","0.507306799991056","0.452094000065699","1","1","1","1","1","1","1","1","1"
"250047","img/neutralC/CFD-LF-201-035-N.jpg","img/neutralC/CFD-BM-039-029-N.jpg","img/neutralC/CFD-LF-226-174-N.jpg","1","1","1","1","1","0","0.452094000065699","0.393585599958897","0.410561800003052","1","1","1","1","1","1","1","1","1"
"250047","img/neutralC/CFD-LF-226-174-N.jpg","img/neutralC/CFD-LF-201-035-N.jpg","img/neutralC/CFD-IM-709-103-N.jpg","1","1","0","0","1","0","0.410561800003052","0.452094000065699","0.434081300161779","1","1","1","1","1","1","1","1","1"
"250047","img/neutralC/CFD-IM-709-103-N.jpg","img/neutralC/CFD-LF-226-174-N.jpg","img/neutralC/CFD-IM-637-007-N.jpg","0","1","0","0","0","0","0.434081300161779","0.410561800003052","0.435999399982393","1","1","1","1","1","1","1","1","1"
"250047","img/neutralC/CFD-IM-637-007-N.jpg","img/neutralC/CFD-IM-709-103-N.jpg","img/neutralC/CFD-AF-215-70-N.jpg","0","0","0","0","0","0","0.435999399982393","0.434081300161779","0.392421199940145","1","1","1","1","1","1","1","1","1"
"250047","img/neutralC/CFD-AF-215-70-N.jpg","img/neutralC/CFD-IM-637-007-N.jpg","img/neutralC/CFD-IF-619-197-N.jpg","0","0","1","0","0","0","0.392421199940145","0.435999399982393","0.468669099966064","1","1","1","1","1","1","1","1","1"
"250047","img/neutralC/CFD-IF-619-197-N.jpg","img/neutralC/CFD-AF-215-70-N.jpg","img/neutralC/CFD-WF-008-002-N.jpg","1","0","1","0","0","1","0.468669099966064","0.392421199940145","0.366326100192964","1","1","1","1","1","1","1","1","1"
"250047","img/neutralC/CFD-WF-008-002-N.jpg","img/neutralC/CFD-IF-619-197-N.jpg","img/neutralC/CFD-BF-224-002-N.jpg","1","1","1","1","0","1","0.366326100192964","0.468669099966064","0.407377299852669","1","1","1","1","1","1","1","1","1"
"250047","img/neutralC/CFD-BF-224-002-N.jpg","img/neutralC/CFD-WF-008-002-N.jpg","img/neutralC/CFD-AM-236-090-N.jpg","1","1","1","1","1","1","0.407377299852669","0.366326100192964","0.377597199985758","1","1","1","1","1","1","1","1","1"
"250047","img/neutralC/CFD-AM-236-090-N.jpg","img/neutralC/CFD-BF-224-002-N.jpg","img/neutralC/CFD-AF-254-167-N.jpg","1","1","1","1","1","1","0.377597199985758","0.407377299852669","0.34297510003671","1","1","1","1","1","1","1","1","1"
"250047","img/neutralC/CFD-AF-254-167-N.jpg","img/neutralC/CFD-AM-236-090-N.jpg","img/neutralC/CFD-AF-229-160-N.jpg","1","1","1","1","1","0","0.34297510003671","0.377597199985758","0.424294299911708","1","1","1","1","1","1","1","1","1"
"250047","img/neutralC/CFD-AF-229-160-N.jpg","img/neutralC/CFD-AF-254-167-N.jpg","img/neutralC/CFD-WM-232-070-N.jpg","1","1","1","0","1","0","0.424294299911708","0.34297510003671","0.363279700046405","1","1","1","1","1","1","1","1","1"
"250047","img/neutralC/CFD-WM-232-070-N.jpg","img/neutralC/CFD-AF-229-160-N.jpg","img/neutralC/CFD-IF-608-390-N.jpg","1","1","1","0","0","1","0.363279700046405","0.424294299911708","0.441229599993676","1","1","1","1","1","1","1","1","1"
"250047","img/neutralC/CFD-IF-608-390-N.jpg","img/neutralC/CFD-WM-232-070-N.jpg","img/neutralC/CFD-IM-685-004-N.jpg","1","1","1","1","0","1","0.441229599993676","0.363279700046405","0.448782599996775","1","1","1","1","1","1","1","1","1"
"250047","img/neutralC/CFD-IM-685-004-N.jpg","img/neutralC/CFD-IF-608-390-N.jpg","img/neutralC/CFD-MF-300-002-N.jpg","1","1","1","1","1","0","0.448782599996775","0.441229599993676","0.7447547998745","1","1","1","1","1","1","1","1","1"
"250047","img/neutralC/CFD-MF-300-002-N.jpg","img/neutralC/CFD-IM-685-004-N.jpg","img/neutralC/CFD-BF-051-035-N.jpg","1","1","1","0","1","0","0.7447547998745","0.448782599996775","0.612574699800462","1","1","1","1","1","1","1","1","1"
"250047","img/neutralC/CFD-BF-051-035-N.jpg","img/neutralC/CFD-MF-300-002-N.jpg","img/neutralC/CFD-MM-304-002-N.jpg","1","1","0","0","0","1","0.612574699800462","0.7447547998745","0.357218899996951","1","1","1","1","1","1","1","1","1"
"250047","img/neutralC/CFD-MM-304-002-N.jpg","img/neutralC/CFD-BF-051-035-N.jpg","img/neutralC/CFD-MF-327-002-N.jpg","0","1","0","1","0","0","0.357218899996951","0.612574699800462","0.450475000077859","1","1","1","1","1","1","1","1","1"
"250047","img/neutralC/CFD-MF-327-002-N.jpg","img/neutralC/CFD-MM-304-002-N.jpg","img/neutralC/CFD-IM-604-014-N.jpg","0","0","1","0","1","0","0.450475000077859","0.357218899996951","0.554297199938446","1","1","1","1","1","1","1","1","1"
"250047","img/neutralC/CFD-IM-604-014-N.jpg","img/neutralC/CFD-MF-327-002-N.jpg","img/neutralC/CFD-IM-675-015-N.jpg","1","0","1","0","0","1","0.554297199938446","0.450475000077859","0.393948899814859","1","1","1","1","1","1","1","1","1"
"250047","img/neutralC/CFD-IM-675-015-N.jpg","img/neutralC/CFD-IM-604-014-N.jpg","img/neutralC/CFD-WF-212-050-N.jpg","1","1","1","1","0","0","0.393948899814859","0.554297199938446","0.549492999911308","1","1","1","1","1","1","1","1","1"
"250047","img/neutralC/CFD-WF-212-050-N.jpg","img/neutralC/CFD-IM-675-015-N.jpg","img/neutralC/CFD-WF-012-002-N.jpg","1","1","1","0","1","1","0.549492999911308","0.393948899814859","0.450530600035563","1","1","1","1","1","1","1","1","1"
"250047","img/neutralC/CFD-WF-012-002-N.jpg","img/neutralC/CFD-WF-212-050-N.jpg","img/neutralC/CFD-WM-213-076-N.jpg","1","1","1","1","0","1","0.450530600035563","0.549492999911308","0.452502600150183","1","1","1","1","1","1","1","1","1"
"250047","img/neutralC/CFD-WM-213-076-N.jpg","img/neutralC/CFD-WF-012-002-N.jpg","img/neutralC/CFD-WM-024-015-N.jpg","1","1","1","1","1","1","0.452502600150183","0.450530600035563","0.407203099923208","1","1","1","1","1","1","1","1","1"
"250047","img/neutralC/CFD-WM-024-015-N.jpg","img/neutralC/CFD-WM-213-076-N.jpg","img/neutralC/CFD-BF-043-003-N.jpg","1","1","1","1","1","0","0.407203099923208","0.452502600150183","0.693492199992761","1","1","1","1","1","1","1","1","1"
"250047","img/neutralC/CFD-BF-043-003-N.jpg","img/neutralC/CFD-WM-024-015-N.jpg","img/neutralC/CFD-WF-217-085-N.jpg","1","1","1","0","1","1","0.693492199992761","0.407203099923208","0.524429599987343","1","1","1","1","1","1","1","1","1"
"250047","img/neutralC/CFD-WF-217-085-N.jpg","img/neutralC/CFD-BF-043-003-N.jpg","img/neutralC/CFD-LM-217-162-N.jpg","1","1","1","1","0","0","0.524429599987343","0.693492199992761","0.490983000025153","1","1","1","1","1","1","1","1","1"
"250047","img/neutralC/CFD-LM-217-162-N.jpg","img/neutralC/CFD-WF-217-085-N.jpg","img/neutralC/CFD-WF-248-129-N.jpg","1","1","1","0","1","0","0.490983000025153","0.524429599987343","0.575638800160959","1","1","1","1","1","1","1","1","1"
"250047","img/neutralC/CFD-WF-248-129-N.jpg","img/neutralC/CFD-LM-217-162-N.jpg","img/neutralC/CFD-MF-329-001-N.jpg","1","1","1","0","0","0","0.575638800160959","0.490983000025153","0.445605099899694","1","1","1","1","1","1","1","1","1"
"250047","img/neutralC/CFD-MF-329-001-N.jpg","img/neutralC/CFD-WF-248-129-N.jpg",NA,"1","1",NA,"0","0",NA,"0.445605099899694","0.575638800160959",NA,"1","1",NA,"1","1",NA,"1","1",NA
"250047","img/neutralC/CFD-WF-210-086-N.jpg",NA,"img/neutralC/CFD-AM-245-111-N.jpg","1",NA,"1","0",NA,"1","0.660854000132531",NA,"0.448273500194773","1",NA,"1","1",NA,"1","1",NA,"1"
"250047","img/neutralC/CFD-AM-245-111-N.jpg","img/neutralC/CFD-WF-210-086-N.jpg","img/neutralC/CFD-MF-307-002-N.jpg","1","1","1","1","0","1","0.448273500194773","0.660854000132531","0.430312900105491","1","1","1","1","1","1","1","1","1"
"250047","img/neutralC/CFD-MF-307-002-N.jpg","img/neutralC/CFD-AM-245-111-N.jpg","img/neutralC/CFD-BF-020-002-N.jpg","1","1","1","1","1","1","0.430312900105491","0.448273500194773","0.455654799938202","1","1","1","1","1","1","1","1","1"
"250047","img/neutralC/CFD-BF-020-002-N.jpg","img/neutralC/CFD-MF-307-002-N.jpg","img/neutralC/CFD-IM-632-097-N.jpg","1","1","1","1","1","0","0.455654799938202","0.430312900105491","0.47432650020346","1","1","1","1","1","1","1","1","1"
"250047","img/neutralC/CFD-IM-632-097-N.jpg","img/neutralC/CFD-BF-020-002-N.jpg","img/neutralC/CFD-WM-018-002-N.jpg","1","1","1","0","1","0","0.47432650020346","0.455654799938202","0.584955800091848","1","1","1","1","1","1","1","1","1"
"250047","img/neutralC/CFD-WM-018-002-N.jpg","img/neutralC/CFD-IM-632-097-N.jpg","img/neutralC/CFD-AF-246-242-N.jpg","1","1","0","0","0","0","0.584955800091848","0.47432650020346","0.453518400201574","1","1","1","1","1","1","1","1","1"
"250047","img/neutralC/CFD-AF-246-242-N.jpg","img/neutralC/CFD-WM-018-002-N.jpg","img/neutralC/CFD-AF-250-200-N.jpg","0","1","1","0","0","1","0.453518400201574","0.584955800091848","0.353368899784982","1","1","1","1","1","1","1","1","1"
"250047","img/neutralC/CFD-AF-250-200-N.jpg","img/neutralC/CFD-AF-246-242-N.jpg","img/neutralC/CFD-BF-235-168-N.jpg","1","0","1","1","0","1","0.353368899784982","0.453518400201574","0.468909100163728","1","1","1","1","1","1","1","1","1"
"250047","img/neutralC/CFD-BF-235-168-N.jpg","img/neutralC/CFD-AF-250-200-N.jpg","img/neutralC/CFD-BF-217-189-N.jpg","1","1","1","1","1","0","0.468909100163728","0.353368899784982","0.468062500003725","1","1","1","1","1","1","1","1","1"
"250047","img/neutralC/CFD-BF-217-189-N.jpg","img/neutralC/CFD-BF-235-168-N.jpg","img/neutralC/CFD-IF-732-260-N.jpg","1","1","1","0","1","0","0.468062500003725","0.468909100163728","0.732534799957648","1","1","1","1","1","1","1","1","1"
"250047","img/neutralC/CFD-IF-732-260-N.jpg","img/neutralC/CFD-BF-217-189-N.jpg","img/neutralC/CFD-BF-040-003-N.jpg","1","1","1","0","0","1","0.732534799957648","0.468062500003725","0.329393800115213","1","1","1","1","1","1","1","1","1"
"250047","img/neutralC/CFD-BF-040-003-N.jpg","img/neutralC/CFD-IF-732-260-N.jpg","img/neutralC/CFD-BF-042-026-N.jpg","1","1","1","1","0","1","0.329393800115213","0.732534799957648","0.334470899775624","1","1","1","1","1","1","1","1","1"
"250047","img/neutralC/CFD-BF-042-026-N.jpg","img/neutralC/CFD-BF-040-003-N.jpg","img/neutralC/CFD-IM-635-010-N.jpg","1","1","1","1","1","1","0.334470899775624","0.329393800115213","0.315726200118661","1","1","1","1","1","1","1","1","1"
"250047","img/neutralC/CFD-IM-635-010-N.jpg","img/neutralC/CFD-BF-042-026-N.jpg","img/neutralC/CFD-AF-205-155-N.jpg","1","1","0","1","1","0","0.315726200118661","0.334470899775624","0.333841199986637","1","1","1","1","1","1","1","1","1"
"250047","img/neutralC/CFD-AF-205-155-N.jpg","img/neutralC/CFD-IM-635-010-N.jpg","img/neutralC/CFD-AF-234-208-N.jpg","0","1","1","0","1","1","0.333841199986637","0.315726200118661","0.462975000031292","1","1","1","1","1","1","1","1","1"
"250047","img/neutralC/CFD-AF-234-208-N.jpg","img/neutralC/CFD-AF-205-155-N.jpg","img/neutralC/CFD-LF-239-148-N.jpg","1","0","1","1","0","0","0.462975000031292","0.333841199986637","0.538257600041106","1","1","1","1","1","1","1","1","1"
"250047","img/neutralC/CFD-LF-239-148-N.jpg","img/neutralC/CFD-AF-234-208-N.jpg","img/neutralC/CFD-WF-235-121-N.jpg","1","1","1","0","1","0","0.538257600041106","0.462975000031292","0.457306200172752","1","1","1","1","1","1","1","1","1"
"250047","img/neutralC/CFD-WF-235-121-N.jpg","img/neutralC/CFD-LF-239-148-N.jpg","img/neutralC/CFD-IF-636-011-N.jpg","1","1","1","0","0","1","0.457306200172752","0.538257600041106","0.37390480004251","1","1","1","1","1","1","1","1","1"
"250047","img/neutralC/CFD-IF-636-011-N.jpg","img/neutralC/CFD-WF-235-121-N.jpg","img/neutralC/CFD-WM-253-119-N.jpg","1","1","1","1","0","1","0.37390480004251","0.457306200172752","0.435769000090659","1","1","1","1","1","1","1","1","1"
"250047","img/neutralC/CFD-WM-253-119-N.jpg","img/neutralC/CFD-IF-636-011-N.jpg","img/neutralC/CFD-AM-225-102-N.jpg","1","1","1","1","1","0","0.435769000090659","0.37390480004251","0.575921099865809","1","1","1","1","1","1","1","1","1"
"250047","img/neutralC/CFD-AM-225-102-N.jpg","img/neutralC/CFD-WM-253-119-N.jpg","img/neutralC/CFD-BF-206-143-N.jpg","1","1","1","0","1","1","0.575921099865809","0.435769000090659","0.387922199908644","1","1","1","1","1","1","1","1","1"
"250047","img/neutralC/CFD-BF-206-143-N.jpg","img/neutralC/CFD-AM-225-102-N.jpg","img/neutralC/CFD-AF-213-126-N.jpg","1","1","1","1","0","1","0.387922199908644","0.575921099865809","0.382162400055677","1","1","1","1","1","1","1","1","1"
"250047","img/neutralC/CFD-AF-213-126-N.jpg","img/neutralC/CFD-BF-206-143-N.jpg","img/neutralC/CFD-LM-241-125-N.jpg","1","1","1","1","1","1","0.382162400055677","0.387922199908644","0.408600299851969","1","1","1","1","1","1","1","1","1"
"250047","img/neutralC/CFD-LM-241-125-N.jpg","img/neutralC/CFD-AF-213-126-N.jpg","img/neutralC/CFD-MF-302-027-N.jpg","1","1","0","1","1","0","0.408600299851969","0.382162400055677","0.390999399824068","1","1","1","1","1","1","1","1","1"
"250047","img/neutralC/CFD-MF-302-027-N.jpg","img/neutralC/CFD-LM-241-125-N.jpg","img/neutralC/CFD-BM-004-002-N.jpg","0","1","1","0","1","0","0.390999399824068","0.408600299851969","0.346420200075954","1","1","1","1","1","1","1","1","1"
"250047","img/neutralC/CFD-BM-004-002-N.jpg","img/neutralC/CFD-MF-302-027-N.jpg","img/neutralC/CFD-IM-678-482-N.jpg","1","0","1","0","0","0","0.346420200075954","0.390999399824068","0.551359199918807","1","1","1","1","1","1","1","1","1"
"250047","img/neutralC/CFD-IM-678-482-N.jpg","img/neutralC/CFD-BM-004-002-N.jpg","img/neutralC/CFD-IM-669-111-N.jpg","1","1","1","0","0","1","0.551359199918807","0.346420200075954","0.452826099935919","1","1","1","1","1","1","1","1","1"
"250047","img/neutralC/CFD-IM-669-111-N.jpg","img/neutralC/CFD-IM-678-482-N.jpg","img/neutralC/CFD-AF-244-168-N.jpg","1","1","1","1","0","0","0.452826099935919","0.551359199918807","0.36120259994641","1","1","1","1","1","1","1","1","1"
"250047","img/neutralC/CFD-AF-244-168-N.jpg","img/neutralC/CFD-IM-669-111-N.jpg","img/neutralC/CFD-BM-215-155-N.jpg","1","1","1","0","1","0","0.36120259994641","0.452826099935919","0.399052300024778","1","1","1","1","1","1","1","1","1"
"250047","img/neutralC/CFD-BM-215-155-N.jpg","img/neutralC/CFD-AF-244-168-N.jpg","img/neutralC/CFD-LM-204-001-N.jpg","1","1","1","0","0","0","0.399052300024778","0.36120259994641","0.442638200009242","1","1","1","1","1","1","1","1","1"
"250047","img/neutralC/CFD-LM-204-001-N.jpg","img/neutralC/CFD-BM-215-155-N.jpg","img/neutralC/CFD-AM-233-236-N.jpg","1","1","1","0","0","1","0.442638200009242","0.399052300024778","0.40445559984073","1","1","1","1","1","1","1","1","1"
"250047","img/neutralC/CFD-AM-233-236-N.jpg","img/neutralC/CFD-LM-204-001-N.jpg",NA,"1","1",NA,"1","0",NA,"0.40445559984073","0.442638200009242",NA,"1","1",NA,"1","1",NA,"1","1",NA
"250047","img/neutralC/CFD-WM-225-127-N.jpg",NA,"img/neutralC/CFD-IF-672-305-N.jpg","1",NA,"0","0",NA,"0","0.548793700058013",NA,"0.457782800076529","1",NA,"1","1",NA,"1","1",NA,"1"
"250047","img/neutralC/CFD-IF-672-305-N.jpg","img/neutralC/CFD-WM-225-127-N.jpg","img/neutralC/CFD-BF-255-140-N.jpg","0","1","1","0","0","1","0.457782800076529","0.548793700058013","0.43183230003342","1","1","1","1","1","1","1","1","1"
"250047","img/neutralC/CFD-BF-255-140-N.jpg","img/neutralC/CFD-IF-672-305-N.jpg","img/neutralC/CFD-IM-728-041-N.jpg","1","0","1","1","0","0","0.43183230003342","0.457782800076529","0.311125000007451","1","1","1","1","1","1","1","1","1"
"250047","img/neutralC/CFD-IM-728-041-N.jpg","img/neutralC/CFD-BF-255-140-N.jpg","img/neutralC/CFD-BM-015-015-N.jpg","1","1","1","0","1","0","0.311125000007451","0.43183230003342","0.367090899962932","1","1","1","1","1","1","1","1","1"
"250047","img/neutralC/CFD-BM-015-015-N.jpg","img/neutralC/CFD-IM-728-041-N.jpg","img/neutralC/CFD-BF-208-266-N.jpg","1","1","0","0","0","0","0.367090899962932","0.311125000007451","0.422559400089085","1","1","1","1","1","1","1","1","1"
"250047","img/neutralC/CFD-BF-208-266-N.jpg","img/neutralC/CFD-BM-015-015-N.jpg","img/neutralC/CFD-BF-003-003-N.jpg","0","1","1","0","0","0","0.422559400089085","0.367090899962932","0.4947714000009","1","1","1","1","1","1","1","1","1"
"250047","img/neutralC/CFD-BF-003-003-N.jpg","img/neutralC/CFD-BF-208-266-N.jpg","img/neutralC/CFD-WM-038-003-N.jpg","1","0","1","0","0","0","0.4947714000009","0.422559400089085","0.52219960000366","1","1","1","1","1","1","1","1","1"
"250047","img/neutralC/CFD-WM-038-003-N.jpg","img/neutralC/CFD-BF-003-003-N.jpg","img/neutralC/CFD-LF-236-221-N.jpg","1","1","1","0","0","1","0.52219960000366","0.4947714000009","0.326482400065288","1","1","1","1","1","1","1","1","1"
"250047","img/neutralC/CFD-LF-236-221-N.jpg","img/neutralC/CFD-WM-038-003-N.jpg","img/neutralC/CFD-AM-215-120-N.jpg","1","1","1","1","0","1","0.326482400065288","0.52219960000366","0.321818299824372","1","1","1","1","1","1","1","1","1"
"250047","img/neutralC/CFD-AM-215-120-N.jpg","img/neutralC/CFD-LF-236-221-N.jpg","img/neutralC/CFD-IF-718-001-N.jpg","1","1","1","1","1","1","0.321818299824372","0.326482400065288","0.43787519983016","1","1","1","1","1","1","1","1","1"
"250047","img/neutralC/CFD-IF-718-001-N.jpg","img/neutralC/CFD-AM-215-120-N.jpg","img/neutralC/CFD-BM-211-174-N.jpg","1","1","1","1","1","0","0.43787519983016","0.321818299824372","0.380587099818513","1","1","1","1","1","1","1","1","1"
"250047","img/neutralC/CFD-BM-211-174-N.jpg","img/neutralC/CFD-IF-718-001-N.jpg","img/neutralC/CFD-WF-026-002-N.jpg","1","1","1","0","1","1","0.380587099818513","0.43787519983016","0.329521999927238","1","1","1","1","1","1","1","1","1"
"250047","img/neutralC/CFD-WF-026-002-N.jpg","img/neutralC/CFD-BM-211-174-N.jpg","img/neutralC/CFD-AM-235-241-N.jpg","1","1","1","1","0","0","0.329521999927238","0.380587099818513","0.387539200019091","1","1","1","1","1","1","1","1","1"
"250047","img/neutralC/CFD-AM-235-241-N.jpg","img/neutralC/CFD-WF-026-002-N.jpg","img/neutralC/CFD-BM-247-240-N.jpg","1","1","1","0","1","0","0.387539200019091","0.329521999927238","0.355284699937329","1","1","1","1","1","1","1","1","1"
"250047","img/neutralC/CFD-BM-247-240-N.jpg","img/neutralC/CFD-AM-235-241-N.jpg","img/neutralC/CFD-WF-022-017-N.jpg","1","1","0","0","0","0","0.355284699937329","0.387539200019091","0.455444100080058","1","1","1","1","1","1","1","1","1"
"250047","img/neutralC/CFD-WF-022-017-N.jpg","img/neutralC/CFD-BM-247-240-N.jpg","img/neutralC/CFD-IM-639-263-N.jpg","0","1","1","0","0","1","0.455444100080058","0.355284699937329","0.486881599994376","1","1","1","1","1","1","1","1","1"
"250047","img/neutralC/CFD-IM-639-263-N.jpg","img/neutralC/CFD-WF-022-017-N.jpg","img/neutralC/CFD-LM-252-076-N.jpg","1","0","1","1","0","1","0.486881599994376","0.455444100080058","0.365273099858314","1","1","1","1","1","1","1","1","1"
"250047","img/neutralC/CFD-LM-252-076-N.jpg","img/neutralC/CFD-IM-639-263-N.jpg","img/neutralC/CFD-MM-319-052-N.jpg","1","1","1","1","1","1","0.365273099858314","0.486881599994376","0.455490400083363","1","1","1","1","1","1","1","1","1"
"250047","img/neutralC/CFD-MM-319-052-N.jpg","img/neutralC/CFD-LM-252-076-N.jpg","img/neutralC/CFD-BF-204-189-N.jpg","1","1","1","1","1","1","0.455490400083363","0.365273099858314","0.499674199847504","1","1","1","1","1","1","1","1","1"
"250047","img/neutralC/CFD-BF-204-189-N.jpg","img/neutralC/CFD-MM-319-052-N.jpg","img/neutralC/CFD-IM-674-281-N.jpg","1","1","1","1","1","1","0.499674199847504","0.455490400083363","0.495941799832508","1","1","1","1","1","1","1","1","1"
"250047","img/neutralC/CFD-IM-674-281-N.jpg","img/neutralC/CFD-BF-204-189-N.jpg","img/neutralC/CFD-BM-029-024-N.jpg","1","1","1","1","1","1","0.495941799832508","0.499674199847504","0.311372000025585","1","1","1","1","1","1","1","1","1"
"250047","img/neutralC/CFD-BM-029-024-N.jpg","img/neutralC/CFD-IM-674-281-N.jpg","img/neutralC/CFD-BF-023-010-N.jpg","1","1","1","1","1","1","0.311372000025585","0.495941799832508","0.428393200039864","1","1","1","1","1","1","1","1","1"
"250047","img/neutralC/CFD-BF-023-010-N.jpg","img/neutralC/CFD-BM-029-024-N.jpg","img/neutralC/CFD-BF-201-080-N.jpg","1","1","1","1","1","1","0.428393200039864","0.311372000025585","0.437310999957845","1","1","1","1","1","1","1","1","1"
"250047","img/neutralC/CFD-BF-201-080-N.jpg","img/neutralC/CFD-BF-023-010-N.jpg","img/neutralC/CFD-AM-217-085-N.jpg","1","1","1","1","1","0","0.437310999957845","0.428393200039864","0.4885722999461","1","1","1","1","1","1","1","1","1"
"250047","img/neutralC/CFD-AM-217-085-N.jpg","img/neutralC/CFD-BF-201-080-N.jpg","img/neutralC/CFD-BM-027-001-N.jpg","1","1","1","0","1","0","0.4885722999461","0.437310999957845","0.698450499912724","1","1","1","1","1","1","1","1","1"
"250047","img/neutralC/CFD-BM-027-001-N.jpg","img/neutralC/CFD-AM-217-085-N.jpg","img/neutralC/CFD-WF-002-004-N.jpg","1","1","0","0","0","0","0.698450499912724","0.4885722999461","0.370707599911839","1","1","1","1","1","1","1","1","1"
"250047","img/neutralC/CFD-WF-002-004-N.jpg","img/neutralC/CFD-BM-027-001-N.jpg","img/neutralC/CFD-WM-257-161-N.jpg","0","1","1","0","0","1","0.370707599911839","0.698450499912724","0.397446900140494","1","1","1","1","1","1","1","1","1"
"250047","img/neutralC/CFD-WM-257-161-N.jpg","img/neutralC/CFD-WF-002-004-N.jpg","img/neutralC/CFD-BF-028-001-N.jpg","1","0","1","1","0","1","0.397446900140494","0.370707599911839","0.454055899986997","1","1","1","1","1","1","1","1","1"
"250047","img/neutralC/CFD-BF-028-001-N.jpg","img/neutralC/CFD-WM-257-161-N.jpg","img/neutralC/CFD-WM-040-022-N.jpg","1","1","1","1","1","0","0.454055899986997","0.397446900140494","0.505807500099763","1","1","1","1","1","1","1","1","1"
"250047","img/neutralC/CFD-WM-040-022-N.jpg","img/neutralC/CFD-BF-028-001-N.jpg","img/neutralC/CFD-LF-216-121-N.jpg","1","1","1","0","1","1","0.505807500099763","0.454055899986997","0.456244200002402","1","1","1","1","1","1","1","1","1"
"250047","img/neutralC/CFD-LF-216-121-N.jpg","img/neutralC/CFD-WM-040-022-N.jpg","img/neutralC/CFD-WM-002-009-N.jpg","1","1","1","1","0","0","0.456244200002402","0.505807500099763","0.389414800098166","1","1","1","1","1","1","1","1","1"
"250047","img/neutralC/CFD-WM-002-009-N.jpg","img/neutralC/CFD-LF-216-121-N.jpg",NA,"1","1",NA,"0","1",NA,"0.389414800098166","0.456244200002402",NA,"1","1",NA,"1","1",NA,"1","1",NA
"250047","img/neutralC/CFD-WM-254-152-N.jpg",NA,"img/neutralC/CFD-BF-045-003-N.jpg","1",NA,"1","1",NA,"0","0.553111599991098",NA,"0.511264699976891","1",NA,"1","1",NA,"1","1",NA,"1"
"250047","img/neutralC/CFD-BF-045-003-N.jpg","img/neutralC/CFD-WM-254-152-N.jpg","img/neutralC/CFD-BM-010-003-N.jpg","1","1","1","0","1","0","0.511264699976891","0.553111599991098","0.450972700025886","1","1","1","1","1","1","1","1","1"
"250047","img/neutralC/CFD-BM-010-003-N.jpg","img/neutralC/CFD-BF-045-003-N.jpg","img/neutralC/CFD-WF-033-002-N.jpg","1","1","1","0","0","1","0.450972700025886","0.511264699976891","0.402428099885583","1","1","1","1","1","1","1","1","1"
"250047","img/neutralC/CFD-WF-033-002-N.jpg","img/neutralC/CFD-BM-010-003-N.jpg","img/neutralC/CFD-LM-247-095-N.jpg","1","1","1","1","0","0","0.402428099885583","0.450972700025886","0.422781799919903","1","1","1","1","1","1","1","1","1"
"250047","img/neutralC/CFD-LM-247-095-N.jpg","img/neutralC/CFD-WF-033-002-N.jpg","img/neutralC/CFD-LM-238-129-N.jpg","1","1","1","0","1","1","0.422781799919903","0.402428099885583","0.429951099911705","1","1","1","1","1","1","1","1","1"
"250047","img/neutralC/CFD-LM-238-129-N.jpg","img/neutralC/CFD-LM-247-095-N.jpg","img/neutralC/CFD-IM-701-312-N.jpg","1","1","1","1","0","0","0.429951099911705","0.422781799919903","0.541768500115722","1","1","1","1","1","1","1","1","1"
"250047","img/neutralC/CFD-IM-701-312-N.jpg","img/neutralC/CFD-LM-238-129-N.jpg","img/neutralC/CFD-WM-202-107-N.jpg","1","1","1","0","1","1","0.541768500115722","0.429951099911705","0.31394480005838","1","1","1","1","1","1","1","1","1"
"250047","img/neutralC/CFD-WM-202-107-N.jpg","img/neutralC/CFD-IM-701-312-N.jpg","img/neutralC/CFD-WF-006-002-N.jpg","1","1","0","1","0","0","0.31394480005838","0.541768500115722","0.432809199905023","1","1","1","1","1","1","1","1","1"
"250047","img/neutralC/CFD-WF-006-002-N.jpg","img/neutralC/CFD-WM-202-107-N.jpg","img/neutralC/CFD-AM-221-184-N.jpg","0","1","1","0","1","1","0.432809199905023","0.31394480005838","0.429546100087464","1","1","1","1","1","1","1","1","1"
"250047","img/neutralC/CFD-AM-221-184-N.jpg","img/neutralC/CFD-WF-006-002-N.jpg","img/neutralC/CFD-AF-227-207-N.jpg","1","0","1","1","0","1","0.429546100087464","0.432809199905023","0.363844299921766","1","1","1","1","1","1","1","1","1"
"250047","img/neutralC/CFD-AF-227-207-N.jpg","img/neutralC/CFD-AM-221-184-N.jpg","img/neutralC/CFD-MF-336-016-N.jpg","1","1","1","1","1","1","0.363844299921766","0.429546100087464","0.438890499994159","1","1","1","1","1","1","1","1","1"
"250047","img/neutralC/CFD-MF-336-016-N.jpg","img/neutralC/CFD-AF-227-207-N.jpg","img/neutralC/CFD-LF-225-164-N.jpg","1","1","1","1","1","1","0.438890499994159","0.363844299921766","0.411478199996054","1","1","1","1","1","1","1","1","1"
"250047","img/neutralC/CFD-LF-225-164-N.jpg","img/neutralC/CFD-MF-336-016-N.jpg","img/neutralC/CFD-BF-222-240-N.jpg","1","1","1","1","1","0","0.411478199996054","0.438890499994159","0.312419299967587","1","1","1","1","1","1","1","1","1"
"250047","img/neutralC/CFD-BF-222-240-N.jpg","img/neutralC/CFD-LF-225-164-N.jpg","img/neutralC/CFD-WF-223-133-N.jpg","1","1","0","0","1","0","0.312419299967587","0.411478199996054","0.342301300028339","1","1","1","1","1","1","1","1","1"
"250047","img/neutralC/CFD-WF-223-133-N.jpg","img/neutralC/CFD-BF-222-240-N.jpg","img/neutralC/CFD-IM-738-191-N.jpg","0","1","1","0","0","0","0.342301300028339","0.312419299967587","0.418329200008884","1","1","1","1","1","1","1","1","1"
"250047","img/neutralC/CFD-IM-738-191-N.jpg","img/neutralC/CFD-WF-223-133-N.jpg","img/neutralC/CFD-IF-625-225-N.jpg","1","0","1","0","0","0","0.418329200008884","0.342301300028339","0.522656999994069","1","1","1","1","1","1","1","1","1"
"250047","img/neutralC/CFD-IF-625-225-N.jpg","img/neutralC/CFD-IM-738-191-N.jpg","img/neutralC/CFD-AF-210-050-N.jpg","1","1","0","0","0","1","0.522656999994069","0.418329200008884","0.351414599921554","1","1","1","1","1","1","1","1","1"
"250047","img/neutralC/CFD-AF-210-050-N.jpg","img/neutralC/CFD-IF-625-225-N.jpg","img/neutralC/CFD-AF-239-171-N.jpg","0","1","1","1","0","1","0.351414599921554","0.522656999994069","0.504278300097212","1","1","1","1","1","1","1","1","1"
"250047","img/neutralC/CFD-AF-239-171-N.jpg","img/neutralC/CFD-AF-210-050-N.jpg","img/neutralC/CFD-BF-004-014-N.jpg","1","0","1","1","1","1","0.504278300097212","0.351414599921554","0.353360899956897","1","1","1","1","1","1","1","1","1"
"250047","img/neutralC/CFD-BF-004-014-N.jpg","img/neutralC/CFD-AF-239-171-N.jpg","img/neutralC/CFD-BM-003-003-N.jpg","1","1","1","1","1","0","0.353360899956897","0.504278300097212","0.537570399930701","1","1","1","1","1","1","1","1","1"
"250047","img/neutralC/CFD-BM-003-003-N.jpg","img/neutralC/CFD-BF-004-014-N.jpg","img/neutralC/CFD-IF-744-114-N.jpg","1","1","1","0","1","0","0.537570399930701","0.353360899956897","0.408776600146666","1","1","1","1","1","1","1","1","1"
"250047","img/neutralC/CFD-IF-744-114-N.jpg","img/neutralC/CFD-BM-003-003-N.jpg","img/neutralC/CFD-BM-028-002-N.jpg","1","1","1","0","0","1","0.408776600146666","0.537570399930701","0.421667200047523","1","1","1","1","1","1","1","1","1"
"250047","img/neutralC/CFD-BM-028-002-N.jpg","img/neutralC/CFD-IF-744-114-N.jpg","img/neutralC/CFD-IM-659-359-N.jpg","1","1","0","1","0","0","0.421667200047523","0.408776600146666","0.333008500048891","1","1","1","1","1","1","1","1","1"
"250047","img/neutralC/CFD-IM-659-359-N.jpg","img/neutralC/CFD-BM-028-002-N.jpg","img/neutralC/CFD-IF-673-389-N.jpg","0","1","0","0","1","0","0.333008500048891","0.421667200047523","0.491388900205493","1","1","1","1","1","1","1","1","1"
"250047","img/neutralC/CFD-IF-673-389-N.jpg","img/neutralC/CFD-IM-659-359-N.jpg","img/neutralC/CFD-LF-241-188-N.jpg","0","0","1","0","0","0","0.491388900205493","0.333008500048891","0.357743699802086","1","1","1","1","1","1","1","1","1"
"250047","img/neutralC/CFD-LF-241-188-N.jpg","img/neutralC/CFD-IF-673-389-N.jpg","img/neutralC/CFD-BM-213-134-N.jpg","1","0","0","0","0","1","0.357743699802086","0.491388900205493","0.418113499879837","1","1","1","1","1","1","1","1","1"
"250047","img/neutralC/CFD-BM-213-134-N.jpg","img/neutralC/CFD-LF-241-188-N.jpg","img/neutralC/CFD-LF-210-220-N.jpg","0","1","1","1","0","1","0.418113499879837","0.357743699802086","0.414974600076675","1","1","1","1","1","1","1","1","1"
"250047","img/neutralC/CFD-LF-210-220-N.jpg","img/neutralC/CFD-BM-213-134-N.jpg","img/neutralC/CFD-LF-208-127-N.jpg","1","0","1","1","1","0","0.414974600076675","0.418113499879837","0.522710900055245","1","1","1","1","1","1","1","1","1"
"250047","img/neutralC/CFD-LF-208-127-N.jpg","img/neutralC/CFD-LF-210-220-N.jpg","img/neutralC/CFD-WM-228-065-N.jpg","1","1","1","0","1","0","0.522710900055245","0.414974600076675","0.412938400171697","1","1","1","1","1","1","1","1","1"
"250047","img/neutralC/CFD-WM-228-065-N.jpg","img/neutralC/CFD-LF-208-127-N.jpg","img/neutralC/CFD-BM-013-002-N.jpg","1","1","1","0","0","1","0.412938400171697","0.522710900055245","0.590466200141236","1","1","1","1","1","1","1","1","1"
"250047","img/neutralC/CFD-BM-013-002-N.jpg","img/neutralC/CFD-WM-228-065-N.jpg","img/neutralC/CFD-MF-312-002-N.jpg","1","1","1","1","0","1","0.590466200141236","0.412938400171697","0.367254300042987","1","1","1","1","1","1","1","1","1"
"250047","img/neutralC/CFD-MF-312-002-N.jpg","img/neutralC/CFD-BM-013-002-N.jpg",NA,"1","1",NA,"1","1",NA,"0.367254300042987","0.590466200141236",NA,"1","1",NA,"1","1",NA,"1","1",NA
"250047","img/neutralC/CFD-BF-228-212-N.jpg",NA,"img/neutralC/CFD-WF-228-196-N.jpg","0",NA,"1","0",NA,"0","0.62229340011254",NA,"0.388132499996573","1",NA,"1","1",NA,"1","1",NA,"1"
"250047","img/neutralC/CFD-WF-228-196-N.jpg","img/neutralC/CFD-BF-228-212-N.jpg","img/neutralC/CFD-BF-202-109-N.jpg","1","0","1","0","0","1","0.388132499996573","0.62229340011254","0.354489999823272","1","1","1","1","1","1","1","1","1"
"250047","img/neutralC/CFD-BF-202-109-N.jpg","img/neutralC/CFD-WF-228-196-N.jpg","img/neutralC/CFD-AF-240-206-N.jpg","1","1","1","1","0","0","0.354489999823272","0.388132499996573","0.358509599929675","1","1","1","1","1","1","1","1","1"
"250047","img/neutralC/CFD-AF-240-206-N.jpg","img/neutralC/CFD-BF-202-109-N.jpg","img/neutralC/CFD-WM-026-001-N.jpg","1","1","1","0","1","1","0.358509599929675","0.354489999823272","0.378633999964222","1","1","1","1","1","1","1","1","1"
"250047","img/neutralC/CFD-WM-026-001-N.jpg","img/neutralC/CFD-AF-240-206-N.jpg","img/neutralC/CFD-LM-201-057-N.jpg","1","1","1","1","0","1","0.378633999964222","0.358509599929675","0.466253299964592","1","1","1","1","1","1","1","1","1"
"250047","img/neutralC/CFD-LM-201-057-N.jpg","img/neutralC/CFD-WM-026-001-N.jpg","img/neutralC/CFD-WF-017-003-N.jpg","1","1","1","1","1","1","0.466253299964592","0.378633999964222","0.323413900099695","1","1","1","1","1","1","1","1","1"
"250047","img/neutralC/CFD-WF-017-003-N.jpg","img/neutralC/CFD-LM-201-057-N.jpg","img/neutralC/CFD-WM-019-003-N.jpg","1","1","1","1","1","1","0.323413900099695","0.466253299964592","0.414723800029606","1","1","1","1","1","1","1","1","1"
"250047","img/neutralC/CFD-WM-019-003-N.jpg","img/neutralC/CFD-WF-017-003-N.jpg","img/neutralC/CFD-MF-335-002-N.jpg","1","1","1","1","1","0","0.414723800029606","0.323413900099695","0.357404100010172","1","1","1","1","1","1","1","1","1"
"250047","img/neutralC/CFD-MF-335-002-N.jpg","img/neutralC/CFD-WM-019-003-N.jpg","img/neutralC/CFD-MM-317-061-N.jpg","1","1","1","0","1","1","0.357404100010172","0.414723800029606","0.45769269997254","1","1","1","1","1","1","1","1","1"
"250047","img/neutralC/CFD-MM-317-061-N.jpg","img/neutralC/CFD-MF-335-002-N.jpg","img/neutralC/CFD-BF-212-315-N.jpg","1","1","0","1","0","1","0.45769269997254","0.357404100010172","0.355033400002867","1","1","1","1","1","1","1","1","1"
"250047","img/neutralC/CFD-BF-212-315-N.jpg","img/neutralC/CFD-MM-317-061-N.jpg","img/neutralC/CFD-WM-215-041-N.jpg","0","1","0","1","1","0","0.355033400002867","0.45769269997254","0.355333999963477","1","1","1","1","1","1","1","1","1"
"250047","img/neutralC/CFD-WM-215-041-N.jpg","img/neutralC/CFD-BF-212-315-N.jpg","img/neutralC/CFD-WM-212-097-N.jpg","0","0","0","0","1","0","0.355333999963477","0.355033400002867","0.434216500027105","1","1","1","1","1","1","1","1","1"
"250047","img/neutralC/CFD-WM-212-097-N.jpg","img/neutralC/CFD-WM-215-041-N.jpg","img/neutralC/CFD-LM-243-075-N.jpg","0","0","1","0","0","0","0.434216500027105","0.355333999963477","0.4801258998923","1","1","1","1","1","1","1","1","1"
"250047","img/neutralC/CFD-LM-243-075-N.jpg","img/neutralC/CFD-WM-212-097-N.jpg","img/neutralC/CFD-LM-216-082-N.jpg","1","0","1","0","0","0","0.4801258998923","0.434216500027105","0.338363300077617","1","1","1","1","1","1","1","1","1"
"250047","img/neutralC/CFD-LM-216-082-N.jpg","img/neutralC/CFD-LM-243-075-N.jpg","img/neutralC/CFD-WM-006-002-N.jpg","1","1","1","0","0","0","0.338363300077617","0.4801258998923","0.379584099864587","1","1","1","1","1","1","1","1","1"
"250047","img/neutralC/CFD-WM-006-002-N.jpg","img/neutralC/CFD-LM-216-082-N.jpg","img/neutralC/CFD-WF-240-083-N.jpg","1","1","0","0","0","0","0.379584099864587","0.338363300077617","0.378724599955603","1","1","1","1","1","1","1","1","1"
"250047","img/neutralC/CFD-WF-240-083-N.jpg","img/neutralC/CFD-WM-006-002-N.jpg","img/neutralC/CFD-LM-244-068-N.jpg","0","1","1","0","0","1","0.378724599955603","0.379584099864587","0.494611700065434","1","1","1","1","1","1","1","1","1"
"250047","img/neutralC/CFD-LM-244-068-N.jpg","img/neutralC/CFD-WF-240-083-N.jpg","img/neutralC/CFD-BM-251-013-N.jpg","1","0","1","1","0","1","0.494611700065434","0.378724599955603","0.342079100199044","1","1","1","1","1","1","1","1","1"
"250047","img/neutralC/CFD-BM-251-013-N.jpg","img/neutralC/CFD-LM-244-068-N.jpg","img/neutralC/CFD-WM-012-001-N.jpg","1","1","1","1","1","1","0.342079100199044","0.494611700065434","0.373651500092819","1","1","1","1","1","1","1","1","1"
"250047","img/neutralC/CFD-WM-012-001-N.jpg","img/neutralC/CFD-BM-251-013-N.jpg","img/neutralC/CFD-MF-309-002-N.jpg","1","1","1","1","1","0","0.373651500092819","0.342079100199044","0.373733799904585","1","1","1","1","1","1","1","1","1"
"250047","img/neutralC/CFD-MF-309-002-N.jpg","img/neutralC/CFD-WM-012-001-N.jpg","img/neutralC/CFD-BF-025-002-N.jpg","1","1","1","0","1","0","0.373733799904585","0.373651500092819","0.615937900030985","1","1","1","1","1","1","1","1","1"
"250047","img/neutralC/CFD-BF-025-002-N.jpg","img/neutralC/CFD-MF-309-002-N.jpg","img/neutralC/CFD-AM-247-165-N.jpg","1","1","1","0","0","1","0.615937900030985","0.373733799904585","0.396588200004771","1","1","1","1","1","1","1","1","1"
"250047","img/neutralC/CFD-AM-247-165-N.jpg","img/neutralC/CFD-BF-025-002-N.jpg","img/neutralC/CFD-LM-214-165-N.jpg","1","1","1","1","0","1","0.396588200004771","0.615937900030985","0.423336199950427","1","1","1","1","1","1","1","1","1"
"250047","img/neutralC/CFD-LM-214-165-N.jpg","img/neutralC/CFD-AM-247-165-N.jpg","img/neutralC/CFD-BF-041-001-N.jpg","1","1","1","1","1","1","0.423336199950427","0.396588200004771","0.321033900137991","1","1","1","1","1","1","1","1","1"
"250047","img/neutralC/CFD-BF-041-001-N.jpg","img/neutralC/CFD-LM-214-165-N.jpg","img/neutralC/CFD-IF-642-295-N.jpg","1","1","0","1","1","1","0.321033900137991","0.423336199950427","0.33228849992156","1","1","1","1","1","1","1","1","1"
"250047","img/neutralC/CFD-IF-642-295-N.jpg","img/neutralC/CFD-BF-041-001-N.jpg","img/neutralC/CFD-BM-205-001-N.jpg","0","1","1","1","1","0","0.33228849992156","0.321033900137991","0.473681500181556","1","1","1","1","1","1","1","1","1"
"250047","img/neutralC/CFD-BM-205-001-N.jpg","img/neutralC/CFD-IF-642-295-N.jpg","img/neutralC/CFD-IM-648-337-N.jpg","1","0","0","0","1","0","0.473681500181556","0.33228849992156","0.304587400052696","1","1","1","1","1","1","1","1","1"
"250047","img/neutralC/CFD-IM-648-337-N.jpg","img/neutralC/CFD-BM-205-001-N.jpg","img/neutralC/CFD-BM-248-128-N.jpg","0","1","1","0","0","0","0.304587400052696","0.473681500181556","0.312867099884897","1","1","1","1","1","1","1","1","1"
"250047","img/neutralC/CFD-BM-248-128-N.jpg","img/neutralC/CFD-IM-648-337-N.jpg","img/neutralC/CFD-WM-249-239-N.jpg","1","0","1","0","0","1","0.312867099884897","0.304587400052696","0.403013099916279","1","1","1","1","1","1","1","1","1"
"250047","img/neutralC/CFD-WM-249-239-N.jpg","img/neutralC/CFD-BM-248-128-N.jpg","img/neutralC/CFD-IM-646-023-N.jpg","1","1","1","1","0","1","0.403013099916279","0.312867099884897","0.347107700072229","1","1","1","1","1","1","1","1","1"
"250047","img/neutralC/CFD-IM-646-023-N.jpg","img/neutralC/CFD-WM-249-239-N.jpg","img/neutralC/CFD-WF-005-010-N.jpg","1","1","1","1","1","0","0.347107700072229","0.403013099916279","0.32948030019179","1","1","1","1","1","1","1","1","1"
"250047","img/neutralC/CFD-WF-005-010-N.jpg","img/neutralC/CFD-IM-646-023-N.jpg",NA,"1","1",NA,"0","1",NA,"0.32948030019179","0.347107700072229",NA,"1","1",NA,"1","1",NA,"1","1",NA
"250047","img/neutralC/CFD-WM-004-010-N.jpg",NA,"img/neutralC/CFD-IM-671-601-N.jpg","0",NA,"0","0",NA,"0","0.438611299963668",NA,"0.416364500066266","1",NA,"1","1",NA,"1","1",NA,"1"
"250047","img/neutralC/CFD-IM-671-601-N.jpg","img/neutralC/CFD-WM-004-010-N.jpg","img/neutralC/CFD-BF-229-179-N.jpg","0","0","1","0","0","0","0.416364500066266","0.438611299963668","0.388011299772188","1","1","1","1","1","1","1","1","1"
"250047","img/neutralC/CFD-BF-229-179-N.jpg","img/neutralC/CFD-IM-671-601-N.jpg","img/neutralC/CFD-WM-033-025-N.jpg","1","0","1","0","0","1","0.388011299772188","0.416364500066266","0.387748199980706","1","1","1","1","1","1","1","1","1"
"250047","img/neutralC/CFD-WM-033-025-N.jpg","img/neutralC/CFD-BF-229-179-N.jpg","img/neutralC/CFD-WM-235-147-N.jpg","1","1","1","1","0","0","0.387748199980706","0.388011299772188","0.365759099833667","1","1","1","1","1","1","1","1","1"
"250047","img/neutralC/CFD-WM-235-147-N.jpg","img/neutralC/CFD-WM-033-025-N.jpg","img/neutralC/CFD-WF-001-003-N.jpg","1","1","1","0","1","1","0.365759099833667","0.387748199980706","0.369106400059536","1","1","1","1","1","1","1","1","1"
"250047","img/neutralC/CFD-WF-001-003-N.jpg","img/neutralC/CFD-WM-235-147-N.jpg","img/neutralC/CFD-LF-218-072-N.jpg","1","1","1","1","0","0","0.369106400059536","0.365759099833667","0.466541500063613","1","1","1","1","1","1","1","1","1"
"250047","img/neutralC/CFD-LF-218-072-N.jpg","img/neutralC/CFD-WF-001-003-N.jpg","img/neutralC/CFD-MF-333-012-N.jpg","1","1","0","0","1","0","0.466541500063613","0.369106400059536","0.363486899994314","1","1","1","1","1","1","1","1","1"
"250047","img/neutralC/CFD-MF-333-012-N.jpg","img/neutralC/CFD-LF-218-072-N.jpg","img/neutralC/CFD-AM-251-124-N.jpg","0","1","1","0","0","0","0.363486899994314","0.466541500063613","0.535820999881253","1","1","1","1","1","1","1","1","1"
"250047","img/neutralC/CFD-AM-251-124-N.jpg","img/neutralC/CFD-MF-333-012-N.jpg","img/neutralC/CFD-MF-359-019-N.jpg","1","0","0","0","0","0","0.535820999881253","0.363486899994314","0.495925599941984","1","1","1","1","1","1","1","1","2"
"250047","img/neutralC/CFD-MF-359-019-N.jpg","img/neutralC/CFD-AM-251-124-N.jpg","img/neutralC/CFD-WF-036-023-N.jpg","0","1","1","0","0","0","0.495925599941984","0.535820999881253","0.561031799996272","1","1","1","1","1","1","2","1","1"
"250047","img/neutralC/CFD-WF-036-023-N.jpg","img/neutralC/CFD-MF-359-019-N.jpg","img/neutralC/CFD-BF-226-119-N.jpg","1","0","1","0","0","1","0.561031799996272","0.495925599941984","0.445354900090024","1","1","1","1","1","1","1","2","1"
"250047","img/neutralC/CFD-BF-226-119-N.jpg","img/neutralC/CFD-WF-036-023-N.jpg","img/neutralC/CFD-LM-237-264-N.jpg","1","1","1","1","0","0","0.445354900090024","0.561031799996272","0.681008300045505","1","1","1","1","1","1","1","1","1"
"250047","img/neutralC/CFD-LM-237-264-N.jpg","img/neutralC/CFD-BF-226-119-N.jpg","img/neutralC/CFD-IF-650-315-N.jpg","1","1","0","0","1","0","0.681008300045505","0.445354900090024","0.59865660010837","1","1","1","1","1","1","1","1","1"
"250047","img/neutralC/CFD-IF-650-315-N.jpg","img/neutralC/CFD-LM-237-264-N.jpg","img/neutralC/CFD-LF-220-120-N.jpg","0","1","1","0","0","1","0.59865660010837","0.681008300045505","0.37512330012396","1","1","1","1","1","1","1","1","1"
"250047","img/neutralC/CFD-LF-220-120-N.jpg","img/neutralC/CFD-IF-650-315-N.jpg","img/neutralC/CFD-BM-253-004-N.jpg","1","0","1","1","0","1","0.37512330012396","0.59865660010837","0.448783999774605","1","1","1","1","1","1","1","1","1"
"250047","img/neutralC/CFD-BM-253-004-N.jpg","img/neutralC/CFD-LF-220-120-N.jpg","img/neutralC/CFD-LM-228-188-N.jpg","1","1","1","1","1","1","0.448783999774605","0.37512330012396","0.402267999947071","1","1","1","1","1","1","1","1","1"
"250047","img/neutralC/CFD-LM-228-188-N.jpg","img/neutralC/CFD-BM-253-004-N.jpg","img/neutralC/CFD-WF-200-099-N.jpg","1","1","1","1","1","0","0.402267999947071","0.448783999774605","0.343153299996629","1","1","1","1","1","1","1","1","1"
"250047","img/neutralC/CFD-WF-200-099-N.jpg","img/neutralC/CFD-LM-228-188-N.jpg","img/neutralC/CFD-BF-232-187-N.jpg","1","1","1","0","1","1","0.343153299996629","0.402267999947071","0.341190399834886","1","1","1","1","1","1","1","1","1"
"250047","img/neutralC/CFD-BF-232-187-N.jpg","img/neutralC/CFD-WF-200-099-N.jpg","img/neutralC/CFD-WM-020-001-N.jpg","1","1","1","1","0","1","0.341190399834886","0.343153299996629","0.393046900164336","1","1","1","1","1","1","1","1","1"
"250047","img/neutralC/CFD-WM-020-001-N.jpg","img/neutralC/CFD-BF-232-187-N.jpg","img/neutralC/CFD-IM-703-182-N.jpg","1","1","1","1","1","1","0.393046900164336","0.341190399834886","0.364776599919423","1","1","1","1","1","1","1","1","1"
"250047","img/neutralC/CFD-IM-703-182-N.jpg","img/neutralC/CFD-WM-020-001-N.jpg","img/neutralC/CFD-IM-645-001-N.jpg","1","1","0","1","1","0","0.364776599919423","0.393046900164336","0.390765199903399","1","1","1","1","1","1","1","1","1"
"250047","img/neutralC/CFD-IM-645-001-N.jpg","img/neutralC/CFD-IM-703-182-N.jpg","img/neutralC/CFD-AM-242-176-N.jpg","0","1","1","0","1","1","0.390765199903399","0.364776599919423","0.358863900182769","1","1","1","1","1","1","1","1","1"
"250047","img/neutralC/CFD-AM-242-176-N.jpg","img/neutralC/CFD-IM-645-001-N.jpg","img/neutralC/CFD-MF-352-054-N.jpg","1","0","0","1","0","0","0.358863900182769","0.390765199903399","0.476261100033298","1","1","1","1","1","1","1","1","1"
"250047","img/neutralC/CFD-MF-352-054-N.jpg","img/neutralC/CFD-AM-242-176-N.jpg","img/neutralC/CFD-IM-616-214-N.jpg","0","1","1","0","1","0","0.476261100033298","0.358863900182769","0.450780699960887","1","1","1","1","1","1","1","1","1"
"250047","img/neutralC/CFD-IM-616-214-N.jpg","img/neutralC/CFD-MF-352-054-N.jpg","img/neutralC/CFD-WF-214-122-N.jpg","1","0","1","0","0","1","0.450780699960887","0.476261100033298","0.427810000022873","1","1","1","1","1","1","1","1","1"
"250047","img/neutralC/CFD-WF-214-122-N.jpg","img/neutralC/CFD-IM-616-214-N.jpg","img/neutralC/CFD-AM-211-052-N.jpg","1","1","1","1","0","1","0.427810000022873","0.450780699960887","0.393093100050464","1","1","1","1","1","1","1","1","1"
"250047","img/neutralC/CFD-AM-211-052-N.jpg","img/neutralC/CFD-WF-214-122-N.jpg","img/neutralC/CFD-BM-225-154-N.jpg","1","1","1","1","1","1","0.393093100050464","0.427810000022873","0.380300400080159","1","1","1","1","1","1","1","1","1"
"250047","img/neutralC/CFD-BM-225-154-N.jpg","img/neutralC/CFD-AM-211-052-N.jpg","img/neutralC/CFD-IF-623-129-N.jpg","1","1","1","1","1","1","0.380300400080159","0.393093100050464","0.3743587997742","1","1","1","1","1","1","1","1","1"
"250047","img/neutralC/CFD-IF-623-129-N.jpg","img/neutralC/CFD-BM-225-154-N.jpg","img/neutralC/CFD-BF-038-037-N.jpg","1","1","1","1","1","1","0.3743587997742","0.380300400080159","0.353743799962103","1","1","1","1","1","1","1","1","1"
"250047","img/neutralC/CFD-BF-038-037-N.jpg","img/neutralC/CFD-IF-623-129-N.jpg","img/neutralC/CFD-WM-219-008-N.jpg","1","1","0","1","1","0","0.353743799962103","0.3743587997742","0.344207100104541","1","1","1","1","1","1","1","1","1"
"250047","img/neutralC/CFD-WM-219-008-N.jpg","img/neutralC/CFD-BF-038-037-N.jpg","img/neutralC/CFD-IM-743-006-N.jpg","0","1","1","0","1","1","0.344207100104541","0.353743799962103","0.325430799974129","1","1","1","1","1","1","1","1","1"
"250047","img/neutralC/CFD-IM-743-006-N.jpg","img/neutralC/CFD-WM-219-008-N.jpg",NA,"1","0",NA,"1","0",NA,"0.325430799974129","0.344207100104541",NA,"1","1",NA,"1","1",NA,"1","1",NA
"250047","img/neutralC/CFD-WF-007-001-N.jpg",NA,"img/neutralC/CFD-AF-233-190-N.jpg","1",NA,"0","1",NA,"0","0.470891500124708",NA,"0.443364700069651","1",NA,"1","1",NA,"1","1",NA,"1"
"250047","img/neutralC/CFD-AF-233-190-N.jpg","img/neutralC/CFD-WF-007-001-N.jpg","img/neutralC/CFD-WF-244-163-N.jpg","0","1","1","0","1","1","0.443364700069651","0.470891500124708","0.400696000084281","1","1","1","1","1","1","1","1","1"
"250047","img/neutralC/CFD-WF-244-163-N.jpg","img/neutralC/CFD-AF-233-190-N.jpg","img/neutralC/CFD-IF-626-375-N.jpg","1","0","0","1","0","0","0.400696000084281","0.443364700069651","0.470199899980798","1","1","1","1","1","1","1","1","1"
"250047","img/neutralC/CFD-IF-626-375-N.jpg","img/neutralC/CFD-WF-244-163-N.jpg","img/neutralC/CFD-BF-014-002-N.jpg","0","1","0","0","1","1","0.470199899980798","0.400696000084281","0.331562899984419","1","1","1","1","1","1","1","1","1"
"250047","img/neutralC/CFD-BF-014-002-N.jpg","img/neutralC/CFD-IF-626-375-N.jpg","img/neutralC/CFD-LM-200-045-N.jpg","0","0","1","1","0","1","0.331562899984419","0.470199899980798","0.520837099989876","1","1","1","1","1","1","1","1","1"
"250047","img/neutralC/CFD-LM-200-045-N.jpg","img/neutralC/CFD-BF-014-002-N.jpg","img/neutralC/CFD-IF-660-464-N.jpg","1","0","0","1","1","0","0.520837099989876","0.331562899984419","0.32443860010244","1","1","1","1","1","1","1","1","1"
"250047","img/neutralC/CFD-IF-660-464-N.jpg","img/neutralC/CFD-LM-200-045-N.jpg","img/neutralC/CFD-LF-206-078-N.jpg","0","1","1","0","1","1","0.32443860010244","0.520837099989876","0.357737200101838","1","1","1","1","1","1","1","1","1"
"250047","img/neutralC/CFD-LF-206-078-N.jpg","img/neutralC/CFD-IF-660-464-N.jpg","img/neutralC/CFD-WM-218-074-N.jpg","1","0","1","1","0","1","0.357737200101838","0.32443860010244","0.38401270005852","1","1","1","1","1","1","1","1","1"
"250047","img/neutralC/CFD-WM-218-074-N.jpg","img/neutralC/CFD-LF-206-078-N.jpg","img/neutralC/CFD-IM-667-369-N.jpg","1","1","1","1","1","0","0.38401270005852","0.357737200101838","0.462214800063521","1","1","1","1","1","1","1","1","1"
"250047","img/neutralC/CFD-IM-667-369-N.jpg","img/neutralC/CFD-WM-218-074-N.jpg","img/neutralC/CFD-LF-255-088-N.jpg","1","1","1","0","1","0","0.462214800063521","0.38401270005852","0.397343199932948","1","1","1","1","1","1","1","1","1"
"250047","img/neutralC/CFD-LF-255-088-N.jpg","img/neutralC/CFD-IM-667-369-N.jpg","img/neutralC/CFD-BM-001-014-N.jpg","1","1","0","0","0","0","0.397343199932948","0.462214800063521","0.510927299968898","1","1","1","1","1","1","1","1","1"
"250047","img/neutralC/CFD-BM-001-014-N.jpg","img/neutralC/CFD-LF-255-088-N.jpg","img/neutralC/CFD-IM-706-002-N.jpg","0","1","1","0","0","0","0.510927299968898","0.397343199932948","0.482418400002643","1","1","1","1","1","1","1","1","1"
"250047","img/neutralC/CFD-IM-706-002-N.jpg","img/neutralC/CFD-BM-001-014-N.jpg","img/neutralC/CFD-MF-305-014-N.jpg","1","0","1","0","0","1","0.482418400002643","0.510927299968898","0.33622319996357","1","1","1","1","1","1","1","1","1"
"250047","img/neutralC/CFD-MF-305-014-N.jpg","img/neutralC/CFD-IM-706-002-N.jpg","img/neutralC/CFD-MF-303-013-N.jpg","1","1","0","1","0","0","0.33622319996357","0.482418400002643","0.331456999992952","1","1","1","1","1","1","1","1","1"
"250047","img/neutralC/CFD-MF-303-013-N.jpg","img/neutralC/CFD-MF-305-014-N.jpg","img/neutralC/CFD-MF-316-001-N.jpg","0","1","1","0","1","0","0.331456999992952","0.33622319996357","0.417778000002727","1","1","1","1","1","1","1","1","1"
"250047","img/neutralC/CFD-MF-316-001-N.jpg","img/neutralC/CFD-MF-303-013-N.jpg","img/neutralC/CFD-BM-250-170-N.jpg","1","0","0","0","0","1","0.417778000002727","0.331456999992952","0.360836800187826","1","1","1","1","1","1","1","1","1"
"250047","img/neutralC/CFD-BM-250-170-N.jpg","img/neutralC/CFD-MF-316-001-N.jpg","img/neutralC/CFD-IM-680-369-N.jpg","0","1","1","1","0","1","0.360836800187826","0.417778000002727","0.364801800111309","1","1","1","1","1","1","1","1","1"
"250047","img/neutralC/CFD-IM-680-369-N.jpg","img/neutralC/CFD-BM-250-170-N.jpg","img/neutralC/CFD-IM-702-101-N.jpg","1","0","1","1","1","1","0.364801800111309","0.360836800187826","0.465335799846798","1","1","1","1","1","1","1","1","1"
"250047","img/neutralC/CFD-IM-702-101-N.jpg","img/neutralC/CFD-IM-680-369-N.jpg","img/neutralC/CFD-WF-222-092-N.jpg","1","1","1","1","1","1","0.465335799846798","0.364801800111309","0.405459499917924","1","1","1","1","1","1","1","1","1"
"250047","img/neutralC/CFD-WF-222-092-N.jpg","img/neutralC/CFD-IM-702-101-N.jpg","img/neutralC/CFD-IM-664-651-N.jpg","1","1","1","1","1","1","0.405459499917924","0.465335799846798","0.417872299905866","1","1","1","1","1","1","1","1","1"
"250047","img/neutralC/CFD-IM-664-651-N.jpg","img/neutralC/CFD-WF-222-092-N.jpg","img/neutralC/CFD-WM-015-002-N.jpg","1","1","1","1","1","0","0.417872299905866","0.405459499917924","0.514960100175813","1","1","1","1","1","1","1","1","1"
"250047","img/neutralC/CFD-WM-015-002-N.jpg","img/neutralC/CFD-IM-664-651-N.jpg","img/neutralC/CFD-AM-220-134-N.jpg","1","1","1","0","1","0","0.514960100175813","0.417872299905866","0.493471200112253","1","1","1","1","1","1","1","1","1"
"250047","img/neutralC/CFD-AM-220-134-N.jpg","img/neutralC/CFD-WM-015-002-N.jpg","img/neutralC/CFD-MM-324-069-N.jpg","1","1","1","0","0","1","0.493471200112253","0.514960100175813","0.34652839996852","1","1","1","1","1","1","1","1","1"
"250047","img/neutralC/CFD-MM-324-069-N.jpg","img/neutralC/CFD-AM-220-134-N.jpg","img/neutralC/CFD-BF-237-172-N.jpg","1","1","1","1","0","1","0.34652839996852","0.493471200112253","0.358879500068724","1","1","1","1","1","1","1","1","1"
"250047","img/neutralC/CFD-BF-237-172-N.jpg","img/neutralC/CFD-MM-324-069-N.jpg","img/neutralC/CFD-WM-209-038-N.jpg","1","1","1","1","1","0","0.358879500068724","0.34652839996852","0.376047200057656","1","1","1","1","1","1","1","1","1"
"250047","img/neutralC/CFD-WM-209-038-N.jpg","img/neutralC/CFD-BF-237-172-N.jpg","img/neutralC/CFD-MF-357-002-N.jpg","1","1","1","0","1","0","0.376047200057656","0.358879500068724","0.434923000168055","1","1","1","1","1","1","1","1","1"
"250047","img/neutralC/CFD-MF-357-002-N.jpg","img/neutralC/CFD-WM-209-038-N.jpg","img/neutralC/CFD-WF-030-002-N.jpg","1","1","1","0","0","0","0.434923000168055","0.376047200057656","0.503564100014046","1","1","1","1","1","1","1","1","1"
"250047","img/neutralC/CFD-WF-030-002-N.jpg","img/neutralC/CFD-MF-357-002-N.jpg","img/neutralC/CFD-BM-217-082-N.jpg","1","1","1","0","0","0","0.503564100014046","0.434923000168055","0.544545299839228","1","1","1","1","1","1","1","1","1"
"250047","img/neutralC/CFD-BM-217-082-N.jpg","img/neutralC/CFD-WF-030-002-N.jpg","img/neutralC/CFD-LM-225-130-N.jpg","1","1","1","0","0","0","0.544545299839228","0.503564100014046","0.433295600116253","1","1","1","1","1","1","1","1","1"
"250047","img/neutralC/CFD-LM-225-130-N.jpg","img/neutralC/CFD-BM-217-082-N.jpg","img/neutralC/CFD-AF-253-130-N.jpg","1","1","0","0","0","1","0.433295600116253","0.544545299839228","0.434146899962798","1","1","1","1","1","1","1","1","1"
"250047","img/neutralC/CFD-AF-253-130-N.jpg","img/neutralC/CFD-LM-225-130-N.jpg","img/neutralC/CFD-MF-343-001-N.jpg","0","1","1","1","0","1","0.434146899962798","0.433295600116253","0.502456599846482","1","1","1","1","1","1","1","1","1"
"250047","img/neutralC/CFD-MF-343-001-N.jpg","img/neutralC/CFD-AF-253-130-N.jpg",NA,"1","0",NA,"1","1",NA,"0.502456599846482","0.434146899962798",NA,"1","1",NA,"1","1",NA,"1","1",NA
"250047","img/neutralC/CFD-AM-205-153-N.jpg",NA,"img/neutralC/CFD-IM-689-263-N.jpg","1",NA,"1","1",NA,"1","0.618975100107491",NA,"0.398010100005195","1",NA,"1","1",NA,"1","1",NA,"1"
"250047","img/neutralC/CFD-IM-689-263-N.jpg","img/neutralC/CFD-AM-205-153-N.jpg","img/neutralC/CFD-IF-676-017-N.jpg","1","1","1","1","1","1","0.398010100005195","0.618975100107491","0.445256799925119","1","1","1","1","1","1","1","1","1"
"250047","img/neutralC/CFD-IF-676-017-N.jpg","img/neutralC/CFD-IM-689-263-N.jpg","img/neutralC/CFD-IM-606-008-N.jpg","1","1","0","1","1","0","0.445256799925119","0.398010100005195","0.571108600124717","1","1","1","1","1","1","1","1","1"
"250047","img/neutralC/CFD-IM-606-008-N.jpg","img/neutralC/CFD-IF-676-017-N.jpg","img/neutralC/CFD-AM-249-163-N.jpg","0","1","1","0","1","1","0.571108600124717","0.445256799925119","0.334752900060266","1","1","1","1","1","1","1","1","1"
"250047","img/neutralC/CFD-AM-249-163-N.jpg","img/neutralC/CFD-IM-606-008-N.jpg","img/neutralC/CFD-BM-009-002-N.jpg","1","0","1","1","0","1","0.334752900060266","0.571108600124717","0.436467400053516","1","1","1","1","1","1","1","1","1"
"250047","img/neutralC/CFD-BM-009-002-N.jpg","img/neutralC/CFD-AM-249-163-N.jpg","img/neutralC/CFD-LM-240-013-N.jpg","1","1","1","1","1","1","0.436467400053516","0.334752900060266","0.345782399876043","1","1","1","1","1","1","1","1","1"
"250047","img/neutralC/CFD-LM-240-013-N.jpg","img/neutralC/CFD-BM-009-002-N.jpg","img/neutralC/CFD-AF-237-223-N.jpg","1","1","1","1","1","0","0.345782399876043","0.436467400053516","0.4198898000177","1","1","1","1","1","1","1","1","1"
"250047","img/neutralC/CFD-AF-237-223-N.jpg","img/neutralC/CFD-LM-240-013-N.jpg","img/neutralC/CFD-AM-243-212-N.jpg","1","1","1","0","1","1","0.4198898000177","0.345782399876043","0.397708900040016","1","1","1","1","1","1","1","1","1"
"250047","img/neutralC/CFD-AM-243-212-N.jpg","img/neutralC/CFD-AF-237-223-N.jpg","img/neutralC/CFD-WM-028-003-N.jpg","1","1","1","1","0","1","0.397708900040016","0.4198898000177","0.417484000092372","1","1","1","1","1","1","1","1","1"
"250047","img/neutralC/CFD-WM-028-003-N.jpg","img/neutralC/CFD-AM-243-212-N.jpg","img/neutralC/CFD-BM-021-021-N.jpg","1","1","1","1","1","1","0.417484000092372","0.397708900040016","0.443666100036353","1","1","1","1","1","1","1","1","1"
"250047","img/neutralC/CFD-BM-021-021-N.jpg","img/neutralC/CFD-WM-028-003-N.jpg","img/neutralC/CFD-LF-222-147-N.jpg","1","1","0","1","1","0","0.443666100036353","0.417484000092372","0.395618799841031","1","1","1","1","1","1","1","1","1"
"250047","img/neutralC/CFD-LF-222-147-N.jpg","img/neutralC/CFD-BM-021-021-N.jpg","img/neutralC/CFD-MF-328-020-N.jpg","0","1","1","0","1","0","0.395618799841031","0.443666100036353","0.372964600101113","1","1","1","1","1","1","1","1","1"
"250047","img/neutralC/CFD-MF-328-020-N.jpg","img/neutralC/CFD-LF-222-147-N.jpg","img/neutralC/CFD-LF-238-154-N.jpg","1","0","1","0","0","1","0.372964600101113","0.395618799841031","0.455280600115657","1","1","1","1","1","1","1","1","1"
"250047","img/neutralC/CFD-LF-238-154-N.jpg","img/neutralC/CFD-MF-328-020-N.jpg","img/neutralC/CFD-LF-212-066-N.jpg","1","1","1","1","0","1","0.455280600115657","0.372964600101113","0.454584500053898","1","1","1","1","1","1","1","1","1"
"250047","img/neutralC/CFD-LF-212-066-N.jpg","img/neutralC/CFD-LF-238-154-N.jpg","img/neutralC/CFD-WF-241-210-N.jpg","1","1","0","1","1","0","0.454584500053898","0.455280600115657","0.464788399869576","1","1","1","1","1","1","1","1","1"
"250047","img/neutralC/CFD-WF-241-210-N.jpg","img/neutralC/CFD-LF-212-066-N.jpg","img/neutralC/CFD-WF-221-005-N.jpg","0","1","1","0","1","0","0.464788399869576","0.454584500053898","0.4456327999942","1","1","1","1","1","1","1","1","1"
"250047","img/neutralC/CFD-WF-221-005-N.jpg","img/neutralC/CFD-WF-241-210-N.jpg","img/neutralC/CFD-IM-615-167-N.jpg","1","0","1","0","0","0","0.4456327999942","0.464788399869576","0.394396400079131","1","1","1","1","1","1","1","1","1"
"250047","img/neutralC/CFD-IM-615-167-N.jpg","img/neutralC/CFD-WF-221-005-N.jpg","img/neutralC/CFD-BM-030-003-N.jpg","1","1","1","0","0","0","0.394396400079131","0.4456327999942","0.428846300113946","1","1","1","1","1","1","1","1","1"
"250047","img/neutralC/CFD-BM-030-003-N.jpg","img/neutralC/CFD-IM-615-167-N.jpg","img/neutralC/CFD-MM-306-010-N.jpg","1","1","0","0","0","0","0.428846300113946","0.394396400079131","0.401647299993783","1","1","1","1","1","1","1","1","1"
"250047","img/neutralC/CFD-MM-306-010-N.jpg","img/neutralC/CFD-BM-030-003-N.jpg","img/neutralC/CFD-WF-207-014-N.jpg","0","1","1","0","0","1","0.401647299993783","0.428846300113946","0.453588899923488","1","1","1","1","1","1","1","1","1"
"250047","img/neutralC/CFD-WF-207-014-N.jpg","img/neutralC/CFD-MM-306-010-N.jpg","img/neutralC/CFD-AM-219-101-N.jpg","1","0","1","1","0","0","0.453588899923488","0.401647299993783","0.522561600198969","1","1","1","1","1","1","1","1","1"
"250047","img/neutralC/CFD-AM-219-101-N.jpg","img/neutralC/CFD-WF-207-014-N.jpg","img/neutralC/CFD-WM-023-001-N.jpg","1","1","1","0","1","0","0.522561600198969","0.453588899923488","0.514507099986076","1","1","1","1","1","1","1","1","1"
"250047","img/neutralC/CFD-WM-023-001-N.jpg","img/neutralC/CFD-AM-219-101-N.jpg","img/neutralC/CFD-BM-043-071-N.jpg","1","1","1","0","0","0","0.514507099986076","0.522561600198969","0.43658380000852","1","1","1","1","1","1","1","1","1"
"250047","img/neutralC/CFD-BM-043-071-N.jpg","img/neutralC/CFD-WM-023-001-N.jpg","img/neutralC/CFD-BM-020-001-N.jpg","1","1","0","0","0","0","0.43658380000852","0.514507099986076","0.447188300080597","1","1","1","1","1","1","1","1","1"
"250047","img/neutralC/CFD-BM-020-001-N.jpg","img/neutralC/CFD-BM-043-071-N.jpg","img/neutralC/CFD-IM-697-015-N.jpg","0","1","1","0","0","1","0.447188300080597","0.43658380000852","0.413414400070906","1","1","1","1","1","1","1","1","1"
"250047","img/neutralC/CFD-IM-697-015-N.jpg","img/neutralC/CFD-BM-020-001-N.jpg","img/neutralC/CFD-BF-012-001-N.jpg","1","0","0","1","0","0","0.413414400070906","0.447188300080597","0.407486899988726","1","1","1","1","1","1","1","1","1"
"250047","img/neutralC/CFD-BF-012-001-N.jpg","img/neutralC/CFD-IM-697-015-N.jpg","img/neutralC/CFD-WM-025-002-N.jpg","0","1","0","0","1","0","0.407486899988726","0.413414400070906","0.377570800017565","1","1","1","1","1","1","1","1","1"
"250047","img/neutralC/CFD-WM-025-002-N.jpg","img/neutralC/CFD-BF-012-001-N.jpg","img/neutralC/CFD-WF-009-001-N.jpg","0","0","1","0","0","1","0.377570800017565","0.407486899988726","0.477319600060582","1","1","1","1","1","1","1","1","1"
"250047","img/neutralC/CFD-WF-009-001-N.jpg","img/neutralC/CFD-WM-025-002-N.jpg","img/neutralC/CFD-BM-227-191-N.jpg","1","0","1","1","0","1","0.477319600060582","0.377570800017565","0.357024100143462","1","1","1","1","1","1","1","1","1"
"250047","img/neutralC/CFD-BM-227-191-N.jpg","img/neutralC/CFD-WF-009-001-N.jpg","img/neutralC/CFD-WF-243-148-N.jpg","1","1","1","1","1","0","0.357024100143462","0.477319600060582","0.607324799988419","1","1","1","1","1","1","1","1","1"
"250047","img/neutralC/CFD-WF-243-148-N.jpg","img/neutralC/CFD-BM-227-191-N.jpg","img/neutralC/CFD-BF-244-231-N.jpg","1","1","1","0","1","1","0.607324799988419","0.357024100143462","0.366053299978375","1","1","1","1","1","1","1","1","1"
"250047","img/neutralC/CFD-BF-244-231-N.jpg","img/neutralC/CFD-WF-243-148-N.jpg",NA,"1","1",NA,"1","0",NA,"0.366053299978375","0.607324799988419",NA,"1","1",NA,"1","1",NA,"1","1",NA
"250047","img/neutralC/CFD-MM-321-021-N.jpg",NA,"img/neutralC/CFD-WF-018-017-N.jpg","0",NA,"1","0",NA,"1","0.753084799973294",NA,"0.382801399799064","1",NA,"1","1",NA,"1","1",NA,"1"
"250047","img/neutralC/CFD-WF-018-017-N.jpg","img/neutralC/CFD-MM-321-021-N.jpg","img/neutralC/CFD-WM-009-002-N.jpg","1","0","0","1","0","0","0.382801399799064","0.753084799973294","0.437085200101137","1","1","1","1","1","1","1","1","2"
"250047","img/neutralC/CFD-WM-009-002-N.jpg","img/neutralC/CFD-WF-018-017-N.jpg","img/neutralC/CFD-WM-221-091-N.jpg","0","1","0","0","1","0","0.437085200101137","0.382801399799064","0.440898600034416","1","1","1","1","1","1","2","1","1"
"250047","img/neutralC/CFD-WM-221-091-N.jpg","img/neutralC/CFD-WM-009-002-N.jpg","img/neutralC/CFD-WM-013-001-N.jpg","0","0","1","0","0","1","0.440898600034416","0.437085200101137","0.44484190014191","1","1","1","1","1","1","1","2","1"
"250047","img/neutralC/CFD-WM-013-001-N.jpg","img/neutralC/CFD-WM-221-091-N.jpg","img/neutralC/CFD-BF-254-201-N.jpg","1","0","1","1","0","0","0.44484190014191","0.440898600034416","0.419190600048751","1","1","1","1","1","1","1","1","1"
"250047","img/neutralC/CFD-BF-254-201-N.jpg","img/neutralC/CFD-WM-013-001-N.jpg","img/neutralC/CFD-WF-027-003-N.jpg","1","1","1","0","1","1","0.419190600048751","0.44484190014191","0.374636100139469","1","1","1","1","1","1","1","1","1"
"250047","img/neutralC/CFD-WF-027-003-N.jpg","img/neutralC/CFD-BF-254-201-N.jpg","img/neutralC/CFD-WM-255-219-N.jpg","1","1","0","1","0","0","0.374636100139469","0.419190600048751","0.413276200182736","1","1","1","1","1","1","1","1","1"
"250047","img/neutralC/CFD-WM-255-219-N.jpg","img/neutralC/CFD-WF-027-003-N.jpg","img/neutralC/CFD-WF-245-084-N.jpg","0","1","1","0","1","1","0.413276200182736","0.374636100139469","0.344805600121617","1","1","1","1","1","1","1","1","1"
"250047","img/neutralC/CFD-WF-245-084-N.jpg","img/neutralC/CFD-WM-255-219-N.jpg","img/neutralC/CFD-WF-226-095-N.jpg","1","0","1","1","0","1","0.344805600121617","0.413276200182736","0.483317899983376","1","1","1","1","1","1","1","1","1"
"250047","img/neutralC/CFD-WF-226-095-N.jpg","img/neutralC/CFD-WF-245-084-N.jpg","img/neutralC/CFD-AF-221-147-N.jpg","1","1","0","1","1","0","0.483317899983376","0.344805600121617","0.387007100041956","1","1","1","1","1","1","1","1","1"
"250047","img/neutralC/CFD-AF-221-147-N.jpg","img/neutralC/CFD-WF-226-095-N.jpg","img/neutralC/CFD-BM-204-003-N.jpg","0","1","1","0","1","0","0.387007100041956","0.483317899983376","0.41189009998925","1","1","1","1","1","1","1","1","1"
"250047","img/neutralC/CFD-BM-204-003-N.jpg","img/neutralC/CFD-AF-221-147-N.jpg","img/neutralC/CFD-BM-200-046-N.jpg","1","0","0","0","0","0","0.41189009998925","0.387007100041956","0.637397599872202","1","1","1","1","1","1","1","1","1"
"250047","img/neutralC/CFD-BM-200-046-N.jpg","img/neutralC/CFD-BM-204-003-N.jpg","img/neutralC/CFD-BF-218-207-N.jpg","0","1","1","0","0","1","0.637397599872202","0.41189009998925","0.379715899936855","1","1","1","1","1","1","1","1","1"
"250047","img/neutralC/CFD-BF-218-207-N.jpg","img/neutralC/CFD-BM-200-046-N.jpg","img/neutralC/CFD-WF-238-023-N.jpg","1","0","1","1","0","0","0.379715899936855","0.637397599872202","0.555207199882716","1","1","1","1","1","1","1","1","1"
"250047","img/neutralC/CFD-WF-238-023-N.jpg","img/neutralC/CFD-BF-218-207-N.jpg","img/neutralC/CFD-IM-700-009-N.jpg","1","1","1","0","1","1","0.555207199882716","0.379715899936855","0.382460599998012","1","1","1","1","1","1","1","1","1"
"250047","img/neutralC/CFD-IM-700-009-N.jpg","img/neutralC/CFD-WF-238-023-N.jpg","img/neutralC/CFD-MF-321-003-N.jpg","1","1","0","1","0","0","0.382460599998012","0.555207199882716","0.50215829978697","1","1","1","1","1","1","1","1","2"
"250047","img/neutralC/CFD-MF-321-003-N.jpg","img/neutralC/CFD-IM-700-009-N.jpg","img/neutralC/CFD-IM-719-221-N.jpg","0","1","1","0","1","0","0.50215829978697","0.382460599998012","0.581186299910769","1","1","1","1","1","1","2","1","1"
"250047","img/neutralC/CFD-IM-719-221-N.jpg","img/neutralC/CFD-MF-321-003-N.jpg","img/neutralC/CFD-LF-211-003-N.jpg","1","0","1","0","0","0","0.581186299910769","0.50215829978697","0.399843299994245","1","1","1","1","1","1","1","2","1"
"250047","img/neutralC/CFD-LF-211-003-N.jpg","img/neutralC/CFD-IM-719-221-N.jpg","img/neutralC/CFD-BF-018-039-N.jpg","1","1","1","0","0","1","0.399843299994245","0.581186299910769","0.409032500116155","1","1","1","1","1","1","1","1","1"
"250047","img/neutralC/CFD-BF-018-039-N.jpg","img/neutralC/CFD-LF-211-003-N.jpg","img/neutralC/CFD-AF-232-078-N.jpg","1","1","1","1","0","1","0.409032500116155","0.399843299994245","0.395454300101846","1","1","1","1","1","1","1","1","1"
"250047","img/neutralC/CFD-AF-232-078-N.jpg","img/neutralC/CFD-BF-018-039-N.jpg","img/neutralC/CFD-MF-318-022-N.jpg","1","1","1","1","1","1","0.395454300101846","0.409032500116155","0.385419699829072","1","1","1","1","1","1","1","1","1"
"250047","img/neutralC/CFD-MF-318-022-N.jpg","img/neutralC/CFD-AF-232-078-N.jpg","img/neutralC/CFD-LF-215-157-N.jpg","1","1","0","1","1","0","0.385419699829072","0.395454300101846","0.353102300083265","1","1","1","1","1","1","1","1","1"
"250047","img/neutralC/CFD-LF-215-157-N.jpg","img/neutralC/CFD-MF-318-022-N.jpg","img/neutralC/CFD-WM-237-052-N.jpg","0","1","1","0","1","1","0.353102300083265","0.385419699829072","0.561510399915278","1","1","1","1","1","1","1","1","1"
"250047","img/neutralC/CFD-WM-237-052-N.jpg","img/neutralC/CFD-LF-215-157-N.jpg","img/neutralC/CFD-BM-023-029-N.jpg","1","0","1","1","0","1","0.561510399915278","0.353102300083265","0.427856399910524","1","1","1","1","1","1","1","1","1"
"250047","img/neutralC/CFD-BM-023-029-N.jpg","img/neutralC/CFD-WM-237-052-N.jpg","img/neutralC/CFD-AM-244-222-N.jpg","1","1","1","1","1","0","0.427856399910524","0.561510399915278","0.507266799919307","1","1","1","1","1","1","1","1","1"
"250047","img/neutralC/CFD-AM-244-222-N.jpg","img/neutralC/CFD-BM-023-029-N.jpg","img/neutralC/CFD-IF-629-234-N.jpg","1","1","1","0","1","0","0.507266799919307","0.427856399910524","0.446831700159237","1","1","1","1","1","1","1","1","1"
"250047","img/neutralC/CFD-IF-629-234-N.jpg","img/neutralC/CFD-AM-244-222-N.jpg","img/neutralC/CFD-IM-627-178-N.jpg","1","1","1","0","0","1","0.446831700159237","0.507266799919307","0.364414199953899","1","1","1","1","1","1","1","1","1"
"250047","img/neutralC/CFD-IM-627-178-N.jpg","img/neutralC/CFD-IF-629-234-N.jpg","img/neutralC/CFD-MF-342-022-N.jpg","1","1","1","1","0","1","0.364414199953899","0.446831700159237","0.444796500029042","1","1","1","1","1","1","1","1","1"
"250047","img/neutralC/CFD-MF-342-022-N.jpg","img/neutralC/CFD-IM-627-178-N.jpg","img/neutralC/CFD-WF-023-003-N.jpg","1","1","1","1","1","1","0.444796500029042","0.364414199953899","0.400672900024801","1","1","1","1","1","1","1","1","1"
"250047","img/neutralC/CFD-WF-023-003-N.jpg","img/neutralC/CFD-MF-342-022-N.jpg","img/neutralC/CFD-LM-253-075-N.jpg","1","1","1","1","1","0","0.400672900024801","0.444796500029042","0.52138359984383","1","1","1","1","1","1","1","1","1"
"250047","img/neutralC/CFD-LM-253-075-N.jpg","img/neutralC/CFD-WF-023-003-N.jpg","img/neutralC/CFD-WM-201-063-N.jpg","1","1","1","0","1","1","0.52138359984383","0.400672900024801","0.409621900180355","1","1","1","1","1","1","1","1","1"
"250047","img/neutralC/CFD-WM-201-063-N.jpg","img/neutralC/CFD-LM-253-075-N.jpg",NA,"1","1",NA,"1","0",NA,"0.409621900180355","0.52138359984383",NA,"1","1",NA,"1","1",NA,"1","1",NA
