"participant_id","current_trial_face","pre_trial_face","post_trial_face","current_trial_accuracy","pre_trial_accuracy","post_trial_accuracy","current_trial_congruency","pre_trial_congruency","post_trial_congruency","current_trial_rt","pre_trial_rt","post_trial_rt","current_trial_responded","pre_trial_responded","post_trial_responded","current_trial_legitResponse","pre_trial_legitResponse","post_trial_legitResponse","current_trial_resp_nums","pre_trial_resp_nums","post_trial_resp_nums"
"250064","img/neutralC/CFD-BF-027-002-N.jpg",NA,"img/neutralC/CFD-IF-729-393-N.jpg","1",NA,"0","1",NA,"0","0.76777569996193",NA,"0.895927499979734","1",NA,"1","1",NA,"1","1",NA,"1"
"250064","img/neutralC/CFD-IF-729-393-N.jpg","img/neutralC/CFD-BF-027-002-N.jpg","img/neutralC/CFD-WM-014-002-N.jpg","0","1","0","0","1","0","0.895927499979734","0.76777569996193","0.999495800002478","1","1","1","1","1","1","1","1","1"
"250064","img/neutralC/CFD-WM-014-002-N.jpg","img/neutralC/CFD-IF-729-393-N.jpg","img/neutralC/CFD-WF-208-068-N.jpg","0","0","1","0","0","1","0.999495800002478","0.895927499979734","0.651399199967273","1","1","1","1","1","1","1","1","1"
"250064","img/neutralC/CFD-WF-208-068-N.jpg","img/neutralC/CFD-WM-014-002-N.jpg","img/neutralC/CFD-BM-036-003-N.jpg","1","0","1","1","0","1","0.651399199967273","0.999495800002478","0.534343600040302","1","1","1","1","1","1","1","1","1"
"250064","img/neutralC/CFD-BM-036-003-N.jpg","img/neutralC/CFD-WF-208-068-N.jpg","img/neutralC/CFD-BF-044-034-N.jpg","1","1","1","1","1","0","0.534343600040302","0.651399199967273","0.545993499923497","1","1","1","1","1","1","1","1","1"
"250064","img/neutralC/CFD-BF-044-034-N.jpg","img/neutralC/CFD-BM-036-003-N.jpg","img/neutralC/CFD-WM-034-030-N.jpg","1","1","1","0","1","1","0.545993499923497","0.534343600040302","0.532832600059919","1","1","1","1","1","1","1","1","1"
"250064","img/neutralC/CFD-WM-034-030-N.jpg","img/neutralC/CFD-BF-044-034-N.jpg","img/neutralC/CFD-IM-696-001-N.jpg","1","1","1","1","0","0","0.532832600059919","0.545993499923497","0.542441099998541","1","1","1","1","1","1","1","1","1"
"250064","img/neutralC/CFD-IM-696-001-N.jpg","img/neutralC/CFD-WM-034-030-N.jpg","img/neutralC/CFD-BF-006-017-N.jpg","1","1","1","0","1","0","0.542441099998541","0.532832600059919","0.64351429999806","1","1","1","1","1","1","1","1","1"
"250064","img/neutralC/CFD-BF-006-017-N.jpg","img/neutralC/CFD-IM-696-001-N.jpg","img/neutralC/CFD-BF-214-308-N.jpg","1","1","1","0","0","1","0.64351429999806","0.542441099998541","0.579146299976856","1","1","1","1","1","1","1","1","1"
"250064","img/neutralC/CFD-BF-214-308-N.jpg","img/neutralC/CFD-BF-006-017-N.jpg","img/neutralC/CFD-BM-238-242-N.jpg","1","1","1","1","0","0","0.579146299976856","0.64351429999806","0.502749999985099","1","1","1","1","1","1","1","1","1"
"250064","img/neutralC/CFD-BM-238-242-N.jpg","img/neutralC/CFD-BF-214-308-N.jpg","img/neutralC/CFD-IM-726-248-N.jpg","1","1","1","0","1","0","0.502749999985099","0.579146299976856","0.556165200076066","1","1","1","1","1","1","1","1","1"
"250064","img/neutralC/CFD-IM-726-248-N.jpg","img/neutralC/CFD-BM-238-242-N.jpg","img/neutralC/CFD-BF-247-179-N.jpg","1","1","1","0","0","0","0.556165200076066","0.502749999985099","0.588617199915461","1","1","1","1","1","1","1","1","1"
"250064","img/neutralC/CFD-BF-247-179-N.jpg","img/neutralC/CFD-IM-726-248-N.jpg","img/neutralC/CFD-WF-233-112-N.jpg","1","1","1","0","0","1","0.588617199915461","0.556165200076066","0.488353500026278","1","1","1","1","1","1","1","1","1"
"250064","img/neutralC/CFD-WF-233-112-N.jpg","img/neutralC/CFD-BF-247-179-N.jpg","img/neutralC/CFD-BM-241-235-N.jpg","1","1","1","1","0","0","0.488353500026278","0.588617199915461","0.507164499955252","1","1","1","1","1","1","1","1","1"
"250064","img/neutralC/CFD-BM-241-235-N.jpg","img/neutralC/CFD-WF-233-112-N.jpg","img/neutralC/CFD-IF-742-103-N.jpg","1","1","1","0","1","1","0.507164499955252","0.488353500026278","0.570435600006022","1","1","1","1","1","1","1","1","1"
"250064","img/neutralC/CFD-IF-742-103-N.jpg","img/neutralC/CFD-BM-241-235-N.jpg","img/neutralC/CFD-BF-207-004-N.jpg","1","1","1","1","0","1","0.570435600006022","0.507164499955252","0.519543300033547","1","1","1","1","1","1","1","1","1"
"250064","img/neutralC/CFD-BF-207-004-N.jpg","img/neutralC/CFD-IF-742-103-N.jpg","img/neutralC/CFD-BF-002-001-N.jpg","1","1","1","1","1","0","0.519543300033547","0.570435600006022","0.567157599958591","1","1","1","1","1","1","1","1","1"
"250064","img/neutralC/CFD-BF-002-001-N.jpg","img/neutralC/CFD-BF-207-004-N.jpg","img/neutralC/CFD-MF-301-024-N.jpg","1","1","1","0","1","0","0.567157599958591","0.519543300033547","0.531718999962322","1","1","1","1","1","1","1","1","1"
"250064","img/neutralC/CFD-MF-301-024-N.jpg","img/neutralC/CFD-BF-002-001-N.jpg","img/neutralC/CFD-IF-677-452-1-N.jpg","1","1","1","0","0","1","0.531718999962322","0.567157599958591","0.520862200064585","1","1","1","1","1","1","1","1","1"
"250064","img/neutralC/CFD-IF-677-452-1-N.jpg","img/neutralC/CFD-MF-301-024-N.jpg","img/neutralC/CFD-IM-721-341-N.jpg","1","1","1","1","0","1","0.520862200064585","0.531718999962322","0.577068899990991","1","1","1","1","1","1","1","1","1"
"250064","img/neutralC/CFD-IM-721-341-N.jpg","img/neutralC/CFD-IF-677-452-1-N.jpg","img/neutralC/CFD-BF-036-027-N.jpg","1","1","1","1","1","0","0.577068899990991","0.520862200064585","0.623022199957632","1","1","1","1","1","1","1","1","1"
"250064","img/neutralC/CFD-BF-036-027-N.jpg","img/neutralC/CFD-IM-721-341-N.jpg","img/neutralC/CFD-WF-234-086-N.jpg","1","1","1","0","1","1","0.623022199957632","0.577068899990991","0.509331700042821","1","1","1","1","1","1","1","1","1"
"250064","img/neutralC/CFD-WF-234-086-N.jpg","img/neutralC/CFD-BF-036-027-N.jpg","img/neutralC/CFD-BM-207-024-N.jpg","1","1","1","1","0","1","0.509331700042821","0.623022199957632","0.511078999959864","1","1","1","1","1","1","1","1","1"
"250064","img/neutralC/CFD-BM-207-024-N.jpg","img/neutralC/CFD-WF-234-086-N.jpg","img/neutralC/CFD-AM-230-150-N.jpg","1","1","1","1","1","0","0.511078999959864","0.509331700042821","0.514870600076392","1","1","1","1","1","1","1","1","1"
"250064","img/neutralC/CFD-AM-230-150-N.jpg","img/neutralC/CFD-BM-207-024-N.jpg","img/neutralC/CFD-LF-204-133-N.jpg","1","1","1","0","1","1","0.514870600076392","0.511078999959864","0.566031599999405","1","1","1","1","1","1","1","1","1"
"250064","img/neutralC/CFD-LF-204-133-N.jpg","img/neutralC/CFD-AM-230-150-N.jpg","img/neutralC/CFD-IM-707-105-N.jpg","1","1","1","1","0","1","0.566031599999405","0.514870600076392","0.522230600006878","1","1","1","1","1","1","1","1","1"
"250064","img/neutralC/CFD-IM-707-105-N.jpg","img/neutralC/CFD-LF-204-133-N.jpg","img/neutralC/CFD-LM-213-061-N.jpg","1","1","1","1","1","0","0.522230600006878","0.566031599999405","0.560401099966839","1","1","1","1","1","1","1","1","1"
"250064","img/neutralC/CFD-LM-213-061-N.jpg","img/neutralC/CFD-IM-707-105-N.jpg","img/neutralC/CFD-WM-248-036-N.jpg","1","1","1","0","1","1","0.560401099966839","0.522230600006878","0.488752500037663","1","1","1","1","1","1","1","1","1"
"250064","img/neutralC/CFD-WM-248-036-N.jpg","img/neutralC/CFD-LM-213-061-N.jpg","img/neutralC/CFD-BF-011-002-N.jpg","1","1","1","1","0","1","0.488752500037663","0.560401099966839","0.590855399961583","1","1","1","1","1","1","1","1","1"
"250064","img/neutralC/CFD-BF-011-002-N.jpg","img/neutralC/CFD-WM-248-036-N.jpg","img/neutralC/CFD-WF-029-002-N.jpg","1","1","0","1","1","0","0.590855399961583","0.488752500037663","0.819137699902058","1","1","1","1","1","1","1","1","1"
"250064","img/neutralC/CFD-WF-029-002-N.jpg","img/neutralC/CFD-BF-011-002-N.jpg","img/neutralC/CFD-BF-236-177-N.jpg","0","1","1","0","1","0","0.819137699902058","0.590855399961583","0.599999700090848","1","1","1","1","1","1","1","1","1"
"250064","img/neutralC/CFD-BF-236-177-N.jpg","img/neutralC/CFD-WF-029-002-N.jpg",NA,"1","0",NA,"0","0",NA,"0.599999700090848","0.819137699902058",NA,"1","1",NA,"1","1",NA,"1","1",NA
"250064","img/neutralC/CFD-WM-257-161-N.jpg",NA,"img/neutralC/CFD-IF-718-001-N.jpg","1",NA,"1","1",NA,"1","0.663174999994226",NA,"0.472138400073163","1",NA,"1","1",NA,"1","1",NA,"1"
"250064","img/neutralC/CFD-IF-718-001-N.jpg","img/neutralC/CFD-WM-257-161-N.jpg","img/neutralC/CFD-WM-038-003-N.jpg","1","1","1","1","1","0","0.472138400073163","0.663174999994226","0.497323999996297","1","1","1","1","1","1","1","1","1"
"250064","img/neutralC/CFD-WM-038-003-N.jpg","img/neutralC/CFD-IF-718-001-N.jpg","img/neutralC/CFD-BF-028-001-N.jpg","1","1","1","0","1","1","0.497323999996297","0.472138400073163","0.441169300000183","1","1","1","1","1","1","1","1","1"
"250064","img/neutralC/CFD-BF-028-001-N.jpg","img/neutralC/CFD-WM-038-003-N.jpg","img/neutralC/CFD-WM-225-127-N.jpg","1","1","1","1","0","0","0.441169300000183","0.497323999996297","0.416178600047715","1","1","1","1","1","1","1","1","1"
"250064","img/neutralC/CFD-WM-225-127-N.jpg","img/neutralC/CFD-BF-028-001-N.jpg","img/neutralC/CFD-MM-319-052-N.jpg","1","1","1","0","1","1","0.416178600047715","0.441169300000183","0.387636300059967","1","1","1","1","1","1","1","1","1"
"250064","img/neutralC/CFD-MM-319-052-N.jpg","img/neutralC/CFD-WM-225-127-N.jpg","img/neutralC/CFD-BM-027-001-N.jpg","1","1","1","1","0","0","0.387636300059967","0.416178600047715","0.528691899962723","1","1","1","1","1","1","1","1","1"
"250064","img/neutralC/CFD-BM-027-001-N.jpg","img/neutralC/CFD-MM-319-052-N.jpg","img/neutralC/CFD-IF-672-305-N.jpg","1","1","1","0","1","0","0.528691899962723","0.387636300059967","0.627752200001851","1","1","1","1","1","1","1","1","1"
"250064","img/neutralC/CFD-IF-672-305-N.jpg","img/neutralC/CFD-BM-027-001-N.jpg","img/neutralC/CFD-BF-208-266-N.jpg","1","1","1","0","0","0","0.627752200001851","0.528691899962723","0.498821899993345","1","1","1","1","1","1","1","1","1"
"250064","img/neutralC/CFD-BF-208-266-N.jpg","img/neutralC/CFD-IF-672-305-N.jpg","img/neutralC/CFD-BM-015-015-N.jpg","1","1","1","0","0","0","0.498821899993345","0.627752200001851","0.630521600018255","1","1","1","1","1","1","1","1","1"
"250064","img/neutralC/CFD-BM-015-015-N.jpg","img/neutralC/CFD-BF-208-266-N.jpg","img/neutralC/CFD-BF-201-080-N.jpg","1","1","1","0","0","1","0.630521600018255","0.498821899993345","0.431504700100049","1","1","1","1","1","1","1","1","1"
"250064","img/neutralC/CFD-BF-201-080-N.jpg","img/neutralC/CFD-BM-015-015-N.jpg","img/neutralC/CFD-BF-023-010-N.jpg","1","1","1","1","0","1","0.431504700100049","0.630521600018255","0.343444500002079","1","1","1","1","1","1","1","1","1"
"250064","img/neutralC/CFD-BF-023-010-N.jpg","img/neutralC/CFD-BF-201-080-N.jpg","img/neutralC/CFD-WM-002-009-N.jpg","1","1","0","1","1","0","0.343444500002079","0.431504700100049","0.388639899902046","1","1","1","1","1","1","1","1","1"
"250064","img/neutralC/CFD-WM-002-009-N.jpg","img/neutralC/CFD-BF-023-010-N.jpg","img/neutralC/CFD-BF-003-003-N.jpg","0","1","1","0","1","0","0.388639899902046","0.343444500002079","0.560073099914007","1","1","1","1","1","1","1","1","1"
"250064","img/neutralC/CFD-BF-003-003-N.jpg","img/neutralC/CFD-WM-002-009-N.jpg","img/neutralC/CFD-AM-217-085-N.jpg","1","0","1","0","0","0","0.560073099914007","0.388639899902046","0.521779799950309","1","1","1","1","1","1","1","1","1"
"250064","img/neutralC/CFD-AM-217-085-N.jpg","img/neutralC/CFD-BF-003-003-N.jpg","img/neutralC/CFD-IM-639-263-N.jpg","1","1","1","0","0","1","0.521779799950309","0.560073099914007","0.49331789999269","1","1","1","1","1","1","1","1","1"
"250064","img/neutralC/CFD-IM-639-263-N.jpg","img/neutralC/CFD-AM-217-085-N.jpg","img/neutralC/CFD-WF-026-002-N.jpg","1","1","1","1","0","1","0.49331789999269","0.521779799950309","0.447491600061767","1","1","1","1","1","1","1","1","1"
"250064","img/neutralC/CFD-WF-026-002-N.jpg","img/neutralC/CFD-IM-639-263-N.jpg","img/neutralC/CFD-BM-247-240-N.jpg","1","1","1","1","1","0","0.447491600061767","0.49331789999269","0.564763800008222","1","1","1","1","1","1","1","1","1"
"250064","img/neutralC/CFD-BM-247-240-N.jpg","img/neutralC/CFD-WF-026-002-N.jpg","img/neutralC/CFD-WM-040-022-N.jpg","1","1","1","0","1","0","0.564763800008222","0.447491600061767","0.526369599974714","1","1","1","1","1","1","1","1","1"
"250064","img/neutralC/CFD-WM-040-022-N.jpg","img/neutralC/CFD-BM-247-240-N.jpg","img/neutralC/CFD-WF-022-017-N.jpg","1","1","1","0","0","0","0.526369599974714","0.564763800008222","0.638669200008735","1","1","1","1","1","1","1","1","1"
"250064","img/neutralC/CFD-WF-022-017-N.jpg","img/neutralC/CFD-WM-040-022-N.jpg","img/neutralC/CFD-AM-235-241-N.jpg","1","1","1","0","0","0","0.638669200008735","0.526369599974714","0.505310400039889","1","1","1","1","1","1","1","1","1"
"250064","img/neutralC/CFD-AM-235-241-N.jpg","img/neutralC/CFD-WF-022-017-N.jpg","img/neutralC/CFD-LF-236-221-N.jpg","1","1","1","0","0","1","0.505310400039889","0.638669200008735","0.386425700038671","1","1","1","1","1","1","1","1","1"
"250064","img/neutralC/CFD-LF-236-221-N.jpg","img/neutralC/CFD-AM-235-241-N.jpg","img/neutralC/CFD-AM-215-120-N.jpg","1","1","1","1","0","1","0.386425700038671","0.505310400039889","0.437892699963413","1","1","1","1","1","1","1","1","1"
"250064","img/neutralC/CFD-AM-215-120-N.jpg","img/neutralC/CFD-LF-236-221-N.jpg","img/neutralC/CFD-BM-029-024-N.jpg","1","1","1","1","1","1","0.437892699963413","0.386425700038671","0.353043399984017","1","1","1","1","1","1","1","1","1"
"250064","img/neutralC/CFD-BM-029-024-N.jpg","img/neutralC/CFD-AM-215-120-N.jpg","img/neutralC/CFD-IM-728-041-N.jpg","1","1","1","1","1","0","0.353043399984017","0.437892699963413","0.509676999994554","1","1","1","1","1","1","1","1","1"
"250064","img/neutralC/CFD-IM-728-041-N.jpg","img/neutralC/CFD-BM-029-024-N.jpg","img/neutralC/CFD-LF-216-121-N.jpg","1","1","1","0","1","1","0.509676999994554","0.353043399984017","0.386464599985629","1","1","1","1","1","1","1","1","1"
"250064","img/neutralC/CFD-LF-216-121-N.jpg","img/neutralC/CFD-IM-728-041-N.jpg","img/neutralC/CFD-IM-674-281-N.jpg","1","1","1","1","0","1","0.386464599985629","0.509676999994554","0.428504799958318","1","1","1","1","1","1","1","1","1"
"250064","img/neutralC/CFD-IM-674-281-N.jpg","img/neutralC/CFD-LF-216-121-N.jpg","img/neutralC/CFD-BM-211-174-N.jpg","1","1","1","1","1","0","0.428504799958318","0.386464599985629","0.559738099924289","1","1","1","1","1","1","1","1","1"
"250064","img/neutralC/CFD-BM-211-174-N.jpg","img/neutralC/CFD-IM-674-281-N.jpg","img/neutralC/CFD-BF-255-140-N.jpg","1","1","1","0","1","1","0.559738099924289","0.428504799958318","0.508940699975938","1","1","1","1","1","1","1","1","1"
"250064","img/neutralC/CFD-BF-255-140-N.jpg","img/neutralC/CFD-BM-211-174-N.jpg","img/neutralC/CFD-WF-002-004-N.jpg","1","1","1","1","0","0","0.508940699975938","0.559738099924289","0.521397999953479","1","1","1","1","1","1","1","1","1"
"250064","img/neutralC/CFD-WF-002-004-N.jpg","img/neutralC/CFD-BF-255-140-N.jpg","img/neutralC/CFD-LM-252-076-N.jpg","1","1","1","0","1","1","0.521397999953479","0.508940699975938","0.360311500029638","1","1","1","1","1","1","1","1","1"
"250064","img/neutralC/CFD-LM-252-076-N.jpg","img/neutralC/CFD-WF-002-004-N.jpg","img/neutralC/CFD-BF-204-189-N.jpg","1","1","1","1","0","1","0.360311500029638","0.521397999953479","0.457468800013885","1","1","1","1","1","1","1","1","1"
"250064","img/neutralC/CFD-BF-204-189-N.jpg","img/neutralC/CFD-LM-252-076-N.jpg",NA,"1","1",NA,"1","1",NA,"0.457468800013885","0.360311500029638",NA,"1","1",NA,"1","1",NA,"1","1",NA
"250064","img/neutralC/CFD-AF-205-155-N.jpg",NA,"img/neutralC/CFD-WF-235-121-N.jpg","1",NA,"1","0",NA,"0","0.873107800027356",NA,"0.536134099937044","1",NA,"1","1",NA,"1","1",NA,"1"
"250064","img/neutralC/CFD-WF-235-121-N.jpg","img/neutralC/CFD-AF-205-155-N.jpg","img/neutralC/CFD-BF-206-143-N.jpg","1","1","1","0","0","1","0.536134099937044","0.873107800027356","0.428318599937484","1","1","1","1","1","1","1","1","1"
"250064","img/neutralC/CFD-BF-206-143-N.jpg","img/neutralC/CFD-WF-235-121-N.jpg","img/neutralC/CFD-BM-004-002-N.jpg","1","1","1","1","0","0","0.428318599937484","0.536134099937044","0.401703899959102","1","1","1","1","1","1","1","1","1"
"250064","img/neutralC/CFD-BM-004-002-N.jpg","img/neutralC/CFD-BF-206-143-N.jpg","img/neutralC/CFD-IF-732-260-N.jpg","1","1","1","0","1","0","0.401703899959102","0.428318599937484","0.455471700057387","1","1","1","1","1","1","1","1","1"
"250064","img/neutralC/CFD-IF-732-260-N.jpg","img/neutralC/CFD-BM-004-002-N.jpg","img/neutralC/CFD-BF-042-026-N.jpg","1","1","1","0","0","1","0.455471700057387","0.401703899959102","0.434340699925087","1","1","1","1","1","1","1","1","1"
"250064","img/neutralC/CFD-BF-042-026-N.jpg","img/neutralC/CFD-IF-732-260-N.jpg","img/neutralC/CFD-LM-204-001-N.jpg","1","1","1","1","0","0","0.434340699925087","0.455471700057387","0.468051200034097","1","1","1","1","1","1","1","1","1"
"250064","img/neutralC/CFD-LM-204-001-N.jpg","img/neutralC/CFD-BF-042-026-N.jpg","img/neutralC/CFD-LF-239-148-N.jpg","1","1","1","0","1","0","0.468051200034097","0.434340699925087","0.634370599989779","1","1","1","1","1","1","1","1","1"
"250064","img/neutralC/CFD-LF-239-148-N.jpg","img/neutralC/CFD-LM-204-001-N.jpg","img/neutralC/CFD-WM-018-002-N.jpg","1","1","1","0","0","0","0.634370599989779","0.468051200034097","0.46419029997196","1","1","1","1","1","1","1","1","1"
"250064","img/neutralC/CFD-WM-018-002-N.jpg","img/neutralC/CFD-LF-239-148-N.jpg","img/neutralC/CFD-AM-245-111-N.jpg","1","1","1","0","0","1","0.46419029997196","0.634370599989779","0.386713700019754","1","1","1","1","1","1","1","1","1"
"250064","img/neutralC/CFD-AM-245-111-N.jpg","img/neutralC/CFD-WM-018-002-N.jpg","img/neutralC/CFD-AF-244-168-N.jpg","1","1","1","1","0","0","0.386713700019754","0.46419029997196","0.566232800018042","1","1","1","1","1","1","1","1","1"
"250064","img/neutralC/CFD-AF-244-168-N.jpg","img/neutralC/CFD-AM-245-111-N.jpg","img/neutralC/CFD-AM-233-236-N.jpg","1","1","1","0","1","1","0.566232800018042","0.386713700019754","0.388099099975079","1","1","1","1","1","1","1","1","1"
"250064","img/neutralC/CFD-AM-233-236-N.jpg","img/neutralC/CFD-AF-244-168-N.jpg","img/neutralC/CFD-BF-217-189-N.jpg","1","1","1","1","0","0","0.388099099975079","0.566232800018042","0.542075900011696","1","1","1","1","1","1","1","1","1"
"250064","img/neutralC/CFD-BF-217-189-N.jpg","img/neutralC/CFD-AM-233-236-N.jpg","img/neutralC/CFD-AF-213-126-N.jpg","1","1","1","0","1","1","0.542075900011696","0.388099099975079","0.485337299993262","1","1","1","1","1","1","1","1","1"
"250064","img/neutralC/CFD-AF-213-126-N.jpg","img/neutralC/CFD-BF-217-189-N.jpg","img/neutralC/CFD-BF-235-168-N.jpg","1","1","1","1","0","1","0.485337299993262","0.542075900011696","0.467740099993534","1","1","1","1","1","1","1","1","1"
"250064","img/neutralC/CFD-BF-235-168-N.jpg","img/neutralC/CFD-AF-213-126-N.jpg","img/neutralC/CFD-AF-234-208-N.jpg","1","1","1","1","1","1","0.467740099993534","0.485337299993262","0.53325350000523","1","1","1","1","1","1","1","1","1"
"250064","img/neutralC/CFD-AF-234-208-N.jpg","img/neutralC/CFD-BF-235-168-N.jpg","img/neutralC/CFD-LM-241-125-N.jpg","1","1","1","1","1","1","0.53325350000523","0.467740099993534","0.380132500082254","1","1","1","1","1","1","1","1","1"
"250064","img/neutralC/CFD-LM-241-125-N.jpg","img/neutralC/CFD-AF-234-208-N.jpg","img/neutralC/CFD-IM-669-111-N.jpg","1","1","1","1","1","1","0.380132500082254","0.53325350000523","0.819328899960965","1","1","1","1","1","1","1","1","1"
"250064","img/neutralC/CFD-IM-669-111-N.jpg","img/neutralC/CFD-LM-241-125-N.jpg","img/neutralC/CFD-MF-302-027-N.jpg","1","1","1","1","1","0","0.819328899960965","0.380132500082254","0.592496400000528","1","1","1","1","1","1","1","1","1"
"250064","img/neutralC/CFD-MF-302-027-N.jpg","img/neutralC/CFD-IM-669-111-N.jpg","img/neutralC/CFD-AM-225-102-N.jpg","1","1","1","0","1","0","0.592496400000528","0.819328899960965","0.563228200073354","1","1","1","1","1","1","1","1","1"
"250064","img/neutralC/CFD-AM-225-102-N.jpg","img/neutralC/CFD-MF-302-027-N.jpg","img/neutralC/CFD-BF-020-002-N.jpg","1","1","1","0","0","1","0.563228200073354","0.592496400000528","0.42736650002189","1","1","1","1","1","1","1","1","1"
"250064","img/neutralC/CFD-BF-020-002-N.jpg","img/neutralC/CFD-AM-225-102-N.jpg","img/neutralC/CFD-IM-678-482-N.jpg","1","1","1","1","0","0","0.42736650002189","0.563228200073354","0.555943600018509","1","1","1","1","1","1","1","1","1"
"250064","img/neutralC/CFD-IM-678-482-N.jpg","img/neutralC/CFD-BF-020-002-N.jpg","img/neutralC/CFD-IM-632-097-N.jpg","1","1","1","0","1","0","0.555943600018509","0.42736650002189","0.491435800096951","1","1","1","1","1","1","1","1","1"
"250064","img/neutralC/CFD-IM-632-097-N.jpg","img/neutralC/CFD-IM-678-482-N.jpg","img/neutralC/CFD-WM-253-119-N.jpg","1","1","1","0","0","1","0.491435800096951","0.555943600018509","0.53528979991097","1","1","1","1","1","1","1","1","1"
"250064","img/neutralC/CFD-WM-253-119-N.jpg","img/neutralC/CFD-IM-632-097-N.jpg","img/neutralC/CFD-AF-250-200-N.jpg","1","1","1","1","0","1","0.53528979991097","0.491435800096951","0.536607899935916","1","1","1","1","1","1","1","1","1"
"250064","img/neutralC/CFD-AF-250-200-N.jpg","img/neutralC/CFD-WM-253-119-N.jpg","img/neutralC/CFD-IF-636-011-N.jpg","1","1","1","1","1","1","0.536607899935916","0.53528979991097","0.484326199977659","1","1","1","1","1","1","1","1","1"
"250064","img/neutralC/CFD-IF-636-011-N.jpg","img/neutralC/CFD-AF-250-200-N.jpg","img/neutralC/CFD-AF-246-242-N.jpg","1","1","1","1","1","0","0.484326199977659","0.536607899935916","0.606794100021943","1","1","1","1","1","1","1","1","1"
"250064","img/neutralC/CFD-AF-246-242-N.jpg","img/neutralC/CFD-IF-636-011-N.jpg","img/neutralC/CFD-MF-307-002-N.jpg","1","1","1","0","1","1","0.606794100021943","0.484326199977659","0.443545200047083","1","1","1","1","1","1","1","1","1"
"250064","img/neutralC/CFD-MF-307-002-N.jpg","img/neutralC/CFD-AF-246-242-N.jpg","img/neutralC/CFD-WF-210-086-N.jpg","1","1","1","1","0","0","0.443545200047083","0.606794100021943","0.457115099998191","1","1","1","1","1","1","1","1","1"
"250064","img/neutralC/CFD-WF-210-086-N.jpg","img/neutralC/CFD-MF-307-002-N.jpg","img/neutralC/CFD-BM-215-155-N.jpg","1","1","1","0","1","0","0.457115099998191","0.443545200047083","0.517616600031033","1","1","1","1","1","1","1","1","1"
"250064","img/neutralC/CFD-BM-215-155-N.jpg","img/neutralC/CFD-WF-210-086-N.jpg","img/neutralC/CFD-IM-635-010-N.jpg","1","1","1","0","0","1","0.517616600031033","0.457115099998191","0.552414700039662","1","1","1","1","1","1","1","1","1"
"250064","img/neutralC/CFD-IM-635-010-N.jpg","img/neutralC/CFD-BM-215-155-N.jpg","img/neutralC/CFD-BF-040-003-N.jpg","1","1","1","1","0","1","0.552414700039662","0.517616600031033","0.450471600051969","1","1","1","1","1","1","1","1","1"
"250064","img/neutralC/CFD-BF-040-003-N.jpg","img/neutralC/CFD-IM-635-010-N.jpg",NA,"1","1",NA,"1","1",NA,"0.450471600051969","0.552414700039662",NA,"1","1",NA,"1","1",NA,"1","1",NA
"250064","img/neutralC/CFD-MM-324-069-N.jpg",NA,"img/neutralC/CFD-BM-217-082-N.jpg","1",NA,"0","1",NA,"0","0.555594600038603",NA,"0.568585200002417","1",NA,"1","1",NA,"1","1",NA,"1"
"250064","img/neutralC/CFD-BM-217-082-N.jpg","img/neutralC/CFD-MM-324-069-N.jpg","img/neutralC/CFD-IM-702-101-N.jpg","0","1","1","0","1","1","0.568585200002417","0.555594600038603","0.494264700100757","1","1","1","1","1","1","1","1","1"
"250064","img/neutralC/CFD-IM-702-101-N.jpg","img/neutralC/CFD-BM-217-082-N.jpg","img/neutralC/CFD-BF-014-002-N.jpg","1","0","1","1","0","1","0.494264700100757","0.568585200002417","0.598297099932097","1","1","1","1","1","1","1","1","1"
"250064","img/neutralC/CFD-BF-014-002-N.jpg","img/neutralC/CFD-IM-702-101-N.jpg","img/neutralC/CFD-LM-200-045-N.jpg","1","1","1","1","1","1","0.598297099932097","0.494264700100757","0.55639040004462","1","1","1","1","1","1","1","1","1"
"250064","img/neutralC/CFD-LM-200-045-N.jpg","img/neutralC/CFD-BF-014-002-N.jpg","img/neutralC/CFD-WF-030-002-N.jpg","1","1","1","1","1","0","0.55639040004462","0.598297099932097","0.86685930006206","1","1","1","1","1","1","1","1","1"
"250064","img/neutralC/CFD-WF-030-002-N.jpg","img/neutralC/CFD-LM-200-045-N.jpg","img/neutralC/CFD-IF-626-375-N.jpg","1","1","1","0","1","0","0.86685930006206","0.55639040004462","0.895761599997059","1","1","1","1","1","1","1","1","1"
"250064","img/neutralC/CFD-IF-626-375-N.jpg","img/neutralC/CFD-WF-030-002-N.jpg","img/neutralC/CFD-WM-209-038-N.jpg","1","1","1","0","0","0","0.895761599997059","0.86685930006206","0.54007480002474","1","1","1","1","1","1","1","1","1"
"250064","img/neutralC/CFD-WM-209-038-N.jpg","img/neutralC/CFD-IF-626-375-N.jpg","img/neutralC/CFD-IM-664-651-N.jpg","1","1","1","0","0","1","0.54007480002474","0.895761599997059","0.555421099998057","1","1","1","1","1","1","1","1","1"
"250064","img/neutralC/CFD-IM-664-651-N.jpg","img/neutralC/CFD-WM-209-038-N.jpg","img/neutralC/CFD-IM-680-369-N.jpg","1","1","1","1","0","1","0.555421099998057","0.54007480002474","0.473310000030324","1","1","1","1","1","1","1","1","1"
"250064","img/neutralC/CFD-IM-680-369-N.jpg","img/neutralC/CFD-IM-664-651-N.jpg","img/neutralC/CFD-MF-305-014-N.jpg","1","1","1","1","1","1","0.473310000030324","0.555421099998057","0.617567000095733","1","1","1","1","1","1","1","1","1"
"250064","img/neutralC/CFD-MF-305-014-N.jpg","img/neutralC/CFD-IM-680-369-N.jpg","img/neutralC/CFD-BM-001-014-N.jpg","1","1","1","1","1","0","0.617567000095733","0.473310000030324","1.63342830003239","1","1","1","1","1","1","1","1","1"
"250064","img/neutralC/CFD-BM-001-014-N.jpg","img/neutralC/CFD-MF-305-014-N.jpg","img/neutralC/CFD-LF-255-088-N.jpg","1","1","0","0","1","0","1.63342830003239","0.617567000095733","1.00820560008287","1","1","1","1","1","1","1","1","1"
"250064","img/neutralC/CFD-LF-255-088-N.jpg","img/neutralC/CFD-BM-001-014-N.jpg","img/neutralC/CFD-AF-253-130-N.jpg","0","1","1","0","0","1","1.00820560008287","1.63342830003239","0.508499100105837","1","1","1","1","1","1","1","1","1"
"250064","img/neutralC/CFD-AF-253-130-N.jpg","img/neutralC/CFD-LF-255-088-N.jpg","img/neutralC/CFD-IF-660-464-N.jpg","1","0","1","1","0","0","0.508499100105837","1.00820560008287","0.588372600032017","1","1","1","1","1","1","1","1","1"
"250064","img/neutralC/CFD-IF-660-464-N.jpg","img/neutralC/CFD-AF-253-130-N.jpg","img/neutralC/CFD-LF-206-078-N.jpg","1","1","1","0","1","1","0.588372600032017","0.508499100105837","0.490219500032254","1","1","1","1","1","1","1","1","1"
"250064","img/neutralC/CFD-LF-206-078-N.jpg","img/neutralC/CFD-IF-660-464-N.jpg","img/neutralC/CFD-AF-233-190-N.jpg","1","1","1","1","0","0","0.490219500032254","0.588372600032017","0.561191000044346","1","1","1","1","1","1","1","1","1"
"250064","img/neutralC/CFD-AF-233-190-N.jpg","img/neutralC/CFD-LF-206-078-N.jpg","img/neutralC/CFD-WF-222-092-N.jpg","1","1","1","0","1","1","0.561191000044346","0.490219500032254","0.488000400015153","1","1","1","1","1","1","1","1","1"
"250064","img/neutralC/CFD-WF-222-092-N.jpg","img/neutralC/CFD-AF-233-190-N.jpg","img/neutralC/CFD-WF-007-001-N.jpg","1","1","1","1","0","1","0.488000400015153","0.561191000044346","0.673372799996287","1","1","1","1","1","1","1","1","1"
"250064","img/neutralC/CFD-WF-007-001-N.jpg","img/neutralC/CFD-WF-222-092-N.jpg","img/neutralC/CFD-MF-316-001-N.jpg","1","1","1","1","1","0","0.673372799996287","0.488000400015153","0.514868099940941","1","1","1","1","1","1","1","1","1"
"250064","img/neutralC/CFD-MF-316-001-N.jpg","img/neutralC/CFD-WF-007-001-N.jpg","img/neutralC/CFD-MF-303-013-N.jpg","1","1","1","0","1","0","0.514868099940941","0.673372799996287","0.829347899998538","1","1","1","1","1","1","1","1","1"
"250064","img/neutralC/CFD-MF-303-013-N.jpg","img/neutralC/CFD-MF-316-001-N.jpg","img/neutralC/CFD-IM-706-002-N.jpg","1","1","1","0","0","0","0.829347899998538","0.514868099940941","0.538562100031413","1","1","1","1","1","1","1","1","1"
"250064","img/neutralC/CFD-IM-706-002-N.jpg","img/neutralC/CFD-MF-303-013-N.jpg","img/neutralC/CFD-BM-250-170-N.jpg","1","1","1","0","0","1","0.538562100031413","0.829347899998538","0.565147599903867","1","1","1","1","1","1","1","1","1"
"250064","img/neutralC/CFD-BM-250-170-N.jpg","img/neutralC/CFD-IM-706-002-N.jpg","img/neutralC/CFD-LM-225-130-N.jpg","1","1","1","1","0","0","0.565147599903867","0.538562100031413","0.51990419998765","1","1","1","1","1","1","1","1","1"
"250064","img/neutralC/CFD-LM-225-130-N.jpg","img/neutralC/CFD-BM-250-170-N.jpg","img/neutralC/CFD-MF-357-002-N.jpg","1","1","1","0","1","0","0.51990419998765","0.565147599903867","0.498117999988608","1","1","1","1","1","1","1","1","1"
"250064","img/neutralC/CFD-MF-357-002-N.jpg","img/neutralC/CFD-LM-225-130-N.jpg","img/neutralC/CFD-MF-343-001-N.jpg","1","1","1","0","0","1","0.498117999988608","0.51990419998765","0.531421800027601","1","1","1","1","1","1","1","1","1"
"250064","img/neutralC/CFD-MF-343-001-N.jpg","img/neutralC/CFD-MF-357-002-N.jpg","img/neutralC/CFD-WM-218-074-N.jpg","1","1","1","1","0","1","0.531421800027601","0.498117999988608","0.418386799981818","1","1","1","1","1","1","1","1","1"
"250064","img/neutralC/CFD-WM-218-074-N.jpg","img/neutralC/CFD-MF-343-001-N.jpg","img/neutralC/CFD-WM-015-002-N.jpg","1","1","1","1","1","0","0.418386799981818","0.531421800027601","0.43285629991442","1","1","1","1","1","1","1","1","1"
"250064","img/neutralC/CFD-WM-015-002-N.jpg","img/neutralC/CFD-WM-218-074-N.jpg","img/neutralC/CFD-IM-667-369-N.jpg","1","1","1","0","1","0","0.43285629991442","0.418386799981818","0.549218900036067","1","1","1","1","1","1","1","1","1"
"250064","img/neutralC/CFD-IM-667-369-N.jpg","img/neutralC/CFD-WM-015-002-N.jpg","img/neutralC/CFD-WF-244-163-N.jpg","1","1","1","0","0","1","0.549218900036067","0.43285629991442","0.467581799952313","1","1","1","1","1","1","1","1","1"
"250064","img/neutralC/CFD-WF-244-163-N.jpg","img/neutralC/CFD-IM-667-369-N.jpg","img/neutralC/CFD-BF-237-172-N.jpg","1","1","1","1","0","1","0.467581799952313","0.549218900036067","0.432339399936609","1","1","1","1","1","1","1","1","1"
"250064","img/neutralC/CFD-BF-237-172-N.jpg","img/neutralC/CFD-WF-244-163-N.jpg","img/neutralC/CFD-AM-220-134-N.jpg","1","1","1","1","1","0","0.432339399936609","0.467581799952313","0.483362000086345","1","1","1","1","1","1","1","1","1"
"250064","img/neutralC/CFD-AM-220-134-N.jpg","img/neutralC/CFD-BF-237-172-N.jpg",NA,"1","1",NA,"0","1",NA,"0.483362000086345","0.432339399936609",NA,"1","1",NA,"1","1",NA,"1","1",NA
"250064","img/neutralC/CFD-BF-033-028-N.jpg",NA,"img/neutralC/CFD-LF-247-051-N.jpg","0",NA,"1","0",NA,"1","0.722089100047015",NA,"0.50619009998627","1",NA,"1","1",NA,"1","1",NA,"1"
"250064","img/neutralC/CFD-LF-247-051-N.jpg","img/neutralC/CFD-BF-033-028-N.jpg","img/neutralC/CFD-LF-250-169-N.jpg","1","0","1","1","0","1","0.50619009998627","0.722089100047015","0.442600100068375","1","1","1","1","1","1","1","1","1"
"250064","img/neutralC/CFD-LF-250-169-N.jpg","img/neutralC/CFD-LF-247-051-N.jpg","img/neutralC/CFD-IM-617-174-N.jpg","1","1","1","1","1","0","0.442600100068375","0.50619009998627","0.553078799974173","1","1","1","1","1","1","1","1","1"
"250064","img/neutralC/CFD-IM-617-174-N.jpg","img/neutralC/CFD-LF-250-169-N.jpg","img/neutralC/CFD-WM-242-011-N.jpg","1","1","1","0","1","0","0.553078799974173","0.442600100068375","0.562438900000416","1","1","1","1","1","1","1","1","1"
"250064","img/neutralC/CFD-WM-242-011-N.jpg","img/neutralC/CFD-IM-617-174-N.jpg","img/neutralC/CFD-MF-313-002-N.jpg","1","1","1","0","0","0","0.562438900000416","0.553078799974173","0.347649400006048","1","1","1","1","1","1","1","1","1"
"250064","img/neutralC/CFD-MF-313-002-N.jpg","img/neutralC/CFD-WM-242-011-N.jpg","img/neutralC/CFD-LF-242-121-N.jpg","1","1","1","0","0","0","0.347649400006048","0.562438900000416","0.386884699924849","1","1","1","1","1","1","1","1","1"
"250064","img/neutralC/CFD-LF-242-121-N.jpg","img/neutralC/CFD-MF-313-002-N.jpg","img/neutralC/CFD-IM-686-097-N.jpg","1","1","0","0","0","0","0.386884699924849","0.347649400006048","0.341432700050063","1","1","1","1","1","1","1","1","1"
"250064","img/neutralC/CFD-IM-686-097-N.jpg","img/neutralC/CFD-LF-242-121-N.jpg","img/neutralC/CFD-LM-219-295-N.jpg","0","1","1","0","0","1","0.341432700050063","0.386884699924849","0.548541199997999","1","1","1","1","1","1","1","1","1"
"250064","img/neutralC/CFD-LM-219-295-N.jpg","img/neutralC/CFD-IM-686-097-N.jpg","img/neutralC/CFD-LM-226-175-N.jpg","1","0","1","1","0","0","0.548541199997999","0.341432700050063","0.588907399913296","1","1","1","1","1","1","1","1","1"
"250064","img/neutralC/CFD-LM-226-175-N.jpg","img/neutralC/CFD-LM-219-295-N.jpg","img/neutralC/CFD-BM-005-003-N.jpg","1","1","1","0","1","1","0.588907399913296","0.548541199997999","0.452489299932495","1","1","1","1","1","1","1","1","1"
"250064","img/neutralC/CFD-BM-005-003-N.jpg","img/neutralC/CFD-LM-226-175-N.jpg","img/neutralC/CFD-WM-258-125-N.jpg","1","1","1","1","0","0","0.452489299932495","0.588907399913296","0.505571399931796","1","1","1","1","1","1","1","1","1"
"250064","img/neutralC/CFD-WM-258-125-N.jpg","img/neutralC/CFD-BM-005-003-N.jpg","img/neutralC/CFD-WF-209-052-N.jpg","1","1","1","0","1","1","0.505571399931796","0.452489299932495","0.46747030003462","1","1","1","1","1","1","1","1","1"
"250064","img/neutralC/CFD-WF-209-052-N.jpg","img/neutralC/CFD-WM-258-125-N.jpg","img/neutralC/CFD-BM-212-117-N.jpg","1","1","1","1","0","0","0.46747030003462","0.505571399931796","0.409557900042273","1","1","1","1","1","1","1","1","1"
"250064","img/neutralC/CFD-BM-212-117-N.jpg","img/neutralC/CFD-WF-209-052-N.jpg","img/neutralC/CFD-IM-727-195-N.jpg","1","1","1","0","1","1","0.409557900042273","0.46747030003462","0.422854300006293","1","1","1","1","1","1","1","1","1"
"250064","img/neutralC/CFD-IM-727-195-N.jpg","img/neutralC/CFD-BM-212-117-N.jpg","img/neutralC/CFD-IM-657-308-N.jpg","1","1","1","1","0","0","0.422854300006293","0.409557900042273","0.468574399943464","1","1","1","1","1","1","1","1","1"
"250064","img/neutralC/CFD-IM-657-308-N.jpg","img/neutralC/CFD-IM-727-195-N.jpg","img/neutralC/CFD-BM-026-002-N.jpg","1","1","1","0","1","0","0.468574399943464","0.422854300006293","0.515171599923633","1","1","1","1","1","1","1","1","1"
"250064","img/neutralC/CFD-BM-026-002-N.jpg","img/neutralC/CFD-IM-657-308-N.jpg","img/neutralC/CFD-IF-665-015-N.jpg","1","1","1","0","0","0","0.515171599923633","0.468574399943464","0.468239300069399","1","1","1","1","1","1","1","1","1"
"250064","img/neutralC/CFD-IF-665-015-N.jpg","img/neutralC/CFD-BM-026-002-N.jpg","img/neutralC/CFD-BF-238-190-N.jpg","1","1","1","0","0","1","0.468239300069399","0.515171599923633","0.42180070001632","1","1","1","1","1","1","1","1","1"
"250064","img/neutralC/CFD-BF-238-190-N.jpg","img/neutralC/CFD-IF-665-015-N.jpg","img/neutralC/CFD-AF-241-141-N.jpg","1","1","1","1","0","1","0.42180070001632","0.468239300069399","0.408072000020184","1","1","1","1","1","1","1","1","1"
"250064","img/neutralC/CFD-AF-241-141-N.jpg","img/neutralC/CFD-BF-238-190-N.jpg","img/neutralC/CFD-BM-018-001-N.jpg","1","1","1","1","1","1","0.408072000020184","0.42180070001632","0.434142799931578","1","1","1","1","1","1","1","1","1"
"250064","img/neutralC/CFD-BM-018-001-N.jpg","img/neutralC/CFD-AF-241-141-N.jpg","img/neutralC/CFD-LM-233-171-N.jpg","1","1","1","1","1","0","0.434142799931578","0.408072000020184","0.475798900006339","1","1","1","1","1","1","1","1","1"
"250064","img/neutralC/CFD-LM-233-171-N.jpg","img/neutralC/CFD-BM-018-001-N.jpg","img/neutralC/CFD-LF-245-166-N.jpg","1","1","1","0","1","1","0.475798900006339","0.434142799931578","0.457574700005352","1","1","1","1","1","1","1","1","1"
"250064","img/neutralC/CFD-LF-245-166-N.jpg","img/neutralC/CFD-LM-233-171-N.jpg","img/neutralC/CFD-BF-010-001-N.jpg","1","1","1","1","0","1","0.457574700005352","0.475798900006339","0.514097100007348","1","1","1","1","1","1","1","1","1"
"250064","img/neutralC/CFD-BF-010-001-N.jpg","img/neutralC/CFD-LF-245-166-N.jpg","img/neutralC/CFD-IF-620-218-N.jpg","1","1","1","1","1","0","0.514097100007348","0.457574700005352","0.429594499990344","1","1","1","1","1","1","1","1","1"
"250064","img/neutralC/CFD-IF-620-218-N.jpg","img/neutralC/CFD-BF-010-001-N.jpg","img/neutralC/CFD-IM-653-008-N.jpg","1","1","0","0","1","0","0.429594499990344","0.514097100007348","0.524025200051256","1","1","1","1","1","1","1","1","1"
"250064","img/neutralC/CFD-IM-653-008-N.jpg","img/neutralC/CFD-IF-620-218-N.jpg","img/neutralC/CFD-AF-202-122-N.jpg","0","1","1","0","0","1","0.524025200051256","0.429594499990344","0.492626199964434","1","1","1","1","1","1","1","1","1"
"250064","img/neutralC/CFD-AF-202-122-N.jpg","img/neutralC/CFD-IM-653-008-N.jpg","img/neutralC/CFD-AF-206-079-N.jpg","1","0","1","1","0","1","0.492626199964434","0.524025200051256","0.450089600053616","1","1","1","1","1","1","1","1","1"
"250064","img/neutralC/CFD-AF-206-079-N.jpg","img/neutralC/CFD-AF-202-122-N.jpg","img/neutralC/CFD-IM-638-250-1-N.jpg","1","1","1","1","1","1","0.450089600053616","0.492626199964434","0.369102300028317","1","1","1","1","1","1","1","1","1"
"250064","img/neutralC/CFD-IM-638-250-1-N.jpg","img/neutralC/CFD-AF-206-079-N.jpg","img/neutralC/CFD-WM-017-002-N.jpg","1","1","1","1","1","0","0.369102300028317","0.450089600053616","0.35528199991677","1","1","1","1","1","1","1","1","1"
"250064","img/neutralC/CFD-WM-017-002-N.jpg","img/neutralC/CFD-IM-638-250-1-N.jpg","img/neutralC/CFD-BM-231-155-N.jpg","1","1","1","0","1","1","0.35528199991677","0.369102300028317","0.499251100001857","1","1","1","1","1","1","1","1","1"
"250064","img/neutralC/CFD-BM-231-155-N.jpg","img/neutralC/CFD-WM-017-002-N.jpg","img/neutralC/CFD-WM-227-099-N.jpg","1","1","1","1","0","1","0.499251100001857","0.35528199991677","0.479028800036758","1","1","1","1","1","1","1","1","1"
"250064","img/neutralC/CFD-WM-227-099-N.jpg","img/neutralC/CFD-BM-231-155-N.jpg",NA,"1","1",NA,"1","1",NA,"0.479028800036758","0.499251100001857",NA,"1","1",NA,"1","1",NA,"1","1",NA
"250064","img/neutralC/CFD-WM-213-076-N.jpg",NA,"img/neutralC/CFD-BF-043-003-N.jpg","1",NA,"1","1",NA,"0","0.559631400043145",NA,"0.520351500017568","1",NA,"1","1",NA,"1","1",NA,"1"
"250064","img/neutralC/CFD-BF-043-003-N.jpg","img/neutralC/CFD-WM-213-076-N.jpg","img/neutralC/CFD-AF-254-167-N.jpg","1","1","1","0","1","1","0.520351500017568","0.559631400043145","0.487153799971566","1","1","1","1","1","1","1","1","1"
"250064","img/neutralC/CFD-AF-254-167-N.jpg","img/neutralC/CFD-BF-043-003-N.jpg","img/neutralC/CFD-BF-224-002-N.jpg","1","1","1","1","0","1","0.487153799971566","0.520351500017568","0.416227399953641","1","1","1","1","1","1","1","1","1"
"250064","img/neutralC/CFD-BF-224-002-N.jpg","img/neutralC/CFD-AF-254-167-N.jpg","img/neutralC/CFD-IF-619-197-N.jpg","1","1","1","1","1","0","0.416227399953641","0.487153799971566","0.419117799960077","1","1","1","1","1","1","1","1","1"
"250064","img/neutralC/CFD-IF-619-197-N.jpg","img/neutralC/CFD-BF-224-002-N.jpg","img/neutralC/CFD-WF-212-050-N.jpg","1","1","1","0","1","0","0.419117799960077","0.416227399953641","0.339065099949948","1","1","1","1","1","1","1","1","1"
"250064","img/neutralC/CFD-WF-212-050-N.jpg","img/neutralC/CFD-IF-619-197-N.jpg","img/neutralC/CFD-WF-248-129-N.jpg","1","1","0","0","0","0","0.339065099949948","0.419117799960077","0.354544200003147","1","1","1","1","1","1","1","1","1"
"250064","img/neutralC/CFD-WF-248-129-N.jpg","img/neutralC/CFD-WF-212-050-N.jpg","img/neutralC/CFD-BM-243-218-N.jpg","0","1","1","0","0","1","0.354544200003147","0.339065099949948","0.405616399948485","1","1","1","1","1","1","1","1","1"
"250064","img/neutralC/CFD-BM-243-218-N.jpg","img/neutralC/CFD-WF-248-129-N.jpg","img/neutralC/CFD-AF-215-70-N.jpg","1","0","0","1","0","0","0.405616399948485","0.354544200003147","0.380368300015107","1","1","1","1","1","1","1","1","1"
"250064","img/neutralC/CFD-AF-215-70-N.jpg","img/neutralC/CFD-BM-243-218-N.jpg","img/neutralC/CFD-IM-637-007-N.jpg","0","1","1","0","1","0","0.380368300015107","0.405616399948485","0.62083860009443","1","1","1","1","1","1","1","1","1"
"250064","img/neutralC/CFD-IM-637-007-N.jpg","img/neutralC/CFD-AF-215-70-N.jpg","img/neutralC/CFD-BM-039-029-N.jpg","1","0","1","0","0","1","0.62083860009443","0.380368300015107","0.420452499995008","1","1","1","1","1","1","1","1","1"
"250064","img/neutralC/CFD-BM-039-029-N.jpg","img/neutralC/CFD-IM-637-007-N.jpg","img/neutralC/CFD-IM-685-004-N.jpg","1","1","1","1","0","1","0.420452499995008","0.62083860009443","0.35861840005964","1","1","1","1","1","1","1","1","1"
"250064","img/neutralC/CFD-IM-685-004-N.jpg","img/neutralC/CFD-BM-039-029-N.jpg","img/neutralC/CFD-IF-608-390-N.jpg","1","1","1","1","1","1","0.35861840005964","0.420452499995008","0.380594499991275","1","1","1","1","1","1","1","1","1"
"250064","img/neutralC/CFD-IF-608-390-N.jpg","img/neutralC/CFD-IM-685-004-N.jpg","img/neutralC/CFD-IM-604-014-N.jpg","1","1","1","1","1","0","0.380594499991275","0.35861840005964","0.558795499964617","1","1","1","1","1","1","1","1","1"
"250064","img/neutralC/CFD-IM-604-014-N.jpg","img/neutralC/CFD-IF-608-390-N.jpg","img/neutralC/CFD-AF-229-160-N.jpg","1","1","0","0","1","0","0.558795499964617","0.380594499991275","0.45815809990745","1","1","1","1","1","1","1","1","1"
"250064","img/neutralC/CFD-AF-229-160-N.jpg","img/neutralC/CFD-IM-604-014-N.jpg","img/neutralC/CFD-MF-340-026-N.jpg","0","1","1","0","0","1","0.45815809990745","0.558795499964617","0.434007600066252","1","1","1","1","1","1","1","1","1"
"250064","img/neutralC/CFD-MF-340-026-N.jpg","img/neutralC/CFD-AF-229-160-N.jpg","img/neutralC/CFD-MF-300-002-N.jpg","1","0","1","1","0","0","0.434007600066252","0.45815809990745","0.488291600020602","1","1","1","1","1","1","1","1","1"
"250064","img/neutralC/CFD-MF-300-002-N.jpg","img/neutralC/CFD-MF-340-026-N.jpg","img/neutralC/CFD-IM-675-015-N.jpg","1","1","1","0","1","1","0.488291600020602","0.434007600066252","0.34242990007624","1","1","1","1","1","1","1","1","1"
"250064","img/neutralC/CFD-IM-675-015-N.jpg","img/neutralC/CFD-MF-300-002-N.jpg","img/neutralC/CFD-WF-012-002-N.jpg","1","1","1","1","0","1","0.34242990007624","0.488291600020602","0.629506499972194","1","1","1","1","1","1","1","1","1"
"250064","img/neutralC/CFD-WF-012-002-N.jpg","img/neutralC/CFD-IM-675-015-N.jpg","img/neutralC/CFD-WF-217-085-N.jpg","1","1","1","1","1","1","0.629506499972194","0.34242990007624","0.460701599949971","1","1","1","1","1","1","1","1","1"
"250064","img/neutralC/CFD-WF-217-085-N.jpg","img/neutralC/CFD-WF-012-002-N.jpg","img/neutralC/CFD-MF-327-002-N.jpg","1","1","1","1","1","0","0.460701599949971","0.629506499972194","0.598056900082156","1","1","1","1","1","1","1","1","1"
"250064","img/neutralC/CFD-MF-327-002-N.jpg","img/neutralC/CFD-WF-217-085-N.jpg","img/neutralC/CFD-AM-236-090-N.jpg","1","1","1","0","1","1","0.598056900082156","0.460701599949971","0.399003700003959","1","1","1","1","1","1","1","1","1"
"250064","img/neutralC/CFD-AM-236-090-N.jpg","img/neutralC/CFD-MF-327-002-N.jpg","img/neutralC/CFD-LF-201-035-N.jpg","1","1","1","1","0","1","0.399003700003959","0.598056900082156","0.385849299957044","1","1","1","1","1","1","1","1","1"
"250064","img/neutralC/CFD-LF-201-035-N.jpg","img/neutralC/CFD-AM-236-090-N.jpg","img/neutralC/CFD-MF-329-001-N.jpg","1","1","1","1","1","0","0.385849299957044","0.399003700003959","0.508211500011384","1","1","1","1","1","1","1","1","1"
"250064","img/neutralC/CFD-MF-329-001-N.jpg","img/neutralC/CFD-LF-201-035-N.jpg","img/neutralC/CFD-MM-304-002-N.jpg","1","1","1","0","1","1","0.508211500011384","0.385849299957044","0.399879700038582","1","1","1","1","1","1","1","1","1"
"250064","img/neutralC/CFD-MM-304-002-N.jpg","img/neutralC/CFD-MF-329-001-N.jpg","img/neutralC/CFD-WF-008-002-N.jpg","1","1","1","1","0","1","0.399879700038582","0.508211500011384","0.379132099915296","1","1","1","1","1","1","1","1","1"
"250064","img/neutralC/CFD-WF-008-002-N.jpg","img/neutralC/CFD-MM-304-002-N.jpg","img/neutralC/CFD-LM-217-162-N.jpg","1","1","0","1","1","0","0.379132099915296","0.399879700038582","0.469685799907893","1","1","1","1","1","1","1","1","1"
"250064","img/neutralC/CFD-LM-217-162-N.jpg","img/neutralC/CFD-WF-008-002-N.jpg","img/neutralC/CFD-LF-226-174-N.jpg","0","1","1","0","1","0","0.469685799907893","0.379132099915296","0.564796200022101","1","1","1","1","1","1","1","1","1"
"250064","img/neutralC/CFD-LF-226-174-N.jpg","img/neutralC/CFD-LM-217-162-N.jpg","img/neutralC/CFD-WM-232-070-N.jpg","1","0","1","0","0","0","0.564796200022101","0.469685799907893","0.583780899993144","1","1","1","1","1","1","1","1","1"
"250064","img/neutralC/CFD-WM-232-070-N.jpg","img/neutralC/CFD-LF-226-174-N.jpg","img/neutralC/CFD-IM-709-103-N.jpg","1","1","1","0","0","0","0.583780899993144","0.564796200022101","0.536248099990189","1","1","1","1","1","1","1","1","1"
"250064","img/neutralC/CFD-IM-709-103-N.jpg","img/neutralC/CFD-WM-232-070-N.jpg","img/neutralC/CFD-BF-051-035-N.jpg","1","1","1","0","0","0","0.536248099990189","0.583780899993144","0.551144000026397","1","1","1","1","1","1","1","1","1"
"250064","img/neutralC/CFD-BF-051-035-N.jpg","img/neutralC/CFD-IM-709-103-N.jpg","img/neutralC/CFD-WM-024-015-N.jpg","1","1","1","0","0","1","0.551144000026397","0.536248099990189","0.50663750001695","1","1","1","1","1","1","1","1","1"
"250064","img/neutralC/CFD-WM-024-015-N.jpg","img/neutralC/CFD-BF-051-035-N.jpg",NA,"1","1",NA,"1","0",NA,"0.50663750001695","0.551144000026397",NA,"1","1",NA,"1","1",NA,"1","1",NA
"250064","img/neutralC/CFD-IM-651-308-N.jpg",NA,"img/neutralC/CFD-IM-684-008-N.jpg","0",NA,"1","0",NA,"1","0.86283260001801",NA,"0.46459520002827","1",NA,"1","1",NA,"1","1",NA,"1"
"250064","img/neutralC/CFD-IM-684-008-N.jpg","img/neutralC/CFD-IM-651-308-N.jpg","img/neutralC/CFD-BM-041-035-N.jpg","1","0","1","1","0","0","0.46459520002827","0.86283260001801","0.332733699935488","1","1","1","1","1","1","1","1","1"
"250064","img/neutralC/CFD-BM-041-035-N.jpg","img/neutralC/CFD-IM-684-008-N.jpg","img/neutralC/CFD-LM-218-183-N.jpg","1","1","1","0","1","1","0.332733699935488","0.46459520002827","0.350578299956396","1","1","1","1","1","1","1","1","1"
"250064","img/neutralC/CFD-LM-218-183-N.jpg","img/neutralC/CFD-BM-041-035-N.jpg","img/neutralC/CFD-AM-201-076-N.jpg","1","1","1","1","0","1","0.350578299956396","0.332733699935488","0.453917599981651","1","1","1","1","1","1","1","1","1"
"250064","img/neutralC/CFD-AM-201-076-N.jpg","img/neutralC/CFD-LM-218-183-N.jpg","img/neutralC/CFD-BF-029-031-N.jpg","1","1","1","1","1","1","0.453917599981651","0.350578299956396","0.402193800080568","1","1","1","1","1","1","1","1","1"
"250064","img/neutralC/CFD-BF-029-031-N.jpg","img/neutralC/CFD-AM-201-076-N.jpg","img/neutralC/CFD-IF-710-016-N.jpg","1","1","1","1","1","0","0.402193800080568","0.453917599981651","0.440945600043051","1","1","1","1","1","1","1","1","1"
"250064","img/neutralC/CFD-IF-710-016-N.jpg","img/neutralC/CFD-BF-029-031-N.jpg","img/neutralC/CFD-BF-253-202-N.jpg","1","1","1","0","1","0","0.440945600043051","0.402193800080568","0.31996460002847","1","1","1","1","1","1","1","1","1"
"250064","img/neutralC/CFD-BF-253-202-N.jpg","img/neutralC/CFD-IF-710-016-N.jpg","img/neutralC/CFD-BM-019-002-N.jpg","1","1","1","0","0","0","0.31996460002847","0.440945600043051","0.533601199975237","1","1","1","1","1","1","1","1","1"
"250064","img/neutralC/CFD-BM-019-002-N.jpg","img/neutralC/CFD-BF-253-202-N.jpg","img/neutralC/CFD-LF-230-203-N.jpg","1","1","1","0","0","0","0.533601199975237","0.31996460002847","0.614538000081666","1","1","1","1","1","1","1","1","1"
"250064","img/neutralC/CFD-LF-230-203-N.jpg","img/neutralC/CFD-BM-019-002-N.jpg","img/neutralC/CFD-WF-213-031-N.jpg","1","1","1","0","0","1","0.614538000081666","0.533601199975237","0.504604399902746","1","1","1","1","1","1","1","1","1"
"250064","img/neutralC/CFD-WF-213-031-N.jpg","img/neutralC/CFD-LF-230-203-N.jpg","img/neutralC/CFD-WM-041-021-N.jpg","1","1","1","1","0","0","0.504604399902746","0.614538000081666","0.536316600046121","1","1","1","1","1","1","1","1","1"
"250064","img/neutralC/CFD-WM-041-021-N.jpg","img/neutralC/CFD-WF-213-031-N.jpg","img/neutralC/CFD-WM-011-002-N.jpg","1","1","1","0","1","0","0.536316600046121","0.504604399902746","0.420097899972461","1","1","1","1","1","1","1","1","1"
"250064","img/neutralC/CFD-WM-011-002-N.jpg","img/neutralC/CFD-WM-041-021-N.jpg","img/neutralC/CFD-WF-224-099-N.jpg","1","1","1","0","0","0","0.420097899972461","0.536316600046121","0.687310999957845","1","1","1","1","1","1","1","1","1"
"250064","img/neutralC/CFD-WF-224-099-N.jpg","img/neutralC/CFD-WM-011-002-N.jpg","img/neutralC/CFD-LM-215-247-N.jpg","1","1","1","0","0","0","0.687310999957845","0.420097899972461","0.535855400026776","1","1","1","1","1","1","1","1","1"
"250064","img/neutralC/CFD-LM-215-247-N.jpg","img/neutralC/CFD-WF-224-099-N.jpg","img/neutralC/CFD-LF-224-176-N.jpg","1","1","1","0","0","0","0.535855400026776","0.687310999957845","0.454057299997658","1","1","1","1","1","1","1","1","1"
"250064","img/neutralC/CFD-LF-224-176-N.jpg","img/neutralC/CFD-LM-215-247-N.jpg","img/neutralC/CFD-LF-203-066-N.jpg","1","1","1","0","0","0","0.454057299997658","0.535855400026776","0.599203599966131","1","1","1","1","1","1","1","1","1"
"250064","img/neutralC/CFD-LF-203-066-N.jpg","img/neutralC/CFD-LF-224-176-N.jpg","img/neutralC/CFD-IF-634-382-N.jpg","1","1","1","0","0","1","0.599203599966131","0.454057299997658","0.415982299949974","1","1","1","1","1","1","1","1","1"
"250064","img/neutralC/CFD-IF-634-382-N.jpg","img/neutralC/CFD-LF-203-066-N.jpg","img/neutralC/CFD-BF-213-188-N.jpg","1","1","1","1","0","1","0.415982299949974","0.599203599966131","0.487778900074772","1","1","1","1","1","1","1","1","1"
"250064","img/neutralC/CFD-BF-213-188-N.jpg","img/neutralC/CFD-IF-634-382-N.jpg","img/neutralC/CFD-AF-231-357-N.jpg","1","1","1","1","1","1","0.487778900074772","0.415982299949974","0.465355099993758","1","1","1","1","1","1","1","1","1"
"250064","img/neutralC/CFD-AF-231-357-N.jpg","img/neutralC/CFD-BF-213-188-N.jpg","img/neutralC/CFD-MM-316-156-N.jpg","1","1","1","1","1","1","0.465355099993758","0.487778900074772","0.408144999993965","1","1","1","1","1","1","1","1","1"
"250064","img/neutralC/CFD-MM-316-156-N.jpg","img/neutralC/CFD-AF-231-357-N.jpg","img/neutralC/CFD-BF-039-031-N.jpg","1","1","1","1","1","1","0.408144999993965","0.465355099993758","0.42274599999655","1","1","1","1","1","1","1","1","1"
"250064","img/neutralC/CFD-BF-039-031-N.jpg","img/neutralC/CFD-MM-316-156-N.jpg","img/neutralC/CFD-LF-214-090-N.jpg","1","1","1","1","1","0","0.42274599999655","0.408144999993965","0.475833000033162","1","1","1","1","1","1","1","1","1"
"250064","img/neutralC/CFD-LF-214-090-N.jpg","img/neutralC/CFD-BF-039-031-N.jpg","img/neutralC/CFD-IF-693-172-N.jpg","1","1","1","0","1","0","0.475833000033162","0.42274599999655","0.678502800059505","1","1","1","1","1","1","1","1","1"
"250064","img/neutralC/CFD-IF-693-172-N.jpg","img/neutralC/CFD-LF-214-090-N.jpg","img/neutralC/CFD-AM-212-050-N.jpg","1","1","1","0","0","1","0.678502800059505","0.475833000033162","0.456329799955711","1","1","1","1","1","1","1","1","1"
"250064","img/neutralC/CFD-AM-212-050-N.jpg","img/neutralC/CFD-IF-693-172-N.jpg","img/neutralC/CFD-WM-021-001-N.jpg","1","1","1","1","0","1","0.456329799955711","0.678502800059505","0.477251600008458","1","1","1","1","1","1","1","1","1"
"250064","img/neutralC/CFD-WM-021-001-N.jpg","img/neutralC/CFD-AM-212-050-N.jpg","img/neutralC/CFD-BM-239-136-N.jpg","1","1","1","1","1","1","0.477251600008458","0.456329799955711","0.386013599927537","1","1","1","1","1","1","1","1","1"
"250064","img/neutralC/CFD-BM-239-136-N.jpg","img/neutralC/CFD-WM-021-001-N.jpg","img/neutralC/CFD-LF-205-100-N.jpg","1","1","1","1","1","1","0.386013599927537","0.477251600008458","0.480009300052188","1","1","1","1","1","1","1","1","1"
"250064","img/neutralC/CFD-LF-205-100-N.jpg","img/neutralC/CFD-BM-239-136-N.jpg","img/neutralC/CFD-MF-337-026-N.jpg","1","1","1","1","1","1","0.480009300052188","0.386013599927537","0.425176099990495","1","1","1","1","1","1","1","1","1"
"250064","img/neutralC/CFD-MF-337-026-N.jpg","img/neutralC/CFD-LF-205-100-N.jpg","img/neutralC/CFD-BM-033-003-N.jpg","1","1","1","1","1","0","0.425176099990495","0.480009300052188","0.462667800020427","1","1","1","1","1","1","1","1","1"
"250064","img/neutralC/CFD-BM-033-003-N.jpg","img/neutralC/CFD-MF-337-026-N.jpg","img/neutralC/CFD-BF-205-141-N.jpg","1","1","1","0","1","0","0.462667800020427","0.425176099990495","0.375408999971114","1","1","1","1","1","1","1","1","1"
"250064","img/neutralC/CFD-BF-205-141-N.jpg","img/neutralC/CFD-BM-033-003-N.jpg","img/neutralC/CFD-WF-250-167-N.jpg","1","1","1","0","0","1","0.375408999971114","0.462667800020427","0.463557100039907","1","1","1","1","1","1","1","1","1"
"250064","img/neutralC/CFD-WF-250-167-N.jpg","img/neutralC/CFD-BF-205-141-N.jpg",NA,"1","1",NA,"1","0",NA,"0.463557100039907","0.375408999971114",NA,"1","1",NA,"1","1",NA,"1","1",NA
"250064","img/neutralC/CFD-LM-228-188-N.jpg",NA,"img/neutralC/CFD-WF-036-023-N.jpg","1",NA,"1","1",NA,"0","0.636502499924973",NA,"0.587834800011478","1",NA,"1","1",NA,"1","1",NA,"1"
"250064","img/neutralC/CFD-WF-036-023-N.jpg","img/neutralC/CFD-LM-228-188-N.jpg","img/neutralC/CFD-AM-242-176-N.jpg","1","1","1","0","1","1","0.587834800011478","0.636502499924973","0.437010399997234","1","1","1","1","1","1","1","1","1"
"250064","img/neutralC/CFD-AM-242-176-N.jpg","img/neutralC/CFD-WF-036-023-N.jpg","img/neutralC/CFD-WF-200-099-N.jpg","1","1","1","1","0","0","0.437010399997234","0.587834800011478","0.518861099961214","1","1","1","1","1","1","1","1","1"
"250064","img/neutralC/CFD-WF-200-099-N.jpg","img/neutralC/CFD-AM-242-176-N.jpg","img/neutralC/CFD-LM-237-264-N.jpg","1","1","1","0","1","0","0.518861099961214","0.437010399997234","0.513452600105666","1","1","1","1","1","1","1","1","1"
"250064","img/neutralC/CFD-LM-237-264-N.jpg","img/neutralC/CFD-WF-200-099-N.jpg","img/neutralC/CFD-WF-001-003-N.jpg","1","1","1","0","0","1","0.513452600105666","0.518861099961214","0.467386599979363","1","1","1","1","1","1","1","1","1"
"250064","img/neutralC/CFD-WF-001-003-N.jpg","img/neutralC/CFD-LM-237-264-N.jpg","img/neutralC/CFD-BF-226-119-N.jpg","1","1","1","1","0","1","0.467386599979363","0.513452600105666","0.442384400055744","1","1","1","1","1","1","1","1","1"
"250064","img/neutralC/CFD-BF-226-119-N.jpg","img/neutralC/CFD-WF-001-003-N.jpg","img/neutralC/CFD-IM-743-006-N.jpg","1","1","1","1","1","1","0.442384400055744","0.467386599979363","0.366574899991974","1","1","1","1","1","1","1","1","1"
"250064","img/neutralC/CFD-IM-743-006-N.jpg","img/neutralC/CFD-BF-226-119-N.jpg","img/neutralC/CFD-IF-650-315-N.jpg","1","1","1","1","1","0","0.366574899991974","0.442384400055744","0.451129900058731","1","1","1","1","1","1","1","1","1"
"250064","img/neutralC/CFD-IF-650-315-N.jpg","img/neutralC/CFD-IM-743-006-N.jpg","img/neutralC/CFD-LF-220-120-N.jpg","1","1","1","0","1","1","0.451129900058731","0.366574899991974","0.396781800081953","1","1","1","1","1","1","1","1","1"
"250064","img/neutralC/CFD-LF-220-120-N.jpg","img/neutralC/CFD-IF-650-315-N.jpg","img/neutralC/CFD-AM-251-124-N.jpg","1","1","1","1","0","0","0.396781800081953","0.451129900058731","0.545962999924086","1","1","1","1","1","1","1","1","1"
"250064","img/neutralC/CFD-AM-251-124-N.jpg","img/neutralC/CFD-LF-220-120-N.jpg","img/neutralC/CFD-WF-214-122-N.jpg","1","1","1","0","1","1","0.545962999924086","0.396781800081953","0.433019099989906","1","1","1","1","1","1","1","1","1"
"250064","img/neutralC/CFD-WF-214-122-N.jpg","img/neutralC/CFD-AM-251-124-N.jpg","img/neutralC/CFD-IM-616-214-N.jpg","1","1","1","1","0","0","0.433019099989906","0.545962999924086","0.396369199967012","1","1","1","1","1","1","1","1","1"
"250064","img/neutralC/CFD-IM-616-214-N.jpg","img/neutralC/CFD-WF-214-122-N.jpg","img/neutralC/CFD-WM-004-010-N.jpg","1","1","0","0","1","0","0.396369199967012","0.433019099989906","0.397932099993341","1","1","1","1","1","1","1","1","1"
"250064","img/neutralC/CFD-WM-004-010-N.jpg","img/neutralC/CFD-IM-616-214-N.jpg","img/neutralC/CFD-BF-232-187-N.jpg","0","1","1","0","0","1","0.397932099993341","0.396369199967012","0.488895599963143","1","1","1","1","1","1","1","1","1"
"250064","img/neutralC/CFD-BF-232-187-N.jpg","img/neutralC/CFD-WM-004-010-N.jpg","img/neutralC/CFD-IM-645-001-N.jpg","1","0","1","1","0","0","0.488895599963143","0.397932099993341","0.515786399948411","1","1","1","1","1","1","1","1","1"
"250064","img/neutralC/CFD-IM-645-001-N.jpg","img/neutralC/CFD-BF-232-187-N.jpg","img/neutralC/CFD-AM-211-052-N.jpg","1","1","1","0","1","1","0.515786399948411","0.488895599963143","0.461557200062089","1","1","1","1","1","1","1","1","1"
"250064","img/neutralC/CFD-AM-211-052-N.jpg","img/neutralC/CFD-IM-645-001-N.jpg","img/neutralC/CFD-IM-671-601-N.jpg","1","1","0","1","0","0","0.461557200062089","0.515786399948411","1.16277469997294","1","1","1","1","1","1","1","1","1"
"250064","img/neutralC/CFD-IM-671-601-N.jpg","img/neutralC/CFD-AM-211-052-N.jpg","img/neutralC/CFD-MF-352-054-N.jpg","0","1","1","0","1","0","1.16277469997294","0.461557200062089","0.644057099940255","1","1","1","1","1","1","1","1","1"
"250064","img/neutralC/CFD-MF-352-054-N.jpg","img/neutralC/CFD-IM-671-601-N.jpg","img/neutralC/CFD-WM-219-008-N.jpg","1","0","1","0","0","0","0.644057099940255","1.16277469997294","0.639725200016983","1","1","1","1","1","1","1","1","1"
"250064","img/neutralC/CFD-WM-219-008-N.jpg","img/neutralC/CFD-MF-352-054-N.jpg","img/neutralC/CFD-WM-033-025-N.jpg","1","1","1","0","0","1","0.639725200016983","0.644057099940255","0.518403799971566","1","1","1","1","1","1","1","1","1"
"250064","img/neutralC/CFD-WM-033-025-N.jpg","img/neutralC/CFD-WM-219-008-N.jpg","img/neutralC/CFD-BM-225-154-N.jpg","1","1","1","1","0","1","0.518403799971566","0.639725200016983","0.398134399903938","1","1","1","1","1","1","1","1","1"
"250064","img/neutralC/CFD-BM-225-154-N.jpg","img/neutralC/CFD-WM-033-025-N.jpg","img/neutralC/CFD-BF-229-179-N.jpg","1","1","0","1","1","0","0.398134399903938","0.518403799971566","0.44229539996013","1","1","1","1","1","1","1","1","1"
"250064","img/neutralC/CFD-BF-229-179-N.jpg","img/neutralC/CFD-BM-225-154-N.jpg","img/neutralC/CFD-WM-020-001-N.jpg","0","1","1","0","1","1","0.44229539996013","0.398134399903938","0.544290999998339","1","1","1","1","1","1","1","1","1"
"250064","img/neutralC/CFD-WM-020-001-N.jpg","img/neutralC/CFD-BF-229-179-N.jpg","img/neutralC/CFD-MF-359-019-N.jpg","1","0","1","1","0","0","0.544290999998339","0.44229539996013","0.587862600106746","1","1","1","1","1","1","1","1","1"
"250064","img/neutralC/CFD-MF-359-019-N.jpg","img/neutralC/CFD-WM-020-001-N.jpg","img/neutralC/CFD-WM-235-147-N.jpg","1","1","1","0","1","0","0.587862600106746","0.544290999998339","0.446775199961849","1","1","1","1","1","1","1","1","1"
"250064","img/neutralC/CFD-WM-235-147-N.jpg","img/neutralC/CFD-MF-359-019-N.jpg","img/neutralC/CFD-BF-038-037-N.jpg","1","1","1","0","0","1","0.446775199961849","0.587862600106746","0.407108700019307","1","1","1","1","1","1","1","1","1"
"250064","img/neutralC/CFD-BF-038-037-N.jpg","img/neutralC/CFD-WM-235-147-N.jpg","img/neutralC/CFD-IM-703-182-N.jpg","1","1","1","1","0","1","0.407108700019307","0.446775199961849","0.439604599960148","1","1","1","1","1","1","1","1","1"
"250064","img/neutralC/CFD-IM-703-182-N.jpg","img/neutralC/CFD-BF-038-037-N.jpg","img/neutralC/CFD-BM-253-004-N.jpg","1","1","1","1","1","1","0.439604599960148","0.407108700019307","0.542275700019673","1","1","1","1","1","1","1","1","1"
"250064","img/neutralC/CFD-BM-253-004-N.jpg","img/neutralC/CFD-IM-703-182-N.jpg","img/neutralC/CFD-MF-333-012-N.jpg","1","1","1","1","1","0","0.542275700019673","0.439604599960148","0.518124499940313","1","1","1","1","1","1","1","1","1"
"250064","img/neutralC/CFD-MF-333-012-N.jpg","img/neutralC/CFD-BM-253-004-N.jpg","img/neutralC/CFD-IF-623-129-N.jpg","1","1","1","0","1","1","0.518124499940313","0.542275700019673","0.418791999923997","1","1","1","1","1","1","1","1","1"
"250064","img/neutralC/CFD-IF-623-129-N.jpg","img/neutralC/CFD-MF-333-012-N.jpg","img/neutralC/CFD-LF-218-072-N.jpg","1","1","0","1","0","0","0.418791999923997","0.518124499940313","0.487744700047188","1","1","1","1","1","1","1","1","1"
"250064","img/neutralC/CFD-LF-218-072-N.jpg","img/neutralC/CFD-IF-623-129-N.jpg",NA,"0","1",NA,"0","1",NA,"0.487744700047188","0.418791999923997",NA,"1","1",NA,"1","1",NA,"1","1",NA
"250064","img/neutralC/CFD-MF-342-022-N.jpg",NA,"img/neutralC/CFD-LF-211-003-N.jpg","1",NA,"1","1",NA,"0","0.92428859998472",NA,"0.730243899975903","1",NA,"1","1",NA,"1","1",NA,"1"
"250064","img/neutralC/CFD-LF-211-003-N.jpg","img/neutralC/CFD-MF-342-022-N.jpg","img/neutralC/CFD-MF-318-022-N.jpg","1","1","1","0","1","1","0.730243899975903","0.92428859998472","0.510266100056469","1","1","1","1","1","1","1","1","1"
"250064","img/neutralC/CFD-MF-318-022-N.jpg","img/neutralC/CFD-LF-211-003-N.jpg","img/neutralC/CFD-BM-200-046-N.jpg","1","1","1","1","0","0","0.510266100056469","0.730243899975903","0.64489659992978","1","1","1","1","1","1","1","1","1"
"250064","img/neutralC/CFD-BM-200-046-N.jpg","img/neutralC/CFD-MF-318-022-N.jpg","img/neutralC/CFD-WM-255-219-N.jpg","1","1","1","0","1","0","0.64489659992978","0.510266100056469","0.592372299986891","1","1","1","1","1","1","1","1","1"
"250064","img/neutralC/CFD-WM-255-219-N.jpg","img/neutralC/CFD-BM-200-046-N.jpg","img/neutralC/CFD-IF-629-234-N.jpg","1","1","1","0","0","0","0.592372299986891","0.64489659992978","0.57978579995688","1","1","1","1","1","1","1","1","1"
"250064","img/neutralC/CFD-IF-629-234-N.jpg","img/neutralC/CFD-WM-255-219-N.jpg","img/neutralC/CFD-WM-237-052-N.jpg","1","1","1","0","0","1","0.57978579995688","0.592372299986891","0.486337000038475","1","1","1","1","1","1","1","1","1"
"250064","img/neutralC/CFD-WM-237-052-N.jpg","img/neutralC/CFD-IF-629-234-N.jpg","img/neutralC/CFD-WM-009-002-N.jpg","1","1","1","1","0","0","0.486337000038475","0.57978579995688","0.589942199992947","1","1","1","1","1","1","1","1","1"
"250064","img/neutralC/CFD-WM-009-002-N.jpg","img/neutralC/CFD-WM-237-052-N.jpg","img/neutralC/CFD-BF-018-039-N.jpg","1","1","1","0","1","1","0.589942199992947","0.486337000038475","0.508710899972357","1","1","1","1","1","1","1","1","1"
"250064","img/neutralC/CFD-BF-018-039-N.jpg","img/neutralC/CFD-WM-009-002-N.jpg","img/neutralC/CFD-WF-245-084-N.jpg","1","1","1","1","0","1","0.508710899972357","0.589942199992947","0.400953500065952","1","1","1","1","1","1","1","1","1"
"250064","img/neutralC/CFD-WF-245-084-N.jpg","img/neutralC/CFD-BF-018-039-N.jpg","img/neutralC/CFD-WM-221-091-N.jpg","1","1","1","1","1","0","0.400953500065952","0.508710899972357","0.477218199986964","1","1","1","1","1","1","1","1","1"
"250064","img/neutralC/CFD-WM-221-091-N.jpg","img/neutralC/CFD-WF-245-084-N.jpg","img/neutralC/CFD-WM-013-001-N.jpg","1","1","1","0","1","1","0.477218199986964","0.400953500065952","0.432653900003061","1","1","1","1","1","1","1","1","1"
"250064","img/neutralC/CFD-WM-013-001-N.jpg","img/neutralC/CFD-WM-221-091-N.jpg","img/neutralC/CFD-AF-221-147-N.jpg","1","1","1","1","0","0","0.432653900003061","0.477218199986964","0.539968300028704","1","1","1","1","1","1","1","1","1"
"250064","img/neutralC/CFD-AF-221-147-N.jpg","img/neutralC/CFD-WM-013-001-N.jpg","img/neutralC/CFD-WM-201-063-N.jpg","1","1","1","0","1","1","0.539968300028704","0.432653900003061","0.58815590001177","1","1","1","1","1","1","1","1","1"
"250064","img/neutralC/CFD-WM-201-063-N.jpg","img/neutralC/CFD-AF-221-147-N.jpg","img/neutralC/CFD-AM-244-222-N.jpg","1","1","1","1","0","0","0.58815590001177","0.539968300028704","0.651555999997072","1","1","1","1","1","1","1","1","1"
"250064","img/neutralC/CFD-AM-244-222-N.jpg","img/neutralC/CFD-WM-201-063-N.jpg","img/neutralC/CFD-BF-218-207-N.jpg","1","1","1","0","1","1","0.651555999997072","0.58815590001177","0.494922499987297","1","1","1","1","1","1","1","1","1"
"250064","img/neutralC/CFD-BF-218-207-N.jpg","img/neutralC/CFD-AM-244-222-N.jpg","img/neutralC/CFD-MF-321-003-N.jpg","1","1","1","1","0","0","0.494922499987297","0.651555999997072","0.507378500071354","1","1","1","1","1","1","1","1","1"
"250064","img/neutralC/CFD-MF-321-003-N.jpg","img/neutralC/CFD-BF-218-207-N.jpg","img/neutralC/CFD-WF-238-023-N.jpg","1","1","1","0","1","0","0.507378500071354","0.494922499987297","0.586385500035249","1","1","1","1","1","1","1","1","1"
"250064","img/neutralC/CFD-WF-238-023-N.jpg","img/neutralC/CFD-MF-321-003-N.jpg","img/neutralC/CFD-IM-627-178-N.jpg","1","1","1","0","0","1","0.586385500035249","0.507378500071354","0.526581999962218","1","1","1","1","1","1","1","1","1"
"250064","img/neutralC/CFD-IM-627-178-N.jpg","img/neutralC/CFD-WF-238-023-N.jpg","img/neutralC/CFD-BM-023-029-N.jpg","1","1","1","1","0","1","0.526581999962218","0.586385500035249","0.452133400016464","1","1","1","1","1","1","1","1","1"
"250064","img/neutralC/CFD-BM-023-029-N.jpg","img/neutralC/CFD-IM-627-178-N.jpg","img/neutralC/CFD-MM-321-021-N.jpg","1","1","1","1","1","0","0.452133400016464","0.526581999962218","0.478526099934243","1","1","1","1","1","1","1","1","1"
"250064","img/neutralC/CFD-MM-321-021-N.jpg","img/neutralC/CFD-BM-023-029-N.jpg","img/neutralC/CFD-WF-023-003-N.jpg","1","1","1","0","1","1","0.478526099934243","0.452133400016464","0.477532900054939","1","1","1","1","1","1","1","1","1"
"250064","img/neutralC/CFD-WF-023-003-N.jpg","img/neutralC/CFD-MM-321-021-N.jpg","img/neutralC/CFD-WF-027-003-N.jpg","1","1","1","1","0","1","0.477532900054939","0.478526099934243","0.405130699975416","1","1","1","1","1","1","1","1","1"
"250064","img/neutralC/CFD-WF-027-003-N.jpg","img/neutralC/CFD-WF-023-003-N.jpg","img/neutralC/CFD-BM-204-003-N.jpg","1","1","1","1","1","0","0.405130699975416","0.477532900054939","0.347301300032996","1","1","1","1","1","1","1","1","1"
"250064","img/neutralC/CFD-BM-204-003-N.jpg","img/neutralC/CFD-WF-027-003-N.jpg","img/neutralC/CFD-WF-018-017-N.jpg","1","1","1","0","1","1","0.347301300032996","0.405130699975416","0.470350200077519","1","1","1","1","1","1","1","1","1"
"250064","img/neutralC/CFD-WF-018-017-N.jpg","img/neutralC/CFD-BM-204-003-N.jpg","img/neutralC/CFD-IM-700-009-N.jpg","1","1","1","1","0","1","0.470350200077519","0.347301300032996","0.421444299980067","1","1","1","1","1","1","1","1","1"
"250064","img/neutralC/CFD-IM-700-009-N.jpg","img/neutralC/CFD-WF-018-017-N.jpg","img/neutralC/CFD-IM-719-221-N.jpg","1","1","1","1","1","0","0.421444299980067","0.470350200077519","0.621455100015737","1","1","1","1","1","1","1","1","1"
"250064","img/neutralC/CFD-IM-719-221-N.jpg","img/neutralC/CFD-IM-700-009-N.jpg","img/neutralC/CFD-AF-232-078-N.jpg","1","1","1","0","1","1","0.621455100015737","0.421444299980067","0.44952500006184","1","1","1","1","1","1","1","1","1"
"250064","img/neutralC/CFD-AF-232-078-N.jpg","img/neutralC/CFD-IM-719-221-N.jpg","img/neutralC/CFD-BF-254-201-N.jpg","1","1","1","1","0","0","0.44952500006184","0.621455100015737","0.499995100079104","1","1","1","1","1","1","1","1","1"
"250064","img/neutralC/CFD-BF-254-201-N.jpg","img/neutralC/CFD-AF-232-078-N.jpg","img/neutralC/CFD-LM-253-075-N.jpg","1","1","1","0","1","0","0.499995100079104","0.44952500006184","0.585820299922489","1","1","1","1","1","1","1","1","1"
"250064","img/neutralC/CFD-LM-253-075-N.jpg","img/neutralC/CFD-BF-254-201-N.jpg","img/neutralC/CFD-LF-215-157-N.jpg","1","1","1","0","0","0","0.585820299922489","0.499995100079104","0.393472200026736","1","1","1","1","1","1","1","1","1"
"250064","img/neutralC/CFD-LF-215-157-N.jpg","img/neutralC/CFD-LM-253-075-N.jpg","img/neutralC/CFD-WF-226-095-N.jpg","1","1","1","0","0","1","0.393472200026736","0.585820299922489","0.431256799958646","1","1","1","1","1","1","1","1","1"
"250064","img/neutralC/CFD-WF-226-095-N.jpg","img/neutralC/CFD-LF-215-157-N.jpg",NA,"1","1",NA,"1","0",NA,"0.431256799958646","0.393472200026736",NA,"1","1",NA,"1","1",NA,"1","1",NA
"250064","img/neutralC/CFD-BM-205-001-N.jpg",NA,"img/neutralC/CFD-LM-216-082-N.jpg","1",NA,"1","0",NA,"0","0.97049540001899",NA,"0.496834399993531","1",NA,"1","1",NA,"1","1",NA,"1"
"250064","img/neutralC/CFD-LM-216-082-N.jpg","img/neutralC/CFD-BM-205-001-N.jpg","img/neutralC/CFD-WM-012-001-N.jpg","1","1","1","0","0","1","0.496834399993531","0.97049540001899","0.4212251000572","1","1","1","1","1","1","1","1","1"
"250064","img/neutralC/CFD-WM-012-001-N.jpg","img/neutralC/CFD-LM-216-082-N.jpg","img/neutralC/CFD-MM-317-061-N.jpg","1","1","1","1","0","1","0.4212251000572","0.496834399993531","0.435229199938476","1","1","1","1","1","1","1","1","1"
"250064","img/neutralC/CFD-MM-317-061-N.jpg","img/neutralC/CFD-WM-012-001-N.jpg","img/neutralC/CFD-WF-017-003-N.jpg","1","1","1","1","1","1","0.435229199938476","0.4212251000572","0.421682100044563","1","1","1","1","1","1","1","1","1"
"250064","img/neutralC/CFD-WF-017-003-N.jpg","img/neutralC/CFD-MM-317-061-N.jpg","img/neutralC/CFD-WM-019-003-N.jpg","1","1","1","1","1","1","0.421682100044563","0.435229199938476","0.346425399999134","1","1","1","1","1","1","1","1","1"
"250064","img/neutralC/CFD-WM-019-003-N.jpg","img/neutralC/CFD-WF-017-003-N.jpg","img/neutralC/CFD-WF-240-083-N.jpg","1","1","1","1","1","0","0.346425399999134","0.421682100044563","0.53421460010577","1","1","1","1","1","1","1","1","1"
"250064","img/neutralC/CFD-WF-240-083-N.jpg","img/neutralC/CFD-WM-019-003-N.jpg","img/neutralC/CFD-WM-212-097-N.jpg","1","1","0","0","1","0","0.53421460010577","0.346425399999134","0.443214899976738","1","1","1","1","1","1","1","1","2"
"250064","img/neutralC/CFD-WM-212-097-N.jpg","img/neutralC/CFD-WF-240-083-N.jpg","img/neutralC/CFD-LM-244-068-N.jpg","0","1","1","0","0","1","0.443214899976738","0.53421460010577","0.553763199946843","1","1","1","1","1","1","2","1","1"
"250064","img/neutralC/CFD-LM-244-068-N.jpg","img/neutralC/CFD-WM-212-097-N.jpg","img/neutralC/CFD-WF-005-010-N.jpg","1","0","1","1","0","0","0.553763199946843","0.443214899976738","0.510841800016351","1","1","1","1","1","1","1","2","1"
"250064","img/neutralC/CFD-WF-005-010-N.jpg","img/neutralC/CFD-LM-244-068-N.jpg","img/neutralC/CFD-BF-228-212-N.jpg","1","1","1","0","1","0","0.510841800016351","0.553763199946843","0.47564489999786","1","1","1","1","1","1","1","1","1"
"250064","img/neutralC/CFD-BF-228-212-N.jpg","img/neutralC/CFD-WF-005-010-N.jpg","img/neutralC/CFD-WM-249-239-N.jpg","1","1","1","0","0","1","0.47564489999786","0.510841800016351","0.412552000023425","1","1","1","1","1","1","1","1","1"
"250064","img/neutralC/CFD-WM-249-239-N.jpg","img/neutralC/CFD-BF-228-212-N.jpg","img/neutralC/CFD-IM-646-023-N.jpg","1","1","1","1","0","1","0.412552000023425","0.47564489999786","0.444876500056125","1","1","1","1","1","1","1","1","1"
"250064","img/neutralC/CFD-IM-646-023-N.jpg","img/neutralC/CFD-WM-249-239-N.jpg","img/neutralC/CFD-WM-026-001-N.jpg","1","1","1","1","1","1","0.444876500056125","0.412552000023425","0.442548800026998","1","1","1","1","1","1","1","1","1"
"250064","img/neutralC/CFD-WM-026-001-N.jpg","img/neutralC/CFD-IM-646-023-N.jpg","img/neutralC/CFD-BF-025-002-N.jpg","1","1","0","1","1","0","0.442548800026998","0.444876500056125","0.472880900022574","1","1","1","1","1","1","1","1","1"
"250064","img/neutralC/CFD-BF-025-002-N.jpg","img/neutralC/CFD-WM-026-001-N.jpg","img/neutralC/CFD-WM-006-002-N.jpg","0","1","1","0","1","0","0.472880900022574","0.442548800026998","0.678882600041106","1","1","1","1","1","1","1","1","1"
"250064","img/neutralC/CFD-WM-006-002-N.jpg","img/neutralC/CFD-BF-025-002-N.jpg","img/neutralC/CFD-LM-243-075-N.jpg","1","0","0","0","0","0","0.678882600041106","0.472880900022574","0.686926100053824","1","1","1","1","1","1","1","1","1"
"250064","img/neutralC/CFD-LM-243-075-N.jpg","img/neutralC/CFD-WM-006-002-N.jpg","img/neutralC/CFD-WF-228-196-N.jpg","0","1","1","0","0","0","0.686926100053824","0.678882600041106","0.543263599975035","1","1","1","1","1","1","1","1","1"
"250064","img/neutralC/CFD-WF-228-196-N.jpg","img/neutralC/CFD-LM-243-075-N.jpg","img/neutralC/CFD-AF-240-206-N.jpg","1","0","1","0","0","0","0.543263599975035","0.686926100053824","0.528732699924149","1","1","1","1","1","1","1","1","1"
"250064","img/neutralC/CFD-AF-240-206-N.jpg","img/neutralC/CFD-WF-228-196-N.jpg","img/neutralC/CFD-AM-247-165-N.jpg","1","1","1","0","0","1","0.528732699924149","0.543263599975035","0.476895999978296","1","1","1","1","1","1","1","1","1"
"250064","img/neutralC/CFD-AM-247-165-N.jpg","img/neutralC/CFD-AF-240-206-N.jpg","img/neutralC/CFD-MF-335-002-N.jpg","1","1","1","1","0","0","0.476895999978296","0.528732699924149","0.621001000050455","1","1","1","1","1","1","1","1","1"
"250064","img/neutralC/CFD-MF-335-002-N.jpg","img/neutralC/CFD-AM-247-165-N.jpg","img/neutralC/CFD-BM-251-013-N.jpg","1","1","1","0","1","1","0.621001000050455","0.476895999978296","0.466294400044717","1","1","1","1","1","1","1","1","1"
"250064","img/neutralC/CFD-BM-251-013-N.jpg","img/neutralC/CFD-MF-335-002-N.jpg","img/neutralC/CFD-BF-212-315-N.jpg","1","1","1","1","0","1","0.466294400044717","0.621001000050455","0.380039799958467","1","1","1","1","1","1","1","1","1"
"250064","img/neutralC/CFD-BF-212-315-N.jpg","img/neutralC/CFD-BM-251-013-N.jpg","img/neutralC/CFD-WM-215-041-N.jpg","1","1","1","1","1","0","0.380039799958467","0.466294400044717","0.824673100025393","1","1","1","1","1","1","1","1","1"
"250064","img/neutralC/CFD-WM-215-041-N.jpg","img/neutralC/CFD-BF-212-315-N.jpg","img/neutralC/CFD-MF-309-002-N.jpg","1","1","1","0","1","0","0.824673100025393","0.380039799958467","0.56131529994309","1","1","1","1","1","1","1","1","1"
"250064","img/neutralC/CFD-MF-309-002-N.jpg","img/neutralC/CFD-WM-215-041-N.jpg","img/neutralC/CFD-BF-041-001-N.jpg","1","1","1","0","0","1","0.56131529994309","0.824673100025393","0.41209739993792","1","1","1","1","1","1","1","1","1"
"250064","img/neutralC/CFD-BF-041-001-N.jpg","img/neutralC/CFD-MF-309-002-N.jpg","img/neutralC/CFD-LM-214-165-N.jpg","1","1","1","1","0","1","0.41209739993792","0.56131529994309","0.404723100014962","1","1","1","1","1","1","1","1","1"
"250064","img/neutralC/CFD-LM-214-165-N.jpg","img/neutralC/CFD-BF-041-001-N.jpg","img/neutralC/CFD-BM-248-128-N.jpg","1","1","1","1","1","0","0.404723100014962","0.41209739993792","0.53738480003085","1","1","1","1","1","1","1","1","1"
"250064","img/neutralC/CFD-BM-248-128-N.jpg","img/neutralC/CFD-LM-214-165-N.jpg","img/neutralC/CFD-BF-202-109-N.jpg","1","1","1","0","1","1","0.53738480003085","0.404723100014962","0.3856395999901","1","1","1","1","1","1","1","1","1"
"250064","img/neutralC/CFD-BF-202-109-N.jpg","img/neutralC/CFD-BM-248-128-N.jpg","img/neutralC/CFD-IM-648-337-N.jpg","1","1","1","1","0","0","0.3856395999901","0.53738480003085","0.572833299986087","1","1","1","1","1","1","1","1","1"
"250064","img/neutralC/CFD-IM-648-337-N.jpg","img/neutralC/CFD-BF-202-109-N.jpg","img/neutralC/CFD-IF-642-295-N.jpg","1","1","1","0","1","1","0.572833299986087","0.3856395999901","0.456792199984193","1","1","1","1","1","1","1","1","1"
"250064","img/neutralC/CFD-IF-642-295-N.jpg","img/neutralC/CFD-IM-648-337-N.jpg","img/neutralC/CFD-LM-201-057-N.jpg","1","1","1","1","0","1","0.456792199984193","0.572833299986087","0.375594999990426","1","1","1","1","1","1","1","1","1"
"250064","img/neutralC/CFD-LM-201-057-N.jpg","img/neutralC/CFD-IF-642-295-N.jpg",NA,"1","1",NA,"1","1",NA,"0.375594999990426","0.456792199984193",NA,"1","1",NA,"1","1",NA,"1","1",NA
"250064","img/neutralC/CFD-LF-222-147-N.jpg",NA,"img/neutralC/CFD-WF-243-148-N.jpg","0",NA,"1","0",NA,"0","0.903494699974544",NA,"0.521233499981463","1",NA,"1","1",NA,"1","1",NA,"1"
"250064","img/neutralC/CFD-WF-243-148-N.jpg","img/neutralC/CFD-LF-222-147-N.jpg","img/neutralC/CFD-IM-606-008-N.jpg","1","0","1","0","0","0","0.521233499981463","0.903494699974544","0.462995999958366","1","1","1","1","1","1","1","1","1"
"250064","img/neutralC/CFD-IM-606-008-N.jpg","img/neutralC/CFD-WF-243-148-N.jpg","img/neutralC/CFD-IF-676-017-N.jpg","1","1","1","0","0","1","0.462995999958366","0.521233499981463","0.599156600073911","1","1","1","1","1","1","1","1","1"
"250064","img/neutralC/CFD-IF-676-017-N.jpg","img/neutralC/CFD-IM-606-008-N.jpg","img/neutralC/CFD-MF-328-020-N.jpg","1","1","1","1","0","0","0.599156600073911","0.462995999958366","0.557449499960057","1","1","1","1","1","1","1","1","1"
"250064","img/neutralC/CFD-MF-328-020-N.jpg","img/neutralC/CFD-IF-676-017-N.jpg","img/neutralC/CFD-IM-615-167-N.jpg","1","1","1","0","1","0","0.557449499960057","0.599156600073911","0.44773090002127","1","1","1","1","1","1","1","1","1"
"250064","img/neutralC/CFD-IM-615-167-N.jpg","img/neutralC/CFD-MF-328-020-N.jpg","img/neutralC/CFD-WF-241-210-N.jpg","1","1","1","0","0","0","0.44773090002127","0.557449499960057","0.493050100049004","1","1","1","1","1","1","1","1","1"
"250064","img/neutralC/CFD-WF-241-210-N.jpg","img/neutralC/CFD-IM-615-167-N.jpg","img/neutralC/CFD-IM-697-015-N.jpg","1","1","1","0","0","1","0.493050100049004","0.44773090002127","0.421031499980018","1","1","1","1","1","1","1","1","1"
"250064","img/neutralC/CFD-IM-697-015-N.jpg","img/neutralC/CFD-WF-241-210-N.jpg","img/neutralC/CFD-AM-249-163-N.jpg","1","1","1","1","0","1","0.421031499980018","0.493050100049004","0.396358600002714","1","1","1","1","1","1","1","1","1"
"250064","img/neutralC/CFD-AM-249-163-N.jpg","img/neutralC/CFD-IM-697-015-N.jpg","img/neutralC/CFD-BF-012-001-N.jpg","1","1","1","1","1","0","0.396358600002714","0.421031499980018","0.393810700043105","1","1","1","1","1","1","1","1","1"
"250064","img/neutralC/CFD-BF-012-001-N.jpg","img/neutralC/CFD-AM-249-163-N.jpg","img/neutralC/CFD-AM-243-212-N.jpg","1","1","1","0","1","1","0.393810700043105","0.396358600002714","0.447400199947879","1","1","1","1","1","1","1","1","1"
"250064","img/neutralC/CFD-AM-243-212-N.jpg","img/neutralC/CFD-BF-012-001-N.jpg","img/neutralC/CFD-WF-207-014-N.jpg","1","1","1","1","0","1","0.447400199947879","0.393810700043105","0.436496499925852","1","1","1","1","1","1","1","1","1"
"250064","img/neutralC/CFD-WF-207-014-N.jpg","img/neutralC/CFD-AM-243-212-N.jpg","img/neutralC/CFD-LF-212-066-N.jpg","1","1","1","1","1","1","0.436496499925852","0.447400199947879","0.389558300026693","1","1","1","1","1","1","1","1","1"
"250064","img/neutralC/CFD-LF-212-066-N.jpg","img/neutralC/CFD-WF-207-014-N.jpg","img/neutralC/CFD-BF-244-231-N.jpg","1","1","1","1","1","1","0.389558300026693","0.436496499925852","0.324909999966621","1","1","1","1","1","1","1","1","1"
"250064","img/neutralC/CFD-BF-244-231-N.jpg","img/neutralC/CFD-LF-212-066-N.jpg","img/neutralC/CFD-BM-043-071-N.jpg","1","1","1","1","1","0","0.324909999966621","0.389558300026693","0.377809699974023","1","1","1","1","1","1","1","1","1"
"250064","img/neutralC/CFD-BM-043-071-N.jpg","img/neutralC/CFD-BF-244-231-N.jpg","img/neutralC/CFD-BM-227-191-N.jpg","1","1","1","0","1","1","0.377809699974023","0.324909999966621","0.443534999969415","1","1","1","1","1","1","1","1","1"
"250064","img/neutralC/CFD-BM-227-191-N.jpg","img/neutralC/CFD-BM-043-071-N.jpg","img/neutralC/CFD-AM-205-153-N.jpg","1","1","1","1","0","1","0.443534999969415","0.377809699974023","0.453672899981029","1","1","1","1","1","1","1","1","1"
"250064","img/neutralC/CFD-AM-205-153-N.jpg","img/neutralC/CFD-BM-227-191-N.jpg","img/neutralC/CFD-WM-023-001-N.jpg","1","1","1","1","1","0","0.453672899981029","0.443534999969415","0.452756899991073","1","1","1","1","1","1","1","1","1"
"250064","img/neutralC/CFD-WM-023-001-N.jpg","img/neutralC/CFD-AM-205-153-N.jpg","img/neutralC/CFD-WM-028-003-N.jpg","1","1","1","0","1","1","0.452756899991073","0.453672899981029","0.445822399924509","1","1","1","1","1","1","1","1","1"
"250064","img/neutralC/CFD-WM-028-003-N.jpg","img/neutralC/CFD-WM-023-001-N.jpg","img/neutralC/CFD-AM-219-101-N.jpg","1","1","1","1","0","0","0.445822399924509","0.452756899991073","0.466838699998334","1","1","1","1","1","1","1","1","1"
"250064","img/neutralC/CFD-AM-219-101-N.jpg","img/neutralC/CFD-WM-028-003-N.jpg","img/neutralC/CFD-LF-238-154-N.jpg","1","1","1","0","1","1","0.466838699998334","0.445822399924509","0.365210000076331","1","1","1","1","1","1","1","1","1"
"250064","img/neutralC/CFD-LF-238-154-N.jpg","img/neutralC/CFD-AM-219-101-N.jpg","img/neutralC/CFD-BM-020-001-N.jpg","1","1","1","1","0","0","0.365210000076331","0.466838699998334","0.493388999952003","1","1","1","1","1","1","1","1","1"
"250064","img/neutralC/CFD-BM-020-001-N.jpg","img/neutralC/CFD-LF-238-154-N.jpg","img/neutralC/CFD-MM-306-010-N.jpg","1","1","1","0","1","0","0.493388999952003","0.365210000076331","0.713767000008374","1","1","1","1","1","1","1","1","1"
"250064","img/neutralC/CFD-MM-306-010-N.jpg","img/neutralC/CFD-BM-020-001-N.jpg","img/neutralC/CFD-IM-689-263-N.jpg","1","1","1","0","0","1","0.713767000008374","0.493388999952003","0.418597399955615","1","1","1","1","1","1","1","1","1"
"250064","img/neutralC/CFD-IM-689-263-N.jpg","img/neutralC/CFD-MM-306-010-N.jpg","img/neutralC/CFD-LM-240-013-N.jpg","1","1","1","1","0","1","0.418597399955615","0.713767000008374","0.421574900043197","1","1","1","1","1","1","1","1","1"
"250064","img/neutralC/CFD-LM-240-013-N.jpg","img/neutralC/CFD-IM-689-263-N.jpg","img/neutralC/CFD-BM-021-021-N.jpg","1","1","1","1","1","1","0.421574900043197","0.418597399955615","0.437593400012702","1","1","1","1","1","1","1","1","1"
"250064","img/neutralC/CFD-BM-021-021-N.jpg","img/neutralC/CFD-LM-240-013-N.jpg","img/neutralC/CFD-WM-025-002-N.jpg","1","1","1","1","1","0","0.437593400012702","0.421574900043197","0.403454600018449","1","1","1","1","1","1","1","1","1"
"250064","img/neutralC/CFD-WM-025-002-N.jpg","img/neutralC/CFD-BM-021-021-N.jpg","img/neutralC/CFD-WF-009-001-N.jpg","1","1","1","0","1","1","0.403454600018449","0.437593400012702","0.453728900058195","1","1","1","1","1","1","1","1","1"
"250064","img/neutralC/CFD-WF-009-001-N.jpg","img/neutralC/CFD-WM-025-002-N.jpg","img/neutralC/CFD-BM-030-003-N.jpg","1","1","1","1","0","0","0.453728900058195","0.403454600018449","0.643389299977571","1","1","1","1","1","1","1","1","1"
"250064","img/neutralC/CFD-BM-030-003-N.jpg","img/neutralC/CFD-WF-009-001-N.jpg","img/neutralC/CFD-BM-009-002-N.jpg","1","1","1","0","1","1","0.643389299977571","0.453728900058195","0.418333700043149","1","1","1","1","1","1","1","1","1"
"250064","img/neutralC/CFD-BM-009-002-N.jpg","img/neutralC/CFD-BM-030-003-N.jpg","img/neutralC/CFD-WF-221-005-N.jpg","1","1","0","1","0","0","0.418333700043149","0.643389299977571","0.362028400064446","1","1","1","1","1","1","1","1","1"
"250064","img/neutralC/CFD-WF-221-005-N.jpg","img/neutralC/CFD-BM-009-002-N.jpg","img/neutralC/CFD-AF-237-223-N.jpg","0","1","1","0","1","0","0.362028400064446","0.418333700043149","0.548395899939351","1","1","1","1","1","1","1","1","1"
"250064","img/neutralC/CFD-AF-237-223-N.jpg","img/neutralC/CFD-WF-221-005-N.jpg",NA,"1","0",NA,"0","0",NA,"0.548395899939351","0.362028400064446",NA,"1","1",NA,"1","1",NA,"1","1",NA
"250064","img/neutralC/CFD-WF-223-133-N.jpg",NA,"img/neutralC/CFD-IM-701-312-N.jpg","0",NA,"1","0",NA,"0","0.886543400003575",NA,"0.571087300078943","1",NA,"1","1",NA,"1","1",NA,"1"
"250064","img/neutralC/CFD-IM-701-312-N.jpg","img/neutralC/CFD-WF-223-133-N.jpg","img/neutralC/CFD-WM-228-065-N.jpg","1","0","1","0","0","0","0.571087300078943","0.886543400003575","0.455811199964955","1","1","1","1","1","1","1","1","1"
"250064","img/neutralC/CFD-WM-228-065-N.jpg","img/neutralC/CFD-IM-701-312-N.jpg","img/neutralC/CFD-WF-006-002-N.jpg","1","1","1","0","0","0","0.455811199964955","0.571087300078943","0.551795700099319","1","1","1","1","1","1","1","1","1"
"250064","img/neutralC/CFD-WF-006-002-N.jpg","img/neutralC/CFD-WM-228-065-N.jpg","img/neutralC/CFD-AF-239-171-N.jpg","1","1","1","0","0","1","0.551795700099319","0.455811199964955","0.454297199961729","1","1","1","1","1","1","1","1","1"
"250064","img/neutralC/CFD-AF-239-171-N.jpg","img/neutralC/CFD-WF-006-002-N.jpg","img/neutralC/CFD-WM-202-107-N.jpg","1","1","1","1","0","1","0.454297199961729","0.551795700099319","0.419718999997713","1","1","1","1","1","1","1","1","1"
"250064","img/neutralC/CFD-WM-202-107-N.jpg","img/neutralC/CFD-AF-239-171-N.jpg","img/neutralC/CFD-BF-045-003-N.jpg","1","1","1","1","1","0","0.419718999997713","0.454297199961729","0.592222900013439","1","1","1","1","1","1","1","1","1"
"250064","img/neutralC/CFD-BF-045-003-N.jpg","img/neutralC/CFD-WM-202-107-N.jpg","img/neutralC/CFD-MF-336-016-N.jpg","1","1","1","0","1","1","0.592222900013439","0.419718999997713","0.484439100022428","1","1","1","1","1","1","1","1","1"
"250064","img/neutralC/CFD-MF-336-016-N.jpg","img/neutralC/CFD-BF-045-003-N.jpg","img/neutralC/CFD-LF-241-188-N.jpg","1","1","1","1","0","0","0.484439100022428","0.592222900013439","0.535356199950911","1","1","1","1","1","1","1","1","1"
"250064","img/neutralC/CFD-LF-241-188-N.jpg","img/neutralC/CFD-MF-336-016-N.jpg","img/neutralC/CFD-BM-003-003-N.jpg","1","1","1","0","1","0","0.535356199950911","0.484439100022428","0.425175499985926","1","1","1","1","1","1","1","1","1"
"250064","img/neutralC/CFD-BM-003-003-N.jpg","img/neutralC/CFD-LF-241-188-N.jpg","img/neutralC/CFD-IF-673-389-N.jpg","1","1","1","0","0","0","0.425175499985926","0.535356199950911","0.499431899981573","1","1","1","1","1","1","1","1","1"
"250064","img/neutralC/CFD-IF-673-389-N.jpg","img/neutralC/CFD-BM-003-003-N.jpg","img/neutralC/CFD-IF-625-225-N.jpg","1","1","1","0","0","0","0.499431899981573","0.425175499985926","0.458024400053546","1","1","1","1","1","1","1","1","1"
"250064","img/neutralC/CFD-IF-625-225-N.jpg","img/neutralC/CFD-IF-673-389-N.jpg","img/neutralC/CFD-LM-247-095-N.jpg","1","1","1","0","0","0","0.458024400053546","0.499431899981573","0.547929899999872","1","1","1","1","1","1","1","1","1"
"250064","img/neutralC/CFD-LM-247-095-N.jpg","img/neutralC/CFD-IF-625-225-N.jpg","img/neutralC/CFD-LF-210-220-N.jpg","1","1","1","0","0","1","0.547929899999872","0.458024400053546","0.444286599988118","1","1","1","1","1","1","1","1","1"
"250064","img/neutralC/CFD-LF-210-220-N.jpg","img/neutralC/CFD-LM-247-095-N.jpg","img/neutralC/CFD-AF-210-050-N.jpg","1","1","1","1","0","1","0.444286599988118","0.547929899999872","0.380872700014152","1","1","1","1","1","1","1","1","1"
"250064","img/neutralC/CFD-AF-210-050-N.jpg","img/neutralC/CFD-LF-210-220-N.jpg","img/neutralC/CFD-WF-033-002-N.jpg","1","1","1","1","1","1","0.380872700014152","0.444286599988118","0.411571700009517","1","1","1","1","1","1","1","1","1"
"250064","img/neutralC/CFD-WF-033-002-N.jpg","img/neutralC/CFD-AF-210-050-N.jpg","img/neutralC/CFD-BM-010-003-N.jpg","1","1","1","1","1","0","0.411571700009517","0.380872700014152","0.462628100067377","1","1","1","1","1","1","1","1","1"
"250064","img/neutralC/CFD-BM-010-003-N.jpg","img/neutralC/CFD-WF-033-002-N.jpg","img/neutralC/CFD-LF-225-164-N.jpg","1","1","1","0","1","1","0.462628100067377","0.411571700009517","0.408775100018829","1","1","1","1","1","1","1","1","1"
"250064","img/neutralC/CFD-LF-225-164-N.jpg","img/neutralC/CFD-BM-010-003-N.jpg","img/neutralC/CFD-LF-208-127-N.jpg","1","1","1","1","0","0","0.408775100018829","0.462628100067377","0.565725199994631","1","1","1","1","1","1","1","1","1"
"250064","img/neutralC/CFD-LF-208-127-N.jpg","img/neutralC/CFD-LF-225-164-N.jpg","img/neutralC/CFD-IM-738-191-N.jpg","1","1","0","0","1","0","0.565725199994631","0.408775100018829","0.443683399935253","1","1","1","1","1","1","1","1","1"
"250064","img/neutralC/CFD-IM-738-191-N.jpg","img/neutralC/CFD-LF-208-127-N.jpg","img/neutralC/CFD-IF-744-114-N.jpg","0","1","1","0","0","0","0.443683399935253","0.565725199994631","0.682857799925841","1","1","1","1","1","1","1","1","1"
"250064","img/neutralC/CFD-IF-744-114-N.jpg","img/neutralC/CFD-IM-738-191-N.jpg","img/neutralC/CFD-BM-213-134-N.jpg","1","0","1","0","0","1","0.682857799925841","0.443683399935253","0.409627299988642","1","1","1","1","1","1","1","1","1"
"250064","img/neutralC/CFD-BM-213-134-N.jpg","img/neutralC/CFD-IF-744-114-N.jpg","img/neutralC/CFD-BF-004-014-N.jpg","1","1","1","1","0","1","0.409627299988642","0.682857799925841","0.382214099983685","1","1","1","1","1","1","1","1","1"
"250064","img/neutralC/CFD-BF-004-014-N.jpg","img/neutralC/CFD-BM-213-134-N.jpg","img/neutralC/CFD-LM-238-129-N.jpg","1","1","1","1","1","1","0.382214099983685","0.409627299988642","0.415174699970521","1","1","1","1","1","1","1","1","1"
"250064","img/neutralC/CFD-LM-238-129-N.jpg","img/neutralC/CFD-BF-004-014-N.jpg","img/neutralC/CFD-AM-221-184-N.jpg","1","1","1","1","1","1","0.415174699970521","0.382214099983685","0.468495700042695","1","1","1","1","1","1","1","1","1"
"250064","img/neutralC/CFD-AM-221-184-N.jpg","img/neutralC/CFD-LM-238-129-N.jpg","img/neutralC/CFD-IM-659-359-N.jpg","1","1","1","1","1","0","0.468495700042695","0.415174699970521","0.590865000034682","1","1","1","1","1","1","1","1","1"
"250064","img/neutralC/CFD-IM-659-359-N.jpg","img/neutralC/CFD-AM-221-184-N.jpg","img/neutralC/CFD-BM-028-002-N.jpg","1","1","1","0","1","1","0.590865000034682","0.468495700042695","0.535812700050883","1","1","1","1","1","1","1","1","1"
"250064","img/neutralC/CFD-BM-028-002-N.jpg","img/neutralC/CFD-IM-659-359-N.jpg","img/neutralC/CFD-AF-227-207-N.jpg","1","1","1","1","0","1","0.535812700050883","0.590865000034682","0.447545900009573","1","1","1","1","1","1","1","1","1"
"250064","img/neutralC/CFD-AF-227-207-N.jpg","img/neutralC/CFD-BM-028-002-N.jpg","img/neutralC/CFD-WM-254-152-N.jpg","1","1","1","1","1","1","0.447545900009573","0.535812700050883","0.474616999970749","1","1","1","1","1","1","1","1","1"
"250064","img/neutralC/CFD-WM-254-152-N.jpg","img/neutralC/CFD-AF-227-207-N.jpg","img/neutralC/CFD-BM-013-002-N.jpg","1","1","1","1","1","1","0.474616999970749","0.447545900009573","0.411276899976656","1","1","1","1","1","1","1","1","1"
"250064","img/neutralC/CFD-BM-013-002-N.jpg","img/neutralC/CFD-WM-254-152-N.jpg","img/neutralC/CFD-MF-312-002-N.jpg","1","1","1","1","1","1","0.411276899976656","0.474616999970749","0.437536599929444","1","1","1","1","1","1","1","1","1"
"250064","img/neutralC/CFD-MF-312-002-N.jpg","img/neutralC/CFD-BM-013-002-N.jpg","img/neutralC/CFD-BF-222-240-N.jpg","1","1","0","1","1","0","0.437536599929444","0.411276899976656","0.408850400010124","1","1","1","1","1","1","1","1","1"
"250064","img/neutralC/CFD-BF-222-240-N.jpg","img/neutralC/CFD-MF-312-002-N.jpg",NA,"0","1",NA,"0","1",NA,"0.408850400010124","0.437536599929444",NA,"1","1",NA,"1","1",NA,"1","1",NA
