"participant_id","current_trial_face","pre_trial_face","post_trial_face","current_trial_accuracy","pre_trial_accuracy","post_trial_accuracy","current_trial_congruency","pre_trial_congruency","post_trial_congruency","current_trial_rt","pre_trial_rt","post_trial_rt","current_trial_responded","pre_trial_responded","post_trial_responded","current_trial_legitResponse","pre_trial_legitResponse","post_trial_legitResponse","current_trial_resp_nums","pre_trial_resp_nums","post_trial_resp_nums"
"250053","img/neutralC/CFD-BM-028-002-N.jpg",NA,"img/neutralC/CFD-AM-221-184-N.jpg","1",NA,"1","1",NA,"1","0.641378600004828",NA,"0.655353799986187","1",NA,"1","1",NA,"1","1",NA,"1"
"250053","img/neutralC/CFD-AM-221-184-N.jpg","img/neutralC/CFD-BM-028-002-N.jpg","img/neutralC/CFD-WM-254-152-N.jpg","1","1","1","1","1","1","0.655353799986187","0.641378600004828","0.599577499990119","1","1","1","1","1","1","1","1","1"
"250053","img/neutralC/CFD-WM-254-152-N.jpg","img/neutralC/CFD-AM-221-184-N.jpg","img/neutralC/CFD-IM-701-312-N.jpg","1","1","1","1","1","0","0.599577499990119","0.655353799986187","0.595415699994192","1","1","1","1","1","1","1","1","1"
"250053","img/neutralC/CFD-IM-701-312-N.jpg","img/neutralC/CFD-WM-254-152-N.jpg","img/neutralC/CFD-LM-247-095-N.jpg","1","1","1","0","1","0","0.595415699994192","0.599577499990119","0.594941499992274","1","1","1","1","1","1","1","1","1"
"250053","img/neutralC/CFD-LM-247-095-N.jpg","img/neutralC/CFD-IM-701-312-N.jpg","img/neutralC/CFD-BM-003-003-N.jpg","1","1","1","0","0","0","0.594941499992274","0.595415699994192","0.628976800013334","1","1","1","1","1","1","1","1","1"
"250053","img/neutralC/CFD-BM-003-003-N.jpg","img/neutralC/CFD-LM-247-095-N.jpg","img/neutralC/CFD-MF-312-002-N.jpg","1","1","1","0","0","1","0.628976800013334","0.594941499992274","0.607481799990637","1","1","1","1","1","1","1","1","1"
"250053","img/neutralC/CFD-MF-312-002-N.jpg","img/neutralC/CFD-BM-003-003-N.jpg","img/neutralC/CFD-BM-010-003-N.jpg","1","1","1","1","0","0","0.607481799990637","0.628976800013334","0.607466000015847","1","1","1","1","1","1","1","1","1"
"250053","img/neutralC/CFD-BM-010-003-N.jpg","img/neutralC/CFD-MF-312-002-N.jpg","img/neutralC/CFD-LF-210-220-N.jpg","1","1","1","0","1","1","0.607466000015847","0.607481799990637","0.751278400013689","1","1","1","1","1","1","1","1","1"
"250053","img/neutralC/CFD-LF-210-220-N.jpg","img/neutralC/CFD-BM-010-003-N.jpg","img/neutralC/CFD-LM-238-129-N.jpg","1","1","1","1","0","1","0.751278400013689","0.607466000015847","0.70349840002018","1","1","1","1","1","1","1","1","1"
"250053","img/neutralC/CFD-LM-238-129-N.jpg","img/neutralC/CFD-LF-210-220-N.jpg","img/neutralC/CFD-WF-006-002-N.jpg","1","1","1","1","1","0","0.70349840002018","0.751278400013689","0.582196600007592","1","1","1","1","1","1","1","1","1"
"250053","img/neutralC/CFD-WF-006-002-N.jpg","img/neutralC/CFD-LM-238-129-N.jpg","img/neutralC/CFD-IF-673-389-N.jpg","1","1","1","0","1","0","0.582196600007592","0.70349840002018","0.693315400014399","1","1","1","1","1","1","1","1","1"
"250053","img/neutralC/CFD-IF-673-389-N.jpg","img/neutralC/CFD-WF-006-002-N.jpg","img/neutralC/CFD-WF-033-002-N.jpg","1","1","1","0","0","1","0.693315400014399","0.582196600007592","0.658192600007169","1","1","1","1","1","1","1","1","1"
"250053","img/neutralC/CFD-WF-033-002-N.jpg","img/neutralC/CFD-IF-673-389-N.jpg","img/neutralC/CFD-IF-744-114-N.jpg","1","1","1","1","0","0","0.658192600007169","0.693315400014399","0.6500636000128","1","1","1","1","1","1","1","1","1"
"250053","img/neutralC/CFD-IF-744-114-N.jpg","img/neutralC/CFD-WF-033-002-N.jpg","img/neutralC/CFD-BF-045-003-N.jpg","1","1","1","0","1","0","0.6500636000128","0.658192600007169","0.865778700012015","1","1","1","1","1","1","1","1","1"
"250053","img/neutralC/CFD-BF-045-003-N.jpg","img/neutralC/CFD-IF-744-114-N.jpg","img/neutralC/CFD-BM-013-002-N.jpg","1","1","1","0","0","1","0.865778700012015","0.6500636000128","0.735265399998752","1","1","1","1","1","1","1","1","1"
"250053","img/neutralC/CFD-BM-013-002-N.jpg","img/neutralC/CFD-BF-045-003-N.jpg","img/neutralC/CFD-WM-202-107-N.jpg","1","1","1","1","0","1","0.735265399998752","0.865778700012015","0.797453599981964","1","1","1","1","1","1","1","1","1"
"250053","img/neutralC/CFD-WM-202-107-N.jpg","img/neutralC/CFD-BM-013-002-N.jpg","img/neutralC/CFD-LF-208-127-N.jpg","1","1","1","1","1","0","0.797453599981964","0.735265399998752","0.769114599999739","1","1","1","1","1","1","1","1","1"
"250053","img/neutralC/CFD-LF-208-127-N.jpg","img/neutralC/CFD-WM-202-107-N.jpg","img/neutralC/CFD-AF-239-171-N.jpg","1","1","1","0","1","1","0.769114599999739","0.797453599981964","0.729598099977011","1","1","1","1","1","1","1","1","1"
"250053","img/neutralC/CFD-AF-239-171-N.jpg","img/neutralC/CFD-LF-208-127-N.jpg","img/neutralC/CFD-BF-222-240-N.jpg","1","1","1","1","0","0","0.729598099977011","0.769114599999739","0.678341300023021","1","1","1","1","1","1","1","1","1"
"250053","img/neutralC/CFD-BF-222-240-N.jpg","img/neutralC/CFD-AF-239-171-N.jpg","img/neutralC/CFD-MF-336-016-N.jpg","1","1","1","0","1","1","0.678341300023021","0.729598099977011","0.620135399978608","1","1","1","1","1","1","1","1","1"
"250053","img/neutralC/CFD-MF-336-016-N.jpg","img/neutralC/CFD-BF-222-240-N.jpg","img/neutralC/CFD-AF-210-050-N.jpg","1","1","1","1","0","1","0.620135399978608","0.678341300023021","0.688093400007347","1","1","1","1","1","1","1","1","1"
"250053","img/neutralC/CFD-AF-210-050-N.jpg","img/neutralC/CFD-MF-336-016-N.jpg","img/neutralC/CFD-IM-738-191-N.jpg","1","1","1","1","1","0","0.688093400007347","0.620135399978608","0.568752799998038","1","1","1","1","1","1","1","1","1"
"250053","img/neutralC/CFD-IM-738-191-N.jpg","img/neutralC/CFD-AF-210-050-N.jpg","img/neutralC/CFD-LF-241-188-N.jpg","1","1","1","0","1","0","0.568752799998038","0.688093400007347","0.739787900005467","1","1","1","1","1","1","1","1","1"
"250053","img/neutralC/CFD-LF-241-188-N.jpg","img/neutralC/CFD-IM-738-191-N.jpg","img/neutralC/CFD-LF-225-164-N.jpg","1","1","1","0","0","1","0.739787900005467","0.568752799998038","0.628326899983222","1","1","1","1","1","1","1","1","1"
"250053","img/neutralC/CFD-LF-225-164-N.jpg","img/neutralC/CFD-LF-241-188-N.jpg","img/neutralC/CFD-BM-213-134-N.jpg","1","1","1","1","0","1","0.628326899983222","0.739787900005467","0.606746899982681","1","1","1","1","1","1","1","1","1"
"250053","img/neutralC/CFD-BM-213-134-N.jpg","img/neutralC/CFD-LF-225-164-N.jpg","img/neutralC/CFD-WF-223-133-N.jpg","1","1","1","1","1","0","0.606746899982681","0.628326899983222","0.689558199985186","1","1","1","1","1","1","1","1","1"
"250053","img/neutralC/CFD-WF-223-133-N.jpg","img/neutralC/CFD-BM-213-134-N.jpg","img/neutralC/CFD-IF-625-225-N.jpg","1","1","1","0","1","0","0.689558199985186","0.606746899982681","0.549795300001279","1","1","1","1","1","1","1","1","1"
"250053","img/neutralC/CFD-IF-625-225-N.jpg","img/neutralC/CFD-WF-223-133-N.jpg","img/neutralC/CFD-IM-659-359-N.jpg","1","1","1","0","0","0","0.549795300001279","0.689558199985186","0.648674600000959","1","1","1","1","1","1","1","1","1"
"250053","img/neutralC/CFD-IM-659-359-N.jpg","img/neutralC/CFD-IF-625-225-N.jpg","img/neutralC/CFD-AF-227-207-N.jpg","1","1","1","0","0","1","0.648674600000959","0.549795300001279","0.588127399998484","1","1","1","1","1","1","1","1","1"
"250053","img/neutralC/CFD-AF-227-207-N.jpg","img/neutralC/CFD-IM-659-359-N.jpg","img/neutralC/CFD-WM-228-065-N.jpg","1","1","1","1","0","0","0.588127399998484","0.648674600000959","0.665407699998468","1","1","1","1","1","1","1","1","1"
"250053","img/neutralC/CFD-WM-228-065-N.jpg","img/neutralC/CFD-AF-227-207-N.jpg","img/neutralC/CFD-BF-004-014-N.jpg","1","1","1","0","1","1","0.665407699998468","0.588127399998484","0.569145300018135","1","1","1","1","1","1","1","1","1"
"250053","img/neutralC/CFD-BF-004-014-N.jpg","img/neutralC/CFD-WM-228-065-N.jpg",NA,"1","1",NA,"1","0",NA,"0.569145300018135","0.665407699998468",NA,"1","1",NA,"1","1",NA,"1","1",NA
"250053","img/neutralC/CFD-MF-343-001-N.jpg",NA,"img/neutralC/CFD-LM-200-045-N.jpg","1",NA,"1","1",NA,"1","0.982298299990362",NA,"0.544877700012876","1",NA,"1","1",NA,"1","1",NA,"1"
"250053","img/neutralC/CFD-LM-200-045-N.jpg","img/neutralC/CFD-MF-343-001-N.jpg","img/neutralC/CFD-BM-001-014-N.jpg","1","1","1","1","1","0","0.544877700012876","0.982298299990362","0.541245100001106","1","1","1","1","1","1","1","1","1"
"250053","img/neutralC/CFD-BM-001-014-N.jpg","img/neutralC/CFD-LM-200-045-N.jpg","img/neutralC/CFD-IM-706-002-N.jpg","1","1","1","0","1","0","0.541245100001106","0.544877700012876","0.544767899991712","1","1","1","1","1","1","1","1","1"
"250053","img/neutralC/CFD-IM-706-002-N.jpg","img/neutralC/CFD-BM-001-014-N.jpg","img/neutralC/CFD-BF-014-002-N.jpg","1","1","0","0","0","1","0.544767899991712","0.541245100001106","0.329555400006939","1","1","1","1","1","1","1","1","1"
"250053","img/neutralC/CFD-BF-014-002-N.jpg","img/neutralC/CFD-IM-706-002-N.jpg","img/neutralC/CFD-IM-667-369-N.jpg","0","1","1","1","0","0","0.329555400006939","0.544767899991712","0.777867299999343","1","1","1","1","1","1","1","1","1"
"250053","img/neutralC/CFD-IM-667-369-N.jpg","img/neutralC/CFD-BF-014-002-N.jpg","img/neutralC/CFD-WM-218-074-N.jpg","1","0","1","0","1","1","0.777867299999343","0.329555400006939","0.4735146999883","1","1","1","1","1","1","1","1","1"
"250053","img/neutralC/CFD-WM-218-074-N.jpg","img/neutralC/CFD-IM-667-369-N.jpg","img/neutralC/CFD-WF-222-092-N.jpg","1","1","1","1","0","1","0.4735146999883","0.777867299999343","0.346620600001188","1","1","1","1","1","1","1","1","1"
"250053","img/neutralC/CFD-WF-222-092-N.jpg","img/neutralC/CFD-WM-218-074-N.jpg","img/neutralC/CFD-BM-250-170-N.jpg","1","1","1","1","1","1","0.346620600001188","0.4735146999883","0.382460099994205","1","1","1","1","1","1","1","1","1"
"250053","img/neutralC/CFD-BM-250-170-N.jpg","img/neutralC/CFD-WF-222-092-N.jpg","img/neutralC/CFD-WM-209-038-N.jpg","1","1","0","1","1","0","0.382460099994205","0.346620600001188","0.348118900001282","1","1","1","1","1","1","1","1","1"
"250053","img/neutralC/CFD-WM-209-038-N.jpg","img/neutralC/CFD-BM-250-170-N.jpg","img/neutralC/CFD-LF-206-078-N.jpg","0","1","1","0","1","1","0.348118900001282","0.382460099994205","0.497234999987995","1","1","1","1","1","1","1","1","1"
"250053","img/neutralC/CFD-LF-206-078-N.jpg","img/neutralC/CFD-WM-209-038-N.jpg","img/neutralC/CFD-MF-305-014-N.jpg","1","0","1","1","0","1","0.497234999987995","0.348118900001282","0.463237299991306","1","1","1","1","1","1","1","1","1"
"250053","img/neutralC/CFD-MF-305-014-N.jpg","img/neutralC/CFD-LF-206-078-N.jpg","img/neutralC/CFD-MF-357-002-N.jpg","1","1","0","1","1","0","0.463237299991306","0.497234999987995","0.510896799998591","1","1","1","1","1","1","1","1","1"
"250053","img/neutralC/CFD-MF-357-002-N.jpg","img/neutralC/CFD-MF-305-014-N.jpg","img/neutralC/CFD-IM-680-369-N.jpg","0","1","1","0","1","1","0.510896799998591","0.463237299991306","0.658617500012042","1","1","1","1","1","1","1","1","1"
"250053","img/neutralC/CFD-IM-680-369-N.jpg","img/neutralC/CFD-MF-357-002-N.jpg","img/neutralC/CFD-AF-253-130-N.jpg","1","0","1","1","0","1","0.658617500012042","0.510896799998591","0.592667599994456","1","1","1","1","1","1","1","1","1"
"250053","img/neutralC/CFD-AF-253-130-N.jpg","img/neutralC/CFD-IM-680-369-N.jpg","img/neutralC/CFD-MF-303-013-N.jpg","1","1","1","1","1","0","0.592667599994456","0.658617500012042","0.651912400004221","1","1","1","1","1","1","1","1","1"
"250053","img/neutralC/CFD-MF-303-013-N.jpg","img/neutralC/CFD-AF-253-130-N.jpg","img/neutralC/CFD-WF-007-001-N.jpg","1","1","1","0","1","1","0.651912400004221","0.592667599994456","0.478024500014726","1","1","1","1","1","1","1","1","1"
"250053","img/neutralC/CFD-WF-007-001-N.jpg","img/neutralC/CFD-MF-303-013-N.jpg","img/neutralC/CFD-AM-220-134-N.jpg","1","1","1","1","0","0","0.478024500014726","0.651912400004221","0.494224800000666","1","1","1","1","1","1","1","1","1"
"250053","img/neutralC/CFD-AM-220-134-N.jpg","img/neutralC/CFD-WF-007-001-N.jpg","img/neutralC/CFD-LM-225-130-N.jpg","1","1","1","0","1","0","0.494224800000666","0.478024500014726","0.692081999994116","1","1","1","1","1","1","1","1","1"
"250053","img/neutralC/CFD-LM-225-130-N.jpg","img/neutralC/CFD-AM-220-134-N.jpg","img/neutralC/CFD-IF-626-375-N.jpg","1","1","1","0","0","0","0.692081999994116","0.494224800000666","0.548515700007556","1","1","1","1","1","1","1","1","1"
"250053","img/neutralC/CFD-IF-626-375-N.jpg","img/neutralC/CFD-LM-225-130-N.jpg","img/neutralC/CFD-MM-324-069-N.jpg","1","1","1","0","0","1","0.548515700007556","0.692081999994116","0.549245100002736","1","1","1","1","1","1","1","1","1"
"250053","img/neutralC/CFD-MM-324-069-N.jpg","img/neutralC/CFD-IF-626-375-N.jpg","img/neutralC/CFD-IM-702-101-N.jpg","1","1","1","1","0","1","0.549245100002736","0.548515700007556","0.54795509998803","1","1","1","1","1","1","1","1","1"
"250053","img/neutralC/CFD-IM-702-101-N.jpg","img/neutralC/CFD-MM-324-069-N.jpg","img/neutralC/CFD-BF-237-172-N.jpg","1","1","1","1","1","1","0.54795509998803","0.549245100002736","0.787242200021865","1","1","1","1","1","1","1","1","1"
"250053","img/neutralC/CFD-BF-237-172-N.jpg","img/neutralC/CFD-IM-702-101-N.jpg","img/neutralC/CFD-BM-217-082-N.jpg","1","1","1","1","1","0","0.787242200021865","0.54795509998803","0.617562400002498","1","1","1","1","1","1","1","1","1"
"250053","img/neutralC/CFD-BM-217-082-N.jpg","img/neutralC/CFD-BF-237-172-N.jpg","img/neutralC/CFD-AF-233-190-N.jpg","1","1","1","0","1","0","0.617562400002498","0.787242200021865","0.621491300000343","1","1","1","1","1","1","1","1","1"
"250053","img/neutralC/CFD-AF-233-190-N.jpg","img/neutralC/CFD-BM-217-082-N.jpg","img/neutralC/CFD-LF-255-088-N.jpg","1","1","1","0","0","0","0.621491300000343","0.617562400002498","0.536944399995264","1","1","1","1","1","1","1","1","1"
"250053","img/neutralC/CFD-LF-255-088-N.jpg","img/neutralC/CFD-AF-233-190-N.jpg","img/neutralC/CFD-IF-660-464-N.jpg","1","1","1","0","0","0","0.536944399995264","0.621491300000343","0.596881700010272","1","1","1","1","1","1","1","1","1"
"250053","img/neutralC/CFD-IF-660-464-N.jpg","img/neutralC/CFD-LF-255-088-N.jpg","img/neutralC/CFD-WF-030-002-N.jpg","1","1","1","0","0","0","0.596881700010272","0.536944399995264","0.612857700005407","1","1","1","1","1","1","1","1","1"
"250053","img/neutralC/CFD-WF-030-002-N.jpg","img/neutralC/CFD-IF-660-464-N.jpg","img/neutralC/CFD-WM-015-002-N.jpg","1","1","1","0","0","0","0.612857700005407","0.596881700010272","0.63098980000359","1","1","1","1","1","1","1","1","1"
"250053","img/neutralC/CFD-WM-015-002-N.jpg","img/neutralC/CFD-WF-030-002-N.jpg","img/neutralC/CFD-WF-244-163-N.jpg","1","1","1","0","0","1","0.63098980000359","0.612857700005407","0.616129400004866","1","1","1","1","1","1","1","1","1"
"250053","img/neutralC/CFD-WF-244-163-N.jpg","img/neutralC/CFD-WM-015-002-N.jpg","img/neutralC/CFD-IM-664-651-N.jpg","1","1","1","1","0","1","0.616129400004866","0.63098980000359","0.508627800008981","1","1","1","1","1","1","1","1","1"
"250053","img/neutralC/CFD-IM-664-651-N.jpg","img/neutralC/CFD-WF-244-163-N.jpg","img/neutralC/CFD-MF-316-001-N.jpg","1","1","1","1","1","0","0.508627800008981","0.616129400004866","0.699279799999204","1","1","1","1","1","1","1","1","1"
"250053","img/neutralC/CFD-MF-316-001-N.jpg","img/neutralC/CFD-IM-664-651-N.jpg",NA,"1","1",NA,"0","1",NA,"0.699279799999204","0.508627800008981",NA,"1","1",NA,"1","1",NA,"1","1",NA
"250053","img/neutralC/CFD-BM-247-240-N.jpg",NA,"img/neutralC/CFD-BM-027-001-N.jpg","0",NA,"1","0",NA,"0","0.495606100012083",NA,"0.753901899995981","1",NA,"1","1",NA,"1","1",NA,"1"
"250053","img/neutralC/CFD-BM-027-001-N.jpg","img/neutralC/CFD-BM-247-240-N.jpg","img/neutralC/CFD-WM-225-127-N.jpg","1","0","0","0","0","0","0.753901899995981","0.495606100012083","1.2562070999993","1","1","1","1","1","1","1","1","1"
"250053","img/neutralC/CFD-WM-225-127-N.jpg","img/neutralC/CFD-BM-027-001-N.jpg","img/neutralC/CFD-IF-718-001-N.jpg","0","1","1","0","0","1","1.2562070999993","0.753901899995981","0.541472799988696","1","1","1","1","1","1","1","1","1"
"250053","img/neutralC/CFD-IF-718-001-N.jpg","img/neutralC/CFD-WM-225-127-N.jpg","img/neutralC/CFD-BM-029-024-N.jpg","1","0","1","1","0","1","0.541472799988696","1.2562070999993","0.45254319999367","1","1","1","1","1","1","1","1","1"
"250053","img/neutralC/CFD-BM-029-024-N.jpg","img/neutralC/CFD-IF-718-001-N.jpg","img/neutralC/CFD-BF-003-003-N.jpg","1","1","1","1","1","0","0.45254319999367","0.541472799988696","0.627698900003452","1","1","1","1","1","1","1","1","1"
"250053","img/neutralC/CFD-BF-003-003-N.jpg","img/neutralC/CFD-BM-029-024-N.jpg","img/neutralC/CFD-AM-235-241-N.jpg","1","1","1","0","1","0","0.627698900003452","0.45254319999367","0.631775700021535","1","1","1","1","1","1","1","1","1"
"250053","img/neutralC/CFD-AM-235-241-N.jpg","img/neutralC/CFD-BF-003-003-N.jpg","img/neutralC/CFD-BF-204-189-N.jpg","1","1","1","0","0","1","0.631775700021535","0.627698900003452","0.402834899985464","1","1","1","1","1","1","1","1","1"
"250053","img/neutralC/CFD-BF-204-189-N.jpg","img/neutralC/CFD-AM-235-241-N.jpg","img/neutralC/CFD-MM-319-052-N.jpg","1","1","1","1","0","1","0.402834899985464","0.631775700021535","0.567507200001273","1","1","1","1","1","1","1","1","1"
"250053","img/neutralC/CFD-MM-319-052-N.jpg","img/neutralC/CFD-BF-204-189-N.jpg","img/neutralC/CFD-LF-236-221-N.jpg","1","1","1","1","1","1","0.567507200001273","0.402834899985464","0.327879700023914","1","1","1","1","1","1","1","1","1"
"250053","img/neutralC/CFD-LF-236-221-N.jpg","img/neutralC/CFD-MM-319-052-N.jpg","img/neutralC/CFD-IM-639-263-N.jpg","1","1","1","1","1","1","0.327879700023914","0.567507200001273","0.462255599995842","1","1","1","1","1","1","1","1","1"
"250053","img/neutralC/CFD-IM-639-263-N.jpg","img/neutralC/CFD-LF-236-221-N.jpg","img/neutralC/CFD-LF-216-121-N.jpg","1","1","1","1","1","1","0.462255599995842","0.327879700023914","0.407804000016768","1","1","1","1","1","1","1","1","1"
"250053","img/neutralC/CFD-LF-216-121-N.jpg","img/neutralC/CFD-IM-639-263-N.jpg","img/neutralC/CFD-WM-257-161-N.jpg","1","1","1","1","1","1","0.407804000016768","0.462255599995842","0.449416899995413","1","1","1","1","1","1","1","1","1"
"250053","img/neutralC/CFD-WM-257-161-N.jpg","img/neutralC/CFD-LF-216-121-N.jpg","img/neutralC/CFD-WF-022-017-N.jpg","1","1","1","1","1","0","0.449416899995413","0.407804000016768","0.556674699997529","1","1","1","1","1","1","1","1","1"
"250053","img/neutralC/CFD-WF-022-017-N.jpg","img/neutralC/CFD-WM-257-161-N.jpg","img/neutralC/CFD-WF-002-004-N.jpg","1","1","1","0","1","0","0.556674699997529","0.449416899995413","0.575561900011962","1","1","1","1","1","1","1","1","1"
"250053","img/neutralC/CFD-WF-002-004-N.jpg","img/neutralC/CFD-WF-022-017-N.jpg","img/neutralC/CFD-WM-040-022-N.jpg","1","1","1","0","0","0","0.575561900011962","0.556674699997529","0.510923199995887","1","1","1","1","1","1","1","1","1"
"250053","img/neutralC/CFD-WM-040-022-N.jpg","img/neutralC/CFD-WF-002-004-N.jpg","img/neutralC/CFD-IM-674-281-N.jpg","1","1","1","0","0","1","0.510923199995887","0.575561900011962","0.500191700004507","1","1","1","1","1","1","1","1","1"
"250053","img/neutralC/CFD-IM-674-281-N.jpg","img/neutralC/CFD-WM-040-022-N.jpg","img/neutralC/CFD-BF-208-266-N.jpg","1","1","1","1","0","0","0.500191700004507","0.510923199995887","0.601409700000659","1","1","1","1","1","1","1","1","1"
"250053","img/neutralC/CFD-BF-208-266-N.jpg","img/neutralC/CFD-IM-674-281-N.jpg","img/neutralC/CFD-BF-255-140-N.jpg","1","1","1","0","1","1","0.601409700000659","0.500191700004507","0.512733499985188","1","1","1","1","1","1","1","1","1"
"250053","img/neutralC/CFD-BF-255-140-N.jpg","img/neutralC/CFD-BF-208-266-N.jpg","img/neutralC/CFD-IF-672-305-N.jpg","1","1","0","1","0","0","0.512733499985188","0.601409700000659","0.511627600004431","1","1","1","1","1","1","1","1","2"
"250053","img/neutralC/CFD-IF-672-305-N.jpg","img/neutralC/CFD-BF-255-140-N.jpg","img/neutralC/CFD-WF-026-002-N.jpg","0","1","1","0","1","1","0.511627600004431","0.512733499985188","0.481631700007711","1","1","1","1","1","1","2","1","1"
"250053","img/neutralC/CFD-WF-026-002-N.jpg","img/neutralC/CFD-IF-672-305-N.jpg","img/neutralC/CFD-BF-028-001-N.jpg","1","0","1","1","0","1","0.481631700007711","0.511627600004431","0.520503200008534","1","1","1","1","1","1","1","2","1"
"250053","img/neutralC/CFD-BF-028-001-N.jpg","img/neutralC/CFD-WF-026-002-N.jpg","img/neutralC/CFD-WM-038-003-N.jpg","1","1","1","1","1","0","0.520503200008534","0.481631700007711","0.667262900009518","1","1","1","1","1","1","1","1","1"
"250053","img/neutralC/CFD-WM-038-003-N.jpg","img/neutralC/CFD-BF-028-001-N.jpg","img/neutralC/CFD-BM-015-015-N.jpg","1","1","1","0","1","0","0.667262900009518","0.520503200008534","0.52125160000287","1","1","1","1","1","1","1","1","1"
"250053","img/neutralC/CFD-BM-015-015-N.jpg","img/neutralC/CFD-WM-038-003-N.jpg","img/neutralC/CFD-LM-252-076-N.jpg","1","1","1","0","0","1","0.52125160000287","0.667262900009518","0.488775100006023","1","1","1","1","1","1","1","1","1"
"250053","img/neutralC/CFD-LM-252-076-N.jpg","img/neutralC/CFD-BM-015-015-N.jpg","img/neutralC/CFD-BF-023-010-N.jpg","1","1","1","1","0","1","0.488775100006023","0.52125160000287","0.483665900013875","1","1","1","1","1","1","1","1","1"
"250053","img/neutralC/CFD-BF-023-010-N.jpg","img/neutralC/CFD-LM-252-076-N.jpg","img/neutralC/CFD-BF-201-080-N.jpg","1","1","1","1","1","1","0.483665900013875","0.488775100006023","0.472694299998693","1","1","1","1","1","1","1","1","1"
"250053","img/neutralC/CFD-BF-201-080-N.jpg","img/neutralC/CFD-BF-023-010-N.jpg","img/neutralC/CFD-AM-217-085-N.jpg","1","1","1","1","1","0","0.472694299998693","0.483665900013875","0.496913199982373","1","1","1","1","1","1","1","1","1"
"250053","img/neutralC/CFD-AM-217-085-N.jpg","img/neutralC/CFD-BF-201-080-N.jpg","img/neutralC/CFD-WM-002-009-N.jpg","1","1","1","0","1","0","0.496913199982373","0.472694299998693","0.503425799979595","1","1","1","1","1","1","1","1","1"
"250053","img/neutralC/CFD-WM-002-009-N.jpg","img/neutralC/CFD-AM-217-085-N.jpg","img/neutralC/CFD-BM-211-174-N.jpg","1","1","1","0","0","0","0.503425799979595","0.496913199982373","0.499421500018798","1","1","1","1","1","1","1","1","1"
"250053","img/neutralC/CFD-BM-211-174-N.jpg","img/neutralC/CFD-WM-002-009-N.jpg","img/neutralC/CFD-IM-728-041-N.jpg","1","1","1","0","0","0","0.499421500018798","0.503425799979595","0.569754099997226","1","1","1","1","1","1","1","1","1"
"250053","img/neutralC/CFD-IM-728-041-N.jpg","img/neutralC/CFD-BM-211-174-N.jpg","img/neutralC/CFD-AM-215-120-N.jpg","1","1","1","0","0","1","0.569754099997226","0.499421500018798","0.360841499990784","1","1","1","1","1","1","1","1","1"
"250053","img/neutralC/CFD-AM-215-120-N.jpg","img/neutralC/CFD-IM-728-041-N.jpg",NA,"1","1",NA,"1","0",NA,"0.360841499990784","0.569754099997226",NA,"1","1",NA,"1","1",NA,"1","1",NA
"250053","img/neutralC/CFD-BF-027-002-N.jpg",NA,"img/neutralC/CFD-BM-207-024-N.jpg","1",NA,"1","1",NA,"1","0.590249700006098",NA,"0.439831600000616","1",NA,"1","1",NA,"1","1",NA,"1"
"250053","img/neutralC/CFD-BM-207-024-N.jpg","img/neutralC/CFD-BF-027-002-N.jpg","img/neutralC/CFD-WF-208-068-N.jpg","1","1","1","1","1","1","0.439831600000616","0.590249700006098","0.517965699982597","1","1","1","1","1","1","1","1","1"
"250053","img/neutralC/CFD-WF-208-068-N.jpg","img/neutralC/CFD-BM-207-024-N.jpg","img/neutralC/CFD-BF-011-002-N.jpg","1","1","1","1","1","1","0.517965699982597","0.439831600000616","0.504022000008263","1","1","1","1","1","1","1","1","1"
"250053","img/neutralC/CFD-BF-011-002-N.jpg","img/neutralC/CFD-WF-208-068-N.jpg","img/neutralC/CFD-BM-036-003-N.jpg","1","1","1","1","1","1","0.504022000008263","0.517965699982597","0.504867600015132","1","1","1","1","1","1","1","1","1"
"250053","img/neutralC/CFD-BM-036-003-N.jpg","img/neutralC/CFD-BF-011-002-N.jpg","img/neutralC/CFD-WF-234-086-N.jpg","1","1","1","1","1","1","0.504867600015132","0.504022000008263","0.460385699989274","1","1","1","1","1","1","1","1","1"
"250053","img/neutralC/CFD-WF-234-086-N.jpg","img/neutralC/CFD-BM-036-003-N.jpg","img/neutralC/CFD-BF-236-177-N.jpg","1","1","0","1","1","0","0.460385699989274","0.504867600015132","0.431567699997686","1","1","1","1","1","1","1","1","1"
"250053","img/neutralC/CFD-BF-236-177-N.jpg","img/neutralC/CFD-WF-234-086-N.jpg","img/neutralC/CFD-IF-677-452-1-N.jpg","0","1","1","0","1","1","0.431567699997686","0.460385699989274","0.473245399974985","1","1","1","1","1","1","1","1","1"
"250053","img/neutralC/CFD-IF-677-452-1-N.jpg","img/neutralC/CFD-BF-236-177-N.jpg","img/neutralC/CFD-IM-721-341-N.jpg","1","0","1","1","0","1","0.473245399974985","0.431567699997686","0.494972200016491","1","1","1","1","1","1","1","1","1"
"250053","img/neutralC/CFD-IM-721-341-N.jpg","img/neutralC/CFD-IF-677-452-1-N.jpg","img/neutralC/CFD-BF-247-179-N.jpg","1","1","1","1","1","0","0.494972200016491","0.473245399974985","0.559430699999211","1","1","1","1","1","1","1","1","1"
"250053","img/neutralC/CFD-BF-247-179-N.jpg","img/neutralC/CFD-IM-721-341-N.jpg","img/neutralC/CFD-BF-207-004-N.jpg","1","1","1","0","1","1","0.559430699999211","0.494972200016491","0.607297500013374","1","1","1","1","1","1","1","1","1"
"250053","img/neutralC/CFD-BF-207-004-N.jpg","img/neutralC/CFD-BF-247-179-N.jpg","img/neutralC/CFD-WF-233-112-N.jpg","1","1","1","1","0","1","0.607297500013374","0.559430699999211","0.539343999989796","1","1","1","1","1","1","1","1","1"
"250053","img/neutralC/CFD-WF-233-112-N.jpg","img/neutralC/CFD-BF-207-004-N.jpg","img/neutralC/CFD-BM-241-235-N.jpg","1","1","1","1","1","0","0.539343999989796","0.607297500013374","0.68899500000407","1","1","1","1","1","1","1","1","1"
"250053","img/neutralC/CFD-BM-241-235-N.jpg","img/neutralC/CFD-WF-233-112-N.jpg","img/neutralC/CFD-BM-238-242-N.jpg","1","1","1","0","1","0","0.68899500000407","0.539343999989796","0.674751300015487","1","1","1","1","1","1","1","1","1"
"250053","img/neutralC/CFD-BM-238-242-N.jpg","img/neutralC/CFD-BM-241-235-N.jpg","img/neutralC/CFD-IF-742-103-N.jpg","1","1","1","0","0","1","0.674751300015487","0.68899500000407","0.512829099985538","1","1","1","1","1","1","1","1","1"
"250053","img/neutralC/CFD-IF-742-103-N.jpg","img/neutralC/CFD-BM-238-242-N.jpg","img/neutralC/CFD-BF-002-001-N.jpg","1","1","0","1","0","0","0.512829099985538","0.674751300015487","0.519618999998784","1","1","1","1","1","1","1","1","1"
"250053","img/neutralC/CFD-BF-002-001-N.jpg","img/neutralC/CFD-IF-742-103-N.jpg","img/neutralC/CFD-IF-729-393-N.jpg","0","1","1","0","1","0","0.519618999998784","0.512829099985538","0.553090100002009","1","1","1","1","1","1","1","1","1"
"250053","img/neutralC/CFD-IF-729-393-N.jpg","img/neutralC/CFD-BF-002-001-N.jpg","img/neutralC/CFD-WM-248-036-N.jpg","1","0","1","0","0","1","0.553090100002009","0.519618999998784","0.612273400009144","1","1","1","1","1","1","1","1","1"
"250053","img/neutralC/CFD-WM-248-036-N.jpg","img/neutralC/CFD-IF-729-393-N.jpg","img/neutralC/CFD-WM-034-030-N.jpg","1","1","1","1","0","1","0.612273400009144","0.553090100002009","0.522186500020325","1","1","1","1","1","1","1","1","1"
"250053","img/neutralC/CFD-WM-034-030-N.jpg","img/neutralC/CFD-WM-248-036-N.jpg","img/neutralC/CFD-BF-214-308-N.jpg","1","1","1","1","1","1","0.522186500020325","0.612273400009144","0.554923399991821","1","1","1","1","1","1","1","1","1"
"250053","img/neutralC/CFD-BF-214-308-N.jpg","img/neutralC/CFD-WM-034-030-N.jpg","img/neutralC/CFD-IM-726-248-N.jpg","1","1","1","1","1","0","0.554923399991821","0.522186500020325","0.743874299980234","1","1","1","1","1","1","1","1","1"
"250053","img/neutralC/CFD-IM-726-248-N.jpg","img/neutralC/CFD-BF-214-308-N.jpg","img/neutralC/CFD-IM-707-105-N.jpg","1","1","1","0","1","1","0.743874299980234","0.554923399991821","0.577283899998292","1","1","1","1","1","1","1","1","1"
"250053","img/neutralC/CFD-IM-707-105-N.jpg","img/neutralC/CFD-IM-726-248-N.jpg","img/neutralC/CFD-WM-014-002-N.jpg","1","1","1","1","0","0","0.577283899998292","0.743874299980234","0.537445399997523","1","1","1","1","1","1","1","1","1"
"250053","img/neutralC/CFD-WM-014-002-N.jpg","img/neutralC/CFD-IM-707-105-N.jpg","img/neutralC/CFD-MF-301-024-N.jpg","1","1","1","0","1","0","0.537445399997523","0.577283899998292","0.647774600016419","1","1","1","1","1","1","1","1","1"
"250053","img/neutralC/CFD-MF-301-024-N.jpg","img/neutralC/CFD-WM-014-002-N.jpg","img/neutralC/CFD-BF-036-027-N.jpg","1","1","1","0","0","0","0.647774600016419","0.537445399997523","0.601771199988434","1","1","1","1","1","1","1","1","1"
"250053","img/neutralC/CFD-BF-036-027-N.jpg","img/neutralC/CFD-MF-301-024-N.jpg","img/neutralC/CFD-LF-204-133-N.jpg","1","1","1","0","0","1","0.601771199988434","0.647774600016419","0.539434900012566","1","1","1","1","1","1","1","1","1"
"250053","img/neutralC/CFD-LF-204-133-N.jpg","img/neutralC/CFD-BF-036-027-N.jpg","img/neutralC/CFD-LM-213-061-N.jpg","1","1","1","1","0","0","0.539434900012566","0.601771199988434","0.646410599991214","1","1","1","1","1","1","1","1","1"
"250053","img/neutralC/CFD-LM-213-061-N.jpg","img/neutralC/CFD-LF-204-133-N.jpg","img/neutralC/CFD-AM-230-150-N.jpg","1","1","1","0","1","0","0.646410599991214","0.539434900012566","0.467682999995304","1","1","1","1","1","1","1","1","1"
"250053","img/neutralC/CFD-AM-230-150-N.jpg","img/neutralC/CFD-LM-213-061-N.jpg","img/neutralC/CFD-IM-696-001-N.jpg","1","1","1","0","0","0","0.467682999995304","0.646410599991214","0.557147099985741","1","1","1","1","1","1","1","1","1"
"250053","img/neutralC/CFD-IM-696-001-N.jpg","img/neutralC/CFD-AM-230-150-N.jpg","img/neutralC/CFD-BF-044-034-N.jpg","1","1","1","0","0","0","0.557147099985741","0.467682999995304","0.480617799999891","1","1","1","1","1","1","1","1","1"
"250053","img/neutralC/CFD-BF-044-034-N.jpg","img/neutralC/CFD-IM-696-001-N.jpg","img/neutralC/CFD-WF-029-002-N.jpg","1","1","1","0","0","0","0.480617799999891","0.557147099985741","0.524736599996686","1","1","1","1","1","1","1","1","1"
"250053","img/neutralC/CFD-WF-029-002-N.jpg","img/neutralC/CFD-BF-044-034-N.jpg","img/neutralC/CFD-BF-006-017-N.jpg","1","1","1","0","0","0","0.524736599996686","0.480617799999891","0.474474899994675","1","1","1","1","1","1","1","1","1"
"250053","img/neutralC/CFD-BF-006-017-N.jpg","img/neutralC/CFD-WF-029-002-N.jpg",NA,"1","1",NA,"0","0",NA,"0.474474899994675","0.524736599996686",NA,"1","1",NA,"1","1",NA,"1","1",NA
"250053","img/neutralC/CFD-BF-041-001-N.jpg",NA,"img/neutralC/CFD-BM-205-001-N.jpg","1",NA,"1","1",NA,"0","0.526663500000723",NA,"0.579051599983359","1",NA,"1","1",NA,"1","1",NA,"1"
"250053","img/neutralC/CFD-BM-205-001-N.jpg","img/neutralC/CFD-BF-041-001-N.jpg","img/neutralC/CFD-AM-247-165-N.jpg","1","1","1","0","1","1","0.579051599983359","0.526663500000723","0.354065299994545","1","1","1","1","1","1","1","1","1"
"250053","img/neutralC/CFD-AM-247-165-N.jpg","img/neutralC/CFD-BM-205-001-N.jpg","img/neutralC/CFD-BF-212-315-N.jpg","1","1","1","1","0","1","0.354065299994545","0.579051599983359","0.552469899994321","1","1","1","1","1","1","1","1","1"
"250053","img/neutralC/CFD-BF-212-315-N.jpg","img/neutralC/CFD-AM-247-165-N.jpg","img/neutralC/CFD-WM-215-041-N.jpg","1","1","1","1","1","0","0.552469899994321","0.354065299994545","0.513972300017485","1","1","1","1","1","1","1","1","1"
"250053","img/neutralC/CFD-WM-215-041-N.jpg","img/neutralC/CFD-BF-212-315-N.jpg","img/neutralC/CFD-BM-248-128-N.jpg","1","1","0","0","1","0","0.513972300017485","0.552469899994321","0.484791900002165","1","1","1","1","1","1","1","1","1"
"250053","img/neutralC/CFD-BM-248-128-N.jpg","img/neutralC/CFD-WM-215-041-N.jpg","img/neutralC/CFD-IF-642-295-N.jpg","0","1","1","0","0","1","0.484791900002165","0.513972300017485","0.355989700008649","1","1","1","1","1","1","1","1","1"
"250053","img/neutralC/CFD-IF-642-295-N.jpg","img/neutralC/CFD-BM-248-128-N.jpg","img/neutralC/CFD-IM-646-023-N.jpg","1","0","1","1","0","1","0.355989700008649","0.484791900002165","0.464580200001365","1","1","1","1","1","1","1","1","1"
"250053","img/neutralC/CFD-IM-646-023-N.jpg","img/neutralC/CFD-IF-642-295-N.jpg","img/neutralC/CFD-LM-216-082-N.jpg","1","1","1","1","1","0","0.464580200001365","0.355989700008649","0.491035100014415","1","1","1","1","1","1","1","1","1"
"250053","img/neutralC/CFD-LM-216-082-N.jpg","img/neutralC/CFD-IM-646-023-N.jpg","img/neutralC/CFD-WM-006-002-N.jpg","1","1","1","0","1","0","0.491035100014415","0.464580200001365","0.520543899998302","1","1","1","1","1","1","1","1","1"
"250053","img/neutralC/CFD-WM-006-002-N.jpg","img/neutralC/CFD-LM-216-082-N.jpg","img/neutralC/CFD-BM-251-013-N.jpg","1","1","1","0","0","1","0.520543899998302","0.491035100014415","0.421165900013875","1","1","1","1","1","1","1","1","1"
"250053","img/neutralC/CFD-BM-251-013-N.jpg","img/neutralC/CFD-WM-006-002-N.jpg","img/neutralC/CFD-WM-212-097-N.jpg","1","1","1","1","0","0","0.421165900013875","0.520543899998302","0.478211899986491","1","1","1","1","1","1","1","1","1"
"250053","img/neutralC/CFD-WM-212-097-N.jpg","img/neutralC/CFD-BM-251-013-N.jpg","img/neutralC/CFD-MF-335-002-N.jpg","1","1","1","0","1","0","0.478211899986491","0.421165900013875","0.45573279997916","1","1","1","1","1","1","1","1","1"
"250053","img/neutralC/CFD-MF-335-002-N.jpg","img/neutralC/CFD-WM-212-097-N.jpg","img/neutralC/CFD-MF-309-002-N.jpg","1","1","1","0","0","0","0.45573279997916","0.478211899986491","0.383885499992175","1","1","1","1","1","1","1","1","1"
"250053","img/neutralC/CFD-MF-309-002-N.jpg","img/neutralC/CFD-MF-335-002-N.jpg","img/neutralC/CFD-LM-201-057-N.jpg","1","1","1","0","0","1","0.383885499992175","0.45573279997916","0.496248300012667","1","1","1","1","1","1","1","1","1"
"250053","img/neutralC/CFD-LM-201-057-N.jpg","img/neutralC/CFD-MF-309-002-N.jpg","img/neutralC/CFD-AF-240-206-N.jpg","1","1","1","1","0","0","0.496248300012667","0.383885499992175","0.356860600004438","1","1","1","1","1","1","1","1","1"
"250053","img/neutralC/CFD-AF-240-206-N.jpg","img/neutralC/CFD-LM-201-057-N.jpg","img/neutralC/CFD-BF-202-109-N.jpg","1","1","1","0","1","1","0.356860600004438","0.496248300012667","0.408542000019224","1","1","1","1","1","1","1","1","1"
"250053","img/neutralC/CFD-BF-202-109-N.jpg","img/neutralC/CFD-AF-240-206-N.jpg","img/neutralC/CFD-MM-317-061-N.jpg","1","1","1","1","0","1","0.408542000019224","0.356860600004438","0.511262899992289","1","1","1","1","1","1","1","1","1"
"250053","img/neutralC/CFD-MM-317-061-N.jpg","img/neutralC/CFD-BF-202-109-N.jpg","img/neutralC/CFD-WF-017-003-N.jpg","1","1","1","1","1","1","0.511262899992289","0.408542000019224","0.603179600002477","1","1","1","1","1","1","1","1","1"
"250053","img/neutralC/CFD-WF-017-003-N.jpg","img/neutralC/CFD-MM-317-061-N.jpg","img/neutralC/CFD-IM-648-337-N.jpg","1","1","1","1","1","0","0.603179600002477","0.511262899992289","0.690385699999752","1","1","1","1","1","1","1","1","1"
"250053","img/neutralC/CFD-IM-648-337-N.jpg","img/neutralC/CFD-WF-017-003-N.jpg","img/neutralC/CFD-WM-249-239-N.jpg","1","1","1","0","1","1","0.690385699999752","0.603179600002477","0.477117500005988","1","1","1","1","1","1","1","1","1"
"250053","img/neutralC/CFD-WM-249-239-N.jpg","img/neutralC/CFD-IM-648-337-N.jpg","img/neutralC/CFD-LM-244-068-N.jpg","1","1","1","1","0","1","0.477117500005988","0.690385699999752","0.398045399982948","1","1","1","1","1","1","1","1","1"
"250053","img/neutralC/CFD-LM-244-068-N.jpg","img/neutralC/CFD-WM-249-239-N.jpg","img/neutralC/CFD-WF-005-010-N.jpg","1","1","1","1","1","0","0.398045399982948","0.477117500005988","0.645333099993877","1","1","1","1","1","1","1","1","1"
"250053","img/neutralC/CFD-WF-005-010-N.jpg","img/neutralC/CFD-LM-244-068-N.jpg","img/neutralC/CFD-WM-019-003-N.jpg","1","1","1","0","1","1","0.645333099993877","0.398045399982948","0.500517299980856","1","1","1","1","1","1","1","1","1"
"250053","img/neutralC/CFD-WM-019-003-N.jpg","img/neutralC/CFD-WF-005-010-N.jpg","img/neutralC/CFD-LM-214-165-N.jpg","1","1","1","1","0","1","0.500517299980856","0.645333099993877","0.430478200025391","1","1","1","1","1","1","1","1","1"
"250053","img/neutralC/CFD-LM-214-165-N.jpg","img/neutralC/CFD-WM-019-003-N.jpg","img/neutralC/CFD-BF-228-212-N.jpg","1","1","0","1","1","0","0.430478200025391","0.500517299980856","0.510589099983918","1","1","1","1","1","1","1","1","1"
"250053","img/neutralC/CFD-BF-228-212-N.jpg","img/neutralC/CFD-LM-214-165-N.jpg","img/neutralC/CFD-WM-012-001-N.jpg","0","1","1","0","1","1","0.510589099983918","0.430478200025391","0.490373400010867","1","1","1","1","1","1","1","1","1"
"250053","img/neutralC/CFD-WM-012-001-N.jpg","img/neutralC/CFD-BF-228-212-N.jpg","img/neutralC/CFD-WM-026-001-N.jpg","1","0","1","1","0","1","0.490373400010867","0.510589099983918","0.476453599985689","1","1","1","1","1","1","1","1","1"
"250053","img/neutralC/CFD-WM-026-001-N.jpg","img/neutralC/CFD-WM-012-001-N.jpg","img/neutralC/CFD-BF-025-002-N.jpg","1","1","1","1","1","0","0.476453599985689","0.490373400010867","0.477909599983832","1","1","1","1","1","1","1","1","1"
"250053","img/neutralC/CFD-BF-025-002-N.jpg","img/neutralC/CFD-WM-026-001-N.jpg","img/neutralC/CFD-WF-228-196-N.jpg","1","1","1","0","1","0","0.477909599983832","0.476453599985689","0.71048099998734","1","1","1","1","1","1","1","1","1"
"250053","img/neutralC/CFD-WF-228-196-N.jpg","img/neutralC/CFD-BF-025-002-N.jpg","img/neutralC/CFD-LM-243-075-N.jpg","1","1","1","0","0","0","0.71048099998734","0.477909599983832","0.544164799997816","1","1","1","1","1","1","1","1","1"
"250053","img/neutralC/CFD-LM-243-075-N.jpg","img/neutralC/CFD-WF-228-196-N.jpg","img/neutralC/CFD-WF-240-083-N.jpg","1","1","1","0","0","0","0.544164799997816","0.71048099998734","0.65883090000716","1","1","1","1","1","1","1","1","1"
"250053","img/neutralC/CFD-WF-240-083-N.jpg","img/neutralC/CFD-LM-243-075-N.jpg",NA,"1","1",NA,"0","0",NA,"0.65883090000716","0.544164799997816",NA,"1","1",NA,"1","1",NA,"1","1",NA
"250053","img/neutralC/CFD-MF-337-026-N.jpg",NA,"img/neutralC/CFD-LM-215-247-N.jpg","1",NA,"1","1",NA,"0","0.696070299978601",NA,"0.669106899993494","1",NA,"1","1",NA,"1","1",NA,"1"
"250053","img/neutralC/CFD-LM-215-247-N.jpg","img/neutralC/CFD-MF-337-026-N.jpg","img/neutralC/CFD-WM-011-002-N.jpg","1","1","1","0","1","0","0.669106899993494","0.696070299978601","0.573711999983061","1","1","1","1","1","1","1","1","1"
"250053","img/neutralC/CFD-WM-011-002-N.jpg","img/neutralC/CFD-LM-215-247-N.jpg","img/neutralC/CFD-IF-693-172-N.jpg","1","1","1","0","0","0","0.573711999983061","0.669106899993494","0.723156399995787","1","1","1","1","1","1","1","1","1"
"250053","img/neutralC/CFD-IF-693-172-N.jpg","img/neutralC/CFD-WM-011-002-N.jpg","img/neutralC/CFD-BM-239-136-N.jpg","1","1","1","0","0","1","0.723156399995787","0.573711999983061","0.492053099995246","1","1","1","1","1","1","1","1","1"
"250053","img/neutralC/CFD-BM-239-136-N.jpg","img/neutralC/CFD-IF-693-172-N.jpg","img/neutralC/CFD-BM-041-035-N.jpg","1","1","1","1","0","0","0.492053099995246","0.723156399995787","0.566584399988642","1","1","1","1","1","1","1","1","1"
"250053","img/neutralC/CFD-BM-041-035-N.jpg","img/neutralC/CFD-BM-239-136-N.jpg","img/neutralC/CFD-BF-205-141-N.jpg","1","1","1","0","1","0","0.566584399988642","0.492053099995246","0.528132799983723","1","1","1","1","1","1","1","1","1"
"250053","img/neutralC/CFD-BF-205-141-N.jpg","img/neutralC/CFD-BM-041-035-N.jpg","img/neutralC/CFD-AF-231-357-N.jpg","1","1","1","0","0","1","0.528132799983723","0.566584399988642","0.524938399990788","1","1","1","1","1","1","1","1","1"
"250053","img/neutralC/CFD-AF-231-357-N.jpg","img/neutralC/CFD-BF-205-141-N.jpg","img/neutralC/CFD-WM-021-001-N.jpg","1","1","1","1","0","1","0.524938399990788","0.528132799983723","0.411540500004776","1","1","1","1","1","1","1","1","1"
"250053","img/neutralC/CFD-WM-021-001-N.jpg","img/neutralC/CFD-AF-231-357-N.jpg","img/neutralC/CFD-LF-205-100-N.jpg","1","1","1","1","1","1","0.411540500004776","0.524938399990788","0.528948699997272","1","1","1","1","1","1","1","1","1"
"250053","img/neutralC/CFD-LF-205-100-N.jpg","img/neutralC/CFD-WM-021-001-N.jpg","img/neutralC/CFD-LF-230-203-N.jpg","1","1","1","1","1","0","0.528948699997272","0.411540500004776","0.58175090001896","1","1","1","1","1","1","1","1","1"
"250053","img/neutralC/CFD-LF-230-203-N.jpg","img/neutralC/CFD-LF-205-100-N.jpg","img/neutralC/CFD-IF-634-382-N.jpg","1","1","1","0","1","1","0.58175090001896","0.528948699997272","0.710506700008409","1","1","1","1","1","1","1","1","1"
"250053","img/neutralC/CFD-IF-634-382-N.jpg","img/neutralC/CFD-LF-230-203-N.jpg","img/neutralC/CFD-BF-029-031-N.jpg","1","1","1","1","0","1","0.710506700008409","0.58175090001896","0.529269799997564","1","1","1","1","1","1","1","1","1"
"250053","img/neutralC/CFD-BF-029-031-N.jpg","img/neutralC/CFD-IF-634-382-N.jpg","img/neutralC/CFD-LF-224-176-N.jpg","1","1","1","1","1","0","0.529269799997564","0.710506700008409","0.671565299999202","1","1","1","1","1","1","1","1","1"
"250053","img/neutralC/CFD-LF-224-176-N.jpg","img/neutralC/CFD-BF-029-031-N.jpg","img/neutralC/CFD-LM-218-183-N.jpg","1","1","1","0","1","1","0.671565299999202","0.529269799997564","0.532497100008186","1","1","1","1","1","1","1","1","1"
"250053","img/neutralC/CFD-LM-218-183-N.jpg","img/neutralC/CFD-LF-224-176-N.jpg","img/neutralC/CFD-WM-041-021-N.jpg","1","1","1","1","0","0","0.532497100008186","0.671565299999202","0.558825899992371","1","1","1","1","1","1","1","1","1"
"250053","img/neutralC/CFD-WM-041-021-N.jpg","img/neutralC/CFD-LM-218-183-N.jpg","img/neutralC/CFD-IM-684-008-N.jpg","1","1","1","0","1","1","0.558825899992371","0.532497100008186","0.511186399991857","1","1","1","1","1","1","1","1","1"
"250053","img/neutralC/CFD-IM-684-008-N.jpg","img/neutralC/CFD-WM-041-021-N.jpg","img/neutralC/CFD-BM-019-002-N.jpg","1","1","1","1","0","0","0.511186399991857","0.558825899992371","0.514472800015938","1","1","1","1","1","1","1","1","1"
"250053","img/neutralC/CFD-BM-019-002-N.jpg","img/neutralC/CFD-IM-684-008-N.jpg","img/neutralC/CFD-BM-033-003-N.jpg","1","1","1","0","1","0","0.514472800015938","0.511186399991857","0.535872899985407","1","1","1","1","1","1","1","1","1"
"250053","img/neutralC/CFD-BM-033-003-N.jpg","img/neutralC/CFD-BM-019-002-N.jpg","img/neutralC/CFD-BF-039-031-N.jpg","1","1","1","0","0","1","0.535872899985407","0.514472800015938","0.488622300006682","1","1","1","1","1","1","1","1","1"
"250053","img/neutralC/CFD-BF-039-031-N.jpg","img/neutralC/CFD-BM-033-003-N.jpg","img/neutralC/CFD-LF-203-066-N.jpg","1","1","1","1","0","0","0.488622300006682","0.535872899985407","0.535390200006077","1","1","1","1","1","1","1","1","1"
"250053","img/neutralC/CFD-LF-203-066-N.jpg","img/neutralC/CFD-BF-039-031-N.jpg","img/neutralC/CFD-WF-250-167-N.jpg","1","1","1","0","1","1","0.535390200006077","0.488622300006682","0.492548899987014","1","1","1","1","1","1","1","1","1"
"250053","img/neutralC/CFD-WF-250-167-N.jpg","img/neutralC/CFD-LF-203-066-N.jpg","img/neutralC/CFD-BF-213-188-N.jpg","1","1","1","1","0","1","0.492548899987014","0.535390200006077","0.47430400000303","1","1","1","1","1","1","1","1","1"
"250053","img/neutralC/CFD-BF-213-188-N.jpg","img/neutralC/CFD-WF-250-167-N.jpg","img/neutralC/CFD-WF-224-099-N.jpg","1","1","1","1","1","0","0.47430400000303","0.492548899987014","0.566749399993569","1","1","1","1","1","1","1","1","1"
"250053","img/neutralC/CFD-WF-224-099-N.jpg","img/neutralC/CFD-BF-213-188-N.jpg","img/neutralC/CFD-MM-316-156-N.jpg","1","1","0","0","1","1","0.566749399993569","0.47430400000303","0.514966900023865","1","1","1","1","1","1","1","1","1"
"250053","img/neutralC/CFD-MM-316-156-N.jpg","img/neutralC/CFD-WF-224-099-N.jpg","img/neutralC/CFD-IF-710-016-N.jpg","0","1","0","1","0","0","0.514966900023865","0.566749399993569","0.697687299980316","1","1","1","1","1","1","1","1","1"
"250053","img/neutralC/CFD-IF-710-016-N.jpg","img/neutralC/CFD-MM-316-156-N.jpg","img/neutralC/CFD-IM-651-308-N.jpg","0","0","1","0","1","0","0.697687299980316","0.514966900023865","0.554678799991962","1","1","1","1","1","1","1","1","1"
"250053","img/neutralC/CFD-IM-651-308-N.jpg","img/neutralC/CFD-IF-710-016-N.jpg","img/neutralC/CFD-AM-212-050-N.jpg","1","0","1","0","0","1","0.554678799991962","0.697687299980316","0.419137999997474","1","1","1","1","1","1","1","1","1"
"250053","img/neutralC/CFD-AM-212-050-N.jpg","img/neutralC/CFD-IM-651-308-N.jpg","img/neutralC/CFD-WF-213-031-N.jpg","1","1","1","1","0","1","0.419137999997474","0.554678799991962","0.453692599985516","1","1","1","1","1","1","1","1","1"
"250053","img/neutralC/CFD-WF-213-031-N.jpg","img/neutralC/CFD-AM-212-050-N.jpg","img/neutralC/CFD-AM-201-076-N.jpg","1","1","1","1","1","1","0.453692599985516","0.419137999997474","0.428403300000355","1","1","1","1","1","1","1","1","1"
"250053","img/neutralC/CFD-AM-201-076-N.jpg","img/neutralC/CFD-WF-213-031-N.jpg","img/neutralC/CFD-BF-253-202-N.jpg","1","1","1","1","1","0","0.428403300000355","0.453692599985516","0.691028800007189","1","1","1","1","1","1","1","1","1"
"250053","img/neutralC/CFD-BF-253-202-N.jpg","img/neutralC/CFD-AM-201-076-N.jpg","img/neutralC/CFD-LF-214-090-N.jpg","1","1","1","0","1","0","0.691028800007189","0.428403300000355","0.635818500013556","1","1","1","1","1","1","1","1","1"
"250053","img/neutralC/CFD-LF-214-090-N.jpg","img/neutralC/CFD-BF-253-202-N.jpg",NA,"1","1",NA,"0","0",NA,"0.635818500013556","0.691028800007189",NA,"1","1",NA,"1","1",NA,"1","1",NA
"250053","img/neutralC/CFD-WM-020-001-N.jpg",NA,"img/neutralC/CFD-WF-200-099-N.jpg","1",NA,"0","1",NA,"0","0.45014779997291",NA,"0.458637000003364","1",NA,"1","1",NA,"1","1",NA,"2"
"250053","img/neutralC/CFD-WF-200-099-N.jpg","img/neutralC/CFD-WM-020-001-N.jpg","img/neutralC/CFD-BM-225-154-N.jpg","0","1","1","0","1","1","0.458637000003364","0.45014779997291","0.566988099977607","1","1","1","1","1","1","2","1","1"
"250053","img/neutralC/CFD-BM-225-154-N.jpg","img/neutralC/CFD-WF-200-099-N.jpg","img/neutralC/CFD-MF-352-054-N.jpg","1","0","1","1","0","0","0.566988099977607","0.458637000003364","0.560547599976417","1","1","1","1","1","1","1","2","1"
"250053","img/neutralC/CFD-MF-352-054-N.jpg","img/neutralC/CFD-BM-225-154-N.jpg","img/neutralC/CFD-BF-226-119-N.jpg","1","1","1","0","1","1","0.560547599976417","0.566988099977607","0.422016500000609","1","1","1","1","1","1","1","1","1"
"250053","img/neutralC/CFD-BF-226-119-N.jpg","img/neutralC/CFD-MF-352-054-N.jpg","img/neutralC/CFD-IM-703-182-N.jpg","1","1","1","1","0","1","0.422016500000609","0.560547599976417","0.431040099996608","1","1","1","1","1","1","1","1","1"
"250053","img/neutralC/CFD-IM-703-182-N.jpg","img/neutralC/CFD-BF-226-119-N.jpg","img/neutralC/CFD-LM-228-188-N.jpg","1","1","1","1","1","1","0.431040099996608","0.422016500000609","0.414802799990866","1","1","1","1","1","1","1","1","1"
"250053","img/neutralC/CFD-LM-228-188-N.jpg","img/neutralC/CFD-IM-703-182-N.jpg","img/neutralC/CFD-AM-211-052-N.jpg","1","1","1","1","1","1","0.414802799990866","0.431040099996608","0.466045700013638","1","1","1","1","1","1","1","1","1"
"250053","img/neutralC/CFD-AM-211-052-N.jpg","img/neutralC/CFD-LM-228-188-N.jpg","img/neutralC/CFD-LF-220-120-N.jpg","1","1","1","1","1","1","0.466045700013638","0.414802799990866","0.461093299993081","1","1","1","1","1","1","1","1","1"
"250053","img/neutralC/CFD-LF-220-120-N.jpg","img/neutralC/CFD-AM-211-052-N.jpg","img/neutralC/CFD-MF-333-012-N.jpg","1","1","1","1","1","0","0.461093299993081","0.466045700013638","0.503520199999912","1","1","1","1","1","1","1","1","1"
"250053","img/neutralC/CFD-MF-333-012-N.jpg","img/neutralC/CFD-LF-220-120-N.jpg","img/neutralC/CFD-LM-237-264-N.jpg","1","1","1","0","1","0","0.503520199999912","0.461093299993081","0.569169600028545","1","1","1","1","1","1","1","1","1"
"250053","img/neutralC/CFD-LM-237-264-N.jpg","img/neutralC/CFD-MF-333-012-N.jpg","img/neutralC/CFD-BF-232-187-N.jpg","1","1","1","0","0","1","0.569169600028545","0.503520199999912","0.461377400002675","1","1","1","1","1","1","1","1","1"
"250053","img/neutralC/CFD-BF-232-187-N.jpg","img/neutralC/CFD-LM-237-264-N.jpg","img/neutralC/CFD-WF-001-003-N.jpg","1","1","1","1","0","1","0.461377400002675","0.569169600028545","0.54407109998283","1","1","1","1","1","1","1","1","1"
"250053","img/neutralC/CFD-WF-001-003-N.jpg","img/neutralC/CFD-BF-232-187-N.jpg","img/neutralC/CFD-LF-218-072-N.jpg","1","1","1","1","1","0","0.54407109998283","0.461377400002675","0.643001400021603","1","1","1","1","1","1","1","1","1"
"250053","img/neutralC/CFD-LF-218-072-N.jpg","img/neutralC/CFD-WF-001-003-N.jpg","img/neutralC/CFD-BF-038-037-N.jpg","1","1","1","0","1","1","0.643001400021603","0.54407109998283","0.490043199999491","1","1","1","1","1","1","1","1","1"
"250053","img/neutralC/CFD-BF-038-037-N.jpg","img/neutralC/CFD-LF-218-072-N.jpg","img/neutralC/CFD-AM-251-124-N.jpg","1","1","1","1","0","0","0.490043199999491","0.643001400021603","0.547416300018085","1","1","1","1","1","1","1","1","1"
"250053","img/neutralC/CFD-AM-251-124-N.jpg","img/neutralC/CFD-BF-038-037-N.jpg","img/neutralC/CFD-BF-229-179-N.jpg","1","1","1","0","1","0","0.547416300018085","0.490043199999491","0.838830099994084","1","1","1","1","1","1","1","1","1"
"250053","img/neutralC/CFD-BF-229-179-N.jpg","img/neutralC/CFD-AM-251-124-N.jpg","img/neutralC/CFD-IM-671-601-N.jpg","1","1","1","0","0","0","0.838830099994084","0.547416300018085","0.912765699991724","1","1","1","1","1","1","1","1","1"
"250053","img/neutralC/CFD-IM-671-601-N.jpg","img/neutralC/CFD-BF-229-179-N.jpg","img/neutralC/CFD-MF-359-019-N.jpg","1","1","1","0","0","0","0.912765699991724","0.838830099994084","0.740002800012007","1","1","1","1","1","1","1","1","1"
"250053","img/neutralC/CFD-MF-359-019-N.jpg","img/neutralC/CFD-IM-671-601-N.jpg","img/neutralC/CFD-WM-033-025-N.jpg","1","1","1","0","0","1","0.740002800012007","0.912765699991724","0.569864599994617","1","1","1","1","1","1","1","1","1"
"250053","img/neutralC/CFD-WM-033-025-N.jpg","img/neutralC/CFD-MF-359-019-N.jpg","img/neutralC/CFD-WM-004-010-N.jpg","1","1","1","1","0","0","0.569864599994617","0.740002800012007","0.52357999997912","1","1","1","1","1","1","1","1","1"
"250053","img/neutralC/CFD-WM-004-010-N.jpg","img/neutralC/CFD-WM-033-025-N.jpg","img/neutralC/CFD-IM-645-001-N.jpg","1","1","1","0","1","0","0.52357999997912","0.569864599994617","0.554907799989451","1","1","1","1","1","1","1","1","1"
"250053","img/neutralC/CFD-IM-645-001-N.jpg","img/neutralC/CFD-WM-004-010-N.jpg","img/neutralC/CFD-IF-650-315-N.jpg","1","1","1","0","0","0","0.554907799989451","0.52357999997912","0.598482600005809","1","1","1","1","1","1","1","1","1"
"250053","img/neutralC/CFD-IF-650-315-N.jpg","img/neutralC/CFD-IM-645-001-N.jpg","img/neutralC/CFD-BM-253-004-N.jpg","1","1","1","0","0","1","0.598482600005809","0.554907799989451","0.543704800016712","1","1","1","1","1","1","1","1","1"
"250053","img/neutralC/CFD-BM-253-004-N.jpg","img/neutralC/CFD-IF-650-315-N.jpg","img/neutralC/CFD-IM-743-006-N.jpg","1","1","1","1","0","1","0.543704800016712","0.598482600005809","0.519776100001764","1","1","1","1","1","1","1","1","1"
"250053","img/neutralC/CFD-IM-743-006-N.jpg","img/neutralC/CFD-BM-253-004-N.jpg","img/neutralC/CFD-AM-242-176-N.jpg","1","1","1","1","1","1","0.519776100001764","0.543704800016712","0.484467399975983","1","1","1","1","1","1","1","1","1"
"250053","img/neutralC/CFD-AM-242-176-N.jpg","img/neutralC/CFD-IM-743-006-N.jpg","img/neutralC/CFD-IF-623-129-N.jpg","1","1","1","1","1","1","0.484467399975983","0.519776100001764","0.510569000005489","1","1","1","1","1","1","1","1","1"
"250053","img/neutralC/CFD-IF-623-129-N.jpg","img/neutralC/CFD-AM-242-176-N.jpg","img/neutralC/CFD-WF-214-122-N.jpg","1","1","1","1","1","1","0.510569000005489","0.484467399975983","0.420250900002429","1","1","1","1","1","1","1","1","1"
"250053","img/neutralC/CFD-WF-214-122-N.jpg","img/neutralC/CFD-IF-623-129-N.jpg","img/neutralC/CFD-WM-235-147-N.jpg","1","1","1","1","1","0","0.420250900002429","0.510569000005489","0.642206300020916","1","1","1","1","1","1","1","1","1"
"250053","img/neutralC/CFD-WM-235-147-N.jpg","img/neutralC/CFD-WF-214-122-N.jpg","img/neutralC/CFD-WM-219-008-N.jpg","1","1","0","0","1","0","0.642206300020916","0.420250900002429","0.460777600004803","1","1","1","1","1","1","1","1","1"
"250053","img/neutralC/CFD-WM-219-008-N.jpg","img/neutralC/CFD-WM-235-147-N.jpg","img/neutralC/CFD-IM-616-214-N.jpg","0","1","1","0","0","0","0.460777600004803","0.642206300020916","0.662042399984784","1","1","1","1","1","1","1","1","1"
"250053","img/neutralC/CFD-IM-616-214-N.jpg","img/neutralC/CFD-WM-219-008-N.jpg","img/neutralC/CFD-WF-036-023-N.jpg","1","0","1","0","0","0","0.662042399984784","0.460777600004803","0.51356950000627","1","1","1","1","1","1","1","1","1"
"250053","img/neutralC/CFD-WF-036-023-N.jpg","img/neutralC/CFD-IM-616-214-N.jpg",NA,"1","1",NA,"0","0",NA,"0.51356950000627","0.662042399984784",NA,"1","1",NA,"1","1",NA,"1","1",NA
"250053","img/neutralC/CFD-IM-669-111-N.jpg",NA,"img/neutralC/CFD-BF-020-002-N.jpg","1",NA,"1","1",NA,"1","0.90097080002306",NA,"0.481380799988983","1",NA,"1","1",NA,"1","1",NA,"1"
"250053","img/neutralC/CFD-BF-020-002-N.jpg","img/neutralC/CFD-IM-669-111-N.jpg","img/neutralC/CFD-AF-246-242-N.jpg","1","1","0","1","1","0","0.481380799988983","0.90097080002306","0.507834399992134","1","1","1","1","1","1","1","1","1"
"250053","img/neutralC/CFD-AF-246-242-N.jpg","img/neutralC/CFD-BF-020-002-N.jpg","img/neutralC/CFD-AM-245-111-N.jpg","0","1","1","0","1","1","0.507834399992134","0.481380799988983","0.899154899991117","1","1","1","1","1","1","1","1","1"
"250053","img/neutralC/CFD-AM-245-111-N.jpg","img/neutralC/CFD-AF-246-242-N.jpg","img/neutralC/CFD-AF-205-155-N.jpg","1","0","1","1","0","0","0.899154899991117","0.507834399992134","0.54190959999687","1","1","1","1","1","1","1","1","1"
"250053","img/neutralC/CFD-AF-205-155-N.jpg","img/neutralC/CFD-AM-245-111-N.jpg","img/neutralC/CFD-AF-250-200-N.jpg","1","1","1","0","1","1","0.54190959999687","0.899154899991117","0.473762700014049","1","1","1","1","1","1","1","1","1"
"250053","img/neutralC/CFD-AF-250-200-N.jpg","img/neutralC/CFD-AF-205-155-N.jpg","img/neutralC/CFD-BF-217-189-N.jpg","1","1","1","1","0","0","0.473762700014049","0.54190959999687","0.675598500005435","1","1","1","1","1","1","1","1","1"
"250053","img/neutralC/CFD-BF-217-189-N.jpg","img/neutralC/CFD-AF-250-200-N.jpg","img/neutralC/CFD-BF-040-003-N.jpg","1","1","1","0","1","1","0.675598500005435","0.473762700014049","0.38624369999161","1","1","1","1","1","1","1","1","1"
"250053","img/neutralC/CFD-BF-040-003-N.jpg","img/neutralC/CFD-BF-217-189-N.jpg","img/neutralC/CFD-BF-042-026-N.jpg","1","1","1","1","0","1","0.38624369999161","0.675598500005435","0.444813699985389","1","1","1","1","1","1","1","1","1"
"250053","img/neutralC/CFD-BF-042-026-N.jpg","img/neutralC/CFD-BF-040-003-N.jpg","img/neutralC/CFD-LF-239-148-N.jpg","1","1","1","1","1","0","0.444813699985389","0.38624369999161","0.659541500004707","1","1","1","1","1","1","1","1","1"
"250053","img/neutralC/CFD-LF-239-148-N.jpg","img/neutralC/CFD-BF-042-026-N.jpg","img/neutralC/CFD-BF-206-143-N.jpg","1","1","1","0","1","1","0.659541500004707","0.444813699985389","0.573333900014404","1","1","1","1","1","1","1","1","1"
"250053","img/neutralC/CFD-BF-206-143-N.jpg","img/neutralC/CFD-LF-239-148-N.jpg","img/neutralC/CFD-BM-004-002-N.jpg","1","1","1","1","0","0","0.573333900014404","0.659541500004707","0.555630700022448","1","1","1","1","1","1","1","1","1"
"250053","img/neutralC/CFD-BM-004-002-N.jpg","img/neutralC/CFD-BF-206-143-N.jpg","img/neutralC/CFD-MF-307-002-N.jpg","1","1","1","0","1","1","0.555630700022448","0.573333900014404","0.597600400011288","1","1","1","1","1","1","1","1","1"
"250053","img/neutralC/CFD-MF-307-002-N.jpg","img/neutralC/CFD-BM-004-002-N.jpg","img/neutralC/CFD-AF-213-126-N.jpg","1","1","1","1","0","1","0.597600400011288","0.555630700022448","0.504921300016576","1","1","1","1","1","1","1","1","1"
"250053","img/neutralC/CFD-AF-213-126-N.jpg","img/neutralC/CFD-MF-307-002-N.jpg","img/neutralC/CFD-IM-678-482-N.jpg","1","1","1","1","1","0","0.504921300016576","0.597600400011288","0.580536199995549","1","1","1","1","1","1","1","1","1"
"250053","img/neutralC/CFD-IM-678-482-N.jpg","img/neutralC/CFD-AF-213-126-N.jpg","img/neutralC/CFD-IF-732-260-N.jpg","1","1","1","0","1","0","0.580536199995549","0.504921300016576","0.547175799991237","1","1","1","1","1","1","1","1","1"
"250053","img/neutralC/CFD-IF-732-260-N.jpg","img/neutralC/CFD-IM-678-482-N.jpg","img/neutralC/CFD-LM-204-001-N.jpg","1","1","1","0","0","0","0.547175799991237","0.580536199995549","0.670255200006068","1","1","1","1","1","1","1","1","1"
"250053","img/neutralC/CFD-LM-204-001-N.jpg","img/neutralC/CFD-IF-732-260-N.jpg","img/neutralC/CFD-IM-632-097-N.jpg","1","1","1","0","0","0","0.670255200006068","0.547175799991237","0.545797099999618","1","1","1","1","1","1","1","1","1"
"250053","img/neutralC/CFD-IM-632-097-N.jpg","img/neutralC/CFD-LM-204-001-N.jpg","img/neutralC/CFD-IF-636-011-N.jpg","1","1","1","0","0","1","0.545797099999618","0.670255200006068","0.543896300019696","1","1","1","1","1","1","1","1","1"
"250053","img/neutralC/CFD-IF-636-011-N.jpg","img/neutralC/CFD-IM-632-097-N.jpg","img/neutralC/CFD-AM-225-102-N.jpg","1","1","1","1","0","0","0.543896300019696","0.545797099999618","0.592475599987665","1","1","1","1","1","1","1","1","1"
"250053","img/neutralC/CFD-AM-225-102-N.jpg","img/neutralC/CFD-IF-636-011-N.jpg","img/neutralC/CFD-AM-233-236-N.jpg","1","1","1","0","1","1","0.592475599987665","0.543896300019696","0.518556900002295","1","1","1","1","1","1","1","1","1"
"250053","img/neutralC/CFD-AM-233-236-N.jpg","img/neutralC/CFD-AM-225-102-N.jpg","img/neutralC/CFD-BF-235-168-N.jpg","1","1","1","1","0","1","0.518556900002295","0.592475599987665","0.498364500002936","1","1","1","1","1","1","1","1","1"
"250053","img/neutralC/CFD-BF-235-168-N.jpg","img/neutralC/CFD-AM-233-236-N.jpg","img/neutralC/CFD-WM-018-002-N.jpg","1","1","1","1","1","0","0.498364500002936","0.518556900002295","0.611327199992957","1","1","1","1","1","1","1","1","1"
"250053","img/neutralC/CFD-WM-018-002-N.jpg","img/neutralC/CFD-BF-235-168-N.jpg","img/neutralC/CFD-WF-235-121-N.jpg","1","1","1","0","1","0","0.611327199992957","0.498364500002936","0.558247300010407","1","1","1","1","1","1","1","1","1"
"250053","img/neutralC/CFD-WF-235-121-N.jpg","img/neutralC/CFD-WM-018-002-N.jpg","img/neutralC/CFD-WF-210-086-N.jpg","1","1","1","0","0","0","0.558247300010407","0.611327199992957","0.455358600011095","1","1","1","1","1","1","1","1","1"
"250053","img/neutralC/CFD-WF-210-086-N.jpg","img/neutralC/CFD-WF-235-121-N.jpg","img/neutralC/CFD-MF-302-027-N.jpg","1","1","1","0","0","0","0.455358600011095","0.558247300010407","0.547999200003687","1","1","1","1","1","1","1","1","1"
"250053","img/neutralC/CFD-MF-302-027-N.jpg","img/neutralC/CFD-WF-210-086-N.jpg","img/neutralC/CFD-IM-635-010-N.jpg","1","1","1","0","0","1","0.547999200003687","0.455358600011095","0.510013299994171","1","1","1","1","1","1","1","1","1"
"250053","img/neutralC/CFD-IM-635-010-N.jpg","img/neutralC/CFD-MF-302-027-N.jpg","img/neutralC/CFD-AF-244-168-N.jpg","1","1","1","1","0","0","0.510013299994171","0.547999200003687","0.572383999999147","1","1","1","1","1","1","1","1","1"
"250053","img/neutralC/CFD-AF-244-168-N.jpg","img/neutralC/CFD-IM-635-010-N.jpg","img/neutralC/CFD-LM-241-125-N.jpg","1","1","1","0","1","1","0.572383999999147","0.510013299994171","0.474144399981014","1","1","1","1","1","1","1","1","1"
"250053","img/neutralC/CFD-LM-241-125-N.jpg","img/neutralC/CFD-AF-244-168-N.jpg","img/neutralC/CFD-BM-215-155-N.jpg","1","1","1","1","0","0","0.474144399981014","0.572383999999147","0.523312199977227","1","1","1","1","1","1","1","1","1"
"250053","img/neutralC/CFD-BM-215-155-N.jpg","img/neutralC/CFD-LM-241-125-N.jpg","img/neutralC/CFD-AF-234-208-N.jpg","1","1","1","0","1","1","0.523312199977227","0.474144399981014","0.49437199998647","1","1","1","1","1","1","1","1","1"
"250053","img/neutralC/CFD-AF-234-208-N.jpg","img/neutralC/CFD-BM-215-155-N.jpg","img/neutralC/CFD-WM-253-119-N.jpg","1","1","1","1","0","1","0.49437199998647","0.523312199977227","0.509209100011503","1","1","1","1","1","1","1","1","1"
"250053","img/neutralC/CFD-WM-253-119-N.jpg","img/neutralC/CFD-AF-234-208-N.jpg",NA,"1","1",NA,"1","1",NA,"0.509209100011503","0.49437199998647",NA,"1","1",NA,"1","1",NA,"1","1",NA
"250053","img/neutralC/CFD-BF-238-190-N.jpg",NA,"img/neutralC/CFD-BM-005-003-N.jpg","1",NA,"1","1",NA,"1","0.587652299989713",NA,"0.44829739999841","1",NA,"1","1",NA,"1","1",NA,"1"
"250053","img/neutralC/CFD-BM-005-003-N.jpg","img/neutralC/CFD-BF-238-190-N.jpg","img/neutralC/CFD-IM-657-308-N.jpg","1","1","1","1","1","0","0.44829739999841","0.587652299989713","0.510507200000575","1","1","1","1","1","1","1","1","1"
"250053","img/neutralC/CFD-IM-657-308-N.jpg","img/neutralC/CFD-BM-005-003-N.jpg","img/neutralC/CFD-LF-250-169-N.jpg","1","1","1","0","1","1","0.510507200000575","0.44829739999841","0.468701600009808","1","1","1","1","1","1","1","1","1"
"250053","img/neutralC/CFD-LF-250-169-N.jpg","img/neutralC/CFD-IM-657-308-N.jpg","img/neutralC/CFD-LF-247-051-N.jpg","1","1","1","1","0","1","0.468701600009808","0.510507200000575","0.460015100019518","1","1","1","1","1","1","1","1","1"
"250053","img/neutralC/CFD-LF-247-051-N.jpg","img/neutralC/CFD-LF-250-169-N.jpg","img/neutralC/CFD-BF-033-028-N.jpg","1","1","0","1","1","0","0.460015100019518","0.468701600009808","0.430668799992418","1","1","1","1","1","1","1","1","1"
"250053","img/neutralC/CFD-BF-033-028-N.jpg","img/neutralC/CFD-LF-247-051-N.jpg","img/neutralC/CFD-BM-026-002-N.jpg","0","1","1","0","1","0","0.430668799992418","0.460015100019518","0.544541199982632","1","1","1","1","1","1","1","1","1"
"250053","img/neutralC/CFD-BM-026-002-N.jpg","img/neutralC/CFD-BF-033-028-N.jpg","img/neutralC/CFD-IM-617-174-N.jpg","1","0","1","0","0","0","0.544541199982632","0.430668799992418","0.540515100001357","1","1","1","1","1","1","1","1","1"
"250053","img/neutralC/CFD-IM-617-174-N.jpg","img/neutralC/CFD-BM-026-002-N.jpg","img/neutralC/CFD-WM-017-002-N.jpg","1","1","1","0","0","0","0.540515100001357","0.544541199982632","0.486783999978798","1","1","1","1","1","1","1","1","1"
"250053","img/neutralC/CFD-WM-017-002-N.jpg","img/neutralC/CFD-IM-617-174-N.jpg","img/neutralC/CFD-AF-202-122-N.jpg","1","1","1","0","0","1","0.486783999978798","0.540515100001357","0.559741600009147","1","1","1","1","1","1","1","1","1"
"250053","img/neutralC/CFD-AF-202-122-N.jpg","img/neutralC/CFD-WM-017-002-N.jpg","img/neutralC/CFD-IM-727-195-N.jpg","1","1","1","1","0","1","0.559741600009147","0.486783999978798","0.519565299997339","1","1","1","1","1","1","1","1","1"
"250053","img/neutralC/CFD-IM-727-195-N.jpg","img/neutralC/CFD-AF-202-122-N.jpg","img/neutralC/CFD-AF-206-079-N.jpg","1","1","1","1","1","1","0.519565299997339","0.559741600009147","0.449367099994561","1","1","1","1","1","1","1","1","1"
"250053","img/neutralC/CFD-AF-206-079-N.jpg","img/neutralC/CFD-IM-727-195-N.jpg","img/neutralC/CFD-BM-018-001-N.jpg","1","1","1","1","1","1","0.449367099994561","0.519565299997339","0.401140200003283","1","1","1","1","1","1","1","1","1"
"250053","img/neutralC/CFD-BM-018-001-N.jpg","img/neutralC/CFD-AF-206-079-N.jpg","img/neutralC/CFD-LM-219-295-N.jpg","1","1","1","1","1","1","0.401140200003283","0.449367099994561","0.448503000021446","1","1","1","1","1","1","1","1","1"
"250053","img/neutralC/CFD-LM-219-295-N.jpg","img/neutralC/CFD-BM-018-001-N.jpg","img/neutralC/CFD-IF-620-218-N.jpg","1","1","1","1","1","0","0.448503000021446","0.401140200003283","0.614781000011135","1","1","1","1","1","1","1","1","1"
"250053","img/neutralC/CFD-IF-620-218-N.jpg","img/neutralC/CFD-LM-219-295-N.jpg","img/neutralC/CFD-IM-653-008-N.jpg","1","1","1","0","1","0","0.614781000011135","0.448503000021446","0.554897199996049","1","1","1","1","1","1","1","1","1"
"250053","img/neutralC/CFD-IM-653-008-N.jpg","img/neutralC/CFD-IF-620-218-N.jpg","img/neutralC/CFD-IM-686-097-N.jpg","1","1","1","0","0","0","0.554897199996049","0.614781000011135","0.442063900001813","1","1","1","1","1","1","1","1","1"
"250053","img/neutralC/CFD-IM-686-097-N.jpg","img/neutralC/CFD-IM-653-008-N.jpg","img/neutralC/CFD-IF-665-015-N.jpg","1","1","1","0","0","0","0.442063900001813","0.554897199996049","0.679546300001675","1","1","1","1","1","1","1","1","1"
"250053","img/neutralC/CFD-IF-665-015-N.jpg","img/neutralC/CFD-IM-686-097-N.jpg","img/neutralC/CFD-LF-242-121-N.jpg","1","1","1","0","0","0","0.679546300001675","0.442063900001813","0.544827100005932","1","1","1","1","1","1","1","1","1"
"250053","img/neutralC/CFD-LF-242-121-N.jpg","img/neutralC/CFD-IF-665-015-N.jpg","img/neutralC/CFD-WF-209-052-N.jpg","1","1","1","0","0","1","0.544827100005932","0.679546300001675","0.560399000009056","1","1","1","1","1","1","1","1","1"
"250053","img/neutralC/CFD-WF-209-052-N.jpg","img/neutralC/CFD-LF-242-121-N.jpg","img/neutralC/CFD-BF-010-001-N.jpg","1","1","1","1","0","1","0.560399000009056","0.544827100005932","0.62967250001384","1","1","1","1","1","1","1","1","1"
"250053","img/neutralC/CFD-BF-010-001-N.jpg","img/neutralC/CFD-WF-209-052-N.jpg","img/neutralC/CFD-MF-313-002-N.jpg","1","1","1","1","1","0","0.62967250001384","0.560399000009056","0.56552410000586","1","1","1","1","1","1","1","1","1"
"250053","img/neutralC/CFD-MF-313-002-N.jpg","img/neutralC/CFD-BF-010-001-N.jpg","img/neutralC/CFD-WM-242-011-N.jpg","1","1","1","0","1","0","0.56552410000586","0.62967250001384","0.549219000007724","1","1","1","1","1","1","1","1","1"
"250053","img/neutralC/CFD-WM-242-011-N.jpg","img/neutralC/CFD-MF-313-002-N.jpg","img/neutralC/CFD-WM-258-125-N.jpg","1","1","1","0","0","0","0.549219000007724","0.56552410000586","0.455529400001979","1","1","1","1","1","1","1","1","1"
"250053","img/neutralC/CFD-WM-258-125-N.jpg","img/neutralC/CFD-WM-242-011-N.jpg","img/neutralC/CFD-BM-231-155-N.jpg","1","1","1","0","0","1","0.455529400001979","0.549219000007724","0.493570499995258","1","1","1","1","1","1","1","1","1"
"250053","img/neutralC/CFD-BM-231-155-N.jpg","img/neutralC/CFD-WM-258-125-N.jpg","img/neutralC/CFD-IM-638-250-1-N.jpg","1","1","1","1","0","1","0.493570499995258","0.455529400001979","0.462820600019768","1","1","1","1","1","1","1","1","1"
"250053","img/neutralC/CFD-IM-638-250-1-N.jpg","img/neutralC/CFD-BM-231-155-N.jpg","img/neutralC/CFD-BM-212-117-N.jpg","1","1","1","1","1","0","0.462820600019768","0.493570499995258","0.576778899994679","1","1","1","1","1","1","1","1","1"
"250053","img/neutralC/CFD-BM-212-117-N.jpg","img/neutralC/CFD-IM-638-250-1-N.jpg","img/neutralC/CFD-AF-241-141-N.jpg","1","1","1","0","1","1","0.576778899994679","0.462820600019768","0.46608399998513","1","1","1","1","1","1","1","1","1"
"250053","img/neutralC/CFD-AF-241-141-N.jpg","img/neutralC/CFD-BM-212-117-N.jpg","img/neutralC/CFD-LF-245-166-N.jpg","1","1","1","1","0","1","0.46608399998513","0.576778899994679","0.416560500016203","1","1","1","1","1","1","1","1","1"
"250053","img/neutralC/CFD-LF-245-166-N.jpg","img/neutralC/CFD-AF-241-141-N.jpg","img/neutralC/CFD-WM-227-099-N.jpg","1","1","0","1","1","1","0.416560500016203","0.46608399998513","0.417000399989775","1","1","1","1","1","1","1","1","1"
"250053","img/neutralC/CFD-WM-227-099-N.jpg","img/neutralC/CFD-LF-245-166-N.jpg","img/neutralC/CFD-LM-233-171-N.jpg","0","1","1","1","1","0","0.417000399989775","0.416560500016203","0.705172799993306","1","1","1","1","1","1","1","1","1"
"250053","img/neutralC/CFD-LM-233-171-N.jpg","img/neutralC/CFD-WM-227-099-N.jpg","img/neutralC/CFD-LM-226-175-N.jpg","1","0","1","0","1","0","0.705172799993306","0.417000399989775","0.51816899998812","1","1","1","1","1","1","1","1","1"
"250053","img/neutralC/CFD-LM-226-175-N.jpg","img/neutralC/CFD-LM-233-171-N.jpg",NA,"1","1",NA,"0","0",NA,"0.51816899998812","0.705172799993306",NA,"1","1",NA,"1","1",NA,"1","1",NA
"250053","img/neutralC/CFD-LF-211-003-N.jpg",NA,"img/neutralC/CFD-WM-237-052-N.jpg","1",NA,"1","0",NA,"1","1.40023749999818",NA,"0.543526399997063","1",NA,"1","1",NA,"1","1",NA,"1"
"250053","img/neutralC/CFD-WM-237-052-N.jpg","img/neutralC/CFD-LF-211-003-N.jpg","img/neutralC/CFD-MF-342-022-N.jpg","1","1","1","1","0","1","0.543526399997063","1.40023749999818","0.454772500001127","1","1","1","1","1","1","1","1","1"
"250053","img/neutralC/CFD-MF-342-022-N.jpg","img/neutralC/CFD-WM-237-052-N.jpg","img/neutralC/CFD-AF-221-147-N.jpg","1","1","0","1","1","0","0.454772500001127","0.543526399997063","0.493928699987009","1","1","1","1","1","1","1","1","1"
"250053","img/neutralC/CFD-AF-221-147-N.jpg","img/neutralC/CFD-MF-342-022-N.jpg","img/neutralC/CFD-MM-321-021-N.jpg","0","1","1","0","1","0","0.493928699987009","0.454772500001127","0.513463199982652","1","1","1","1","1","1","1","1","1"
"250053","img/neutralC/CFD-MM-321-021-N.jpg","img/neutralC/CFD-AF-221-147-N.jpg","img/neutralC/CFD-WM-221-091-N.jpg","1","0","1","0","0","0","0.513463199982652","0.493928699987009","0.455401700019138","1","1","1","1","1","1","1","1","1"
"250053","img/neutralC/CFD-WM-221-091-N.jpg","img/neutralC/CFD-MM-321-021-N.jpg","img/neutralC/CFD-IM-627-178-N.jpg","1","1","1","0","0","1","0.455401700019138","0.513463199982652","0.615402499999618","1","1","1","1","1","1","1","1","1"
"250053","img/neutralC/CFD-IM-627-178-N.jpg","img/neutralC/CFD-WM-221-091-N.jpg","img/neutralC/CFD-WF-245-084-N.jpg","1","1","1","1","0","1","0.615402499999618","0.455401700019138","0.47821530001238","1","1","1","1","1","1","1","1","1"
"250053","img/neutralC/CFD-WF-245-084-N.jpg","img/neutralC/CFD-IM-627-178-N.jpg","img/neutralC/CFD-BF-218-207-N.jpg","1","1","1","1","1","1","0.47821530001238","0.615402499999618","0.512399400002323","1","1","1","1","1","1","1","1","1"
"250053","img/neutralC/CFD-BF-218-207-N.jpg","img/neutralC/CFD-WF-245-084-N.jpg","img/neutralC/CFD-BF-254-201-N.jpg","1","1","1","1","1","0","0.512399400002323","0.47821530001238","0.548477399977855","1","1","1","1","1","1","1","1","1"
"250053","img/neutralC/CFD-BF-254-201-N.jpg","img/neutralC/CFD-BF-218-207-N.jpg","img/neutralC/CFD-IM-700-009-N.jpg","1","1","1","0","1","1","0.548477399977855","0.512399400002323","0.43547419999959","1","1","1","1","1","1","1","1","1"
"250053","img/neutralC/CFD-IM-700-009-N.jpg","img/neutralC/CFD-BF-254-201-N.jpg","img/neutralC/CFD-LM-253-075-N.jpg","1","1","1","1","0","0","0.43547419999959","0.548477399977855","0.747858799993992","1","1","1","1","1","1","1","1","1"
"250053","img/neutralC/CFD-LM-253-075-N.jpg","img/neutralC/CFD-IM-700-009-N.jpg","img/neutralC/CFD-AM-244-222-N.jpg","1","1","1","0","1","0","0.747858799993992","0.43547419999959","0.536077299999306","1","1","1","1","1","1","1","1","1"
"250053","img/neutralC/CFD-AM-244-222-N.jpg","img/neutralC/CFD-LM-253-075-N.jpg","img/neutralC/CFD-BF-018-039-N.jpg","1","1","1","0","0","1","0.536077299999306","0.747858799993992","0.816470899997512","1","1","1","1","1","1","1","1","1"
"250053","img/neutralC/CFD-BF-018-039-N.jpg","img/neutralC/CFD-AM-244-222-N.jpg","img/neutralC/CFD-WF-023-003-N.jpg","1","1","1","1","0","1","0.816470899997512","0.536077299999306","0.697259900014615","1","1","1","1","1","1","1","1","1"
"250053","img/neutralC/CFD-WF-023-003-N.jpg","img/neutralC/CFD-BF-018-039-N.jpg","img/neutralC/CFD-BM-204-003-N.jpg","1","1","1","1","1","0","0.697259900014615","0.816470899997512","0.46408090001205","1","1","1","1","1","1","1","1","1"
"250053","img/neutralC/CFD-BM-204-003-N.jpg","img/neutralC/CFD-WF-023-003-N.jpg","img/neutralC/CFD-WF-226-095-N.jpg","1","1","1","0","1","1","0.46408090001205","0.697259900014615","0.399469099997077","1","1","1","1","1","1","1","1","1"
"250053","img/neutralC/CFD-WF-226-095-N.jpg","img/neutralC/CFD-BM-204-003-N.jpg","img/neutralC/CFD-BM-200-046-N.jpg","1","1","1","1","0","0","0.399469099997077","0.46408090001205","0.541017200011993","1","1","1","1","1","1","1","1","1"
"250053","img/neutralC/CFD-BM-200-046-N.jpg","img/neutralC/CFD-WF-226-095-N.jpg","img/neutralC/CFD-MF-318-022-N.jpg","1","1","1","0","1","1","0.541017200011993","0.399469099997077","0.53129730001092","1","1","1","1","1","1","1","1","1"
"250053","img/neutralC/CFD-MF-318-022-N.jpg","img/neutralC/CFD-BM-200-046-N.jpg","img/neutralC/CFD-AF-232-078-N.jpg","1","1","1","1","0","1","0.53129730001092","0.541017200011993","0.397791800001869","1","1","1","1","1","1","1","1","1"
"250053","img/neutralC/CFD-AF-232-078-N.jpg","img/neutralC/CFD-MF-318-022-N.jpg","img/neutralC/CFD-LF-215-157-N.jpg","1","1","1","1","1","0","0.397791800001869","0.53129730001092","0.501780899998266","1","1","1","1","1","1","1","1","1"
"250053","img/neutralC/CFD-LF-215-157-N.jpg","img/neutralC/CFD-AF-232-078-N.jpg","img/neutralC/CFD-WM-201-063-N.jpg","1","1","1","0","1","1","0.501780899998266","0.397791800001869","0.55178429998341","1","1","1","1","1","1","1","1","1"
"250053","img/neutralC/CFD-WM-201-063-N.jpg","img/neutralC/CFD-LF-215-157-N.jpg","img/neutralC/CFD-WM-009-002-N.jpg","1","1","1","1","0","0","0.55178429998341","0.501780899998266","0.489734400005546","1","1","1","1","1","1","1","1","1"
"250053","img/neutralC/CFD-WM-009-002-N.jpg","img/neutralC/CFD-WM-201-063-N.jpg","img/neutralC/CFD-WF-238-023-N.jpg","1","1","0","0","1","0","0.489734400005546","0.55178429998341","0.509730600024341","1","1","1","1","1","1","1","1","1"
"250053","img/neutralC/CFD-WF-238-023-N.jpg","img/neutralC/CFD-WM-009-002-N.jpg","img/neutralC/CFD-WM-255-219-N.jpg","0","1","1","0","0","0","0.509730600024341","0.489734400005546","0.558515399985481","1","1","1","1","1","1","1","1","1"
"250053","img/neutralC/CFD-WM-255-219-N.jpg","img/neutralC/CFD-WF-238-023-N.jpg","img/neutralC/CFD-WF-027-003-N.jpg","1","0","1","0","0","1","0.558515399985481","0.509730600024341","0.451390200003516","1","1","1","1","1","1","1","1","1"
"250053","img/neutralC/CFD-WF-027-003-N.jpg","img/neutralC/CFD-WM-255-219-N.jpg","img/neutralC/CFD-WM-013-001-N.jpg","1","1","1","1","0","1","0.451390200003516","0.558515399985481","0.461392900004284","1","1","1","1","1","1","1","1","1"
"250053","img/neutralC/CFD-WM-013-001-N.jpg","img/neutralC/CFD-WF-027-003-N.jpg","img/neutralC/CFD-MF-321-003-N.jpg","1","1","1","1","1","0","0.461392900004284","0.451390200003516","0.549288500013063","1","1","1","1","1","1","1","1","1"
"250053","img/neutralC/CFD-MF-321-003-N.jpg","img/neutralC/CFD-WM-013-001-N.jpg","img/neutralC/CFD-BM-023-029-N.jpg","1","1","1","0","1","1","0.549288500013063","0.461392900004284","0.463150399998995","1","1","1","1","1","1","1","1","1"
"250053","img/neutralC/CFD-BM-023-029-N.jpg","img/neutralC/CFD-MF-321-003-N.jpg","img/neutralC/CFD-IF-629-234-N.jpg","1","1","1","1","0","0","0.463150399998995","0.549288500013063","0.454155099985655","1","1","1","1","1","1","1","1","1"
"250053","img/neutralC/CFD-IF-629-234-N.jpg","img/neutralC/CFD-BM-023-029-N.jpg","img/neutralC/CFD-IM-719-221-N.jpg","1","1","1","0","1","0","0.454155099985655","0.463150399998995","0.692827499995474","1","1","1","1","1","1","1","1","1"
"250053","img/neutralC/CFD-IM-719-221-N.jpg","img/neutralC/CFD-IF-629-234-N.jpg","img/neutralC/CFD-WF-018-017-N.jpg","1","1","1","0","0","1","0.692827499995474","0.454155099985655","0.464978500007419","1","1","1","1","1","1","1","1","1"
"250053","img/neutralC/CFD-WF-018-017-N.jpg","img/neutralC/CFD-IM-719-221-N.jpg",NA,"1","1",NA,"1","0",NA,"0.464978500007419","0.692827499995474",NA,"1","1",NA,"1","1",NA,"1","1",NA
"250053","img/neutralC/CFD-BF-051-035-N.jpg",NA,"img/neutralC/CFD-BM-039-029-N.jpg","1",NA,"1","0",NA,"1","0.757143299997551",NA,"0.538724000012735","1",NA,"1","1",NA,"1","1",NA,"1"
"250053","img/neutralC/CFD-BM-039-029-N.jpg","img/neutralC/CFD-BF-051-035-N.jpg","img/neutralC/CFD-LM-217-162-N.jpg","1","1","1","1","0","0","0.538724000012735","0.757143299997551","0.577870700013591","1","1","1","1","1","1","1","1","1"
"250053","img/neutralC/CFD-LM-217-162-N.jpg","img/neutralC/CFD-BM-039-029-N.jpg","img/neutralC/CFD-IM-685-004-N.jpg","1","1","1","0","1","1","0.577870700013591","0.538724000012735","0.485376900003757","1","1","1","1","1","1","1","1","1"
"250053","img/neutralC/CFD-IM-685-004-N.jpg","img/neutralC/CFD-LM-217-162-N.jpg","img/neutralC/CFD-AF-254-167-N.jpg","1","1","1","1","0","1","0.485376900003757","0.577870700013591","0.393197199999122","1","1","1","1","1","1","1","1","1"
"250053","img/neutralC/CFD-AF-254-167-N.jpg","img/neutralC/CFD-IM-685-004-N.jpg","img/neutralC/CFD-AM-236-090-N.jpg","1","1","1","1","1","1","0.393197199999122","0.485376900003757","0.508905300026527","1","1","1","1","1","1","1","1","1"
"250053","img/neutralC/CFD-AM-236-090-N.jpg","img/neutralC/CFD-AF-254-167-N.jpg","img/neutralC/CFD-WF-212-050-N.jpg","1","1","1","1","1","0","0.508905300026527","0.393197199999122","0.622809899999993","1","1","1","1","1","1","1","1","1"
"250053","img/neutralC/CFD-WF-212-050-N.jpg","img/neutralC/CFD-AM-236-090-N.jpg","img/neutralC/CFD-IM-675-015-N.jpg","1","1","1","0","1","1","0.622809899999993","0.508905300026527","0.555644000007305","1","1","1","1","1","1","1","1","1"
"250053","img/neutralC/CFD-IM-675-015-N.jpg","img/neutralC/CFD-WF-212-050-N.jpg","img/neutralC/CFD-WF-217-085-N.jpg","1","1","1","1","0","1","0.555644000007305","0.622809899999993","0.428288399998564","1","1","1","1","1","1","1","1","1"
"250053","img/neutralC/CFD-WF-217-085-N.jpg","img/neutralC/CFD-IM-675-015-N.jpg","img/neutralC/CFD-IM-604-014-N.jpg","1","1","1","1","1","0","0.428288399998564","0.555644000007305","0.61540700000478","1","1","1","1","1","1","1","1","1"
"250053","img/neutralC/CFD-IM-604-014-N.jpg","img/neutralC/CFD-WF-217-085-N.jpg","img/neutralC/CFD-WM-232-070-N.jpg","1","1","1","0","1","0","0.61540700000478","0.428288399998564","0.549660399992717","1","1","1","1","1","1","1","1","1"
"250053","img/neutralC/CFD-WM-232-070-N.jpg","img/neutralC/CFD-IM-604-014-N.jpg","img/neutralC/CFD-LF-226-174-N.jpg","1","1","1","0","0","0","0.549660399992717","0.61540700000478","0.510078899998916","1","1","1","1","1","1","1","1","1"
"250053","img/neutralC/CFD-LF-226-174-N.jpg","img/neutralC/CFD-WM-232-070-N.jpg","img/neutralC/CFD-IM-709-103-N.jpg","1","1","0","0","0","0","0.510078899998916","0.549660399992717","0.558512300020084","1","1","1","1","1","1","1","1","1"
"250053","img/neutralC/CFD-IM-709-103-N.jpg","img/neutralC/CFD-LF-226-174-N.jpg","img/neutralC/CFD-IM-637-007-N.jpg","0","1","1","0","0","0","0.558512300020084","0.510078899998916","0.674981100019068","1","1","1","1","1","1","1","1","1"
"250053","img/neutralC/CFD-IM-637-007-N.jpg","img/neutralC/CFD-IM-709-103-N.jpg","img/neutralC/CFD-MF-327-002-N.jpg","1","0","0","0","0","0","0.674981100019068","0.558512300020084","0.666002499987371","1","1","1","1","1","1","1","1","1"
"250053","img/neutralC/CFD-MF-327-002-N.jpg","img/neutralC/CFD-IM-637-007-N.jpg","img/neutralC/CFD-IF-619-197-N.jpg","0","1","1","0","0","0","0.666002499987371","0.674981100019068","0.562133900006302","1","1","1","1","1","1","1","1","1"
"250053","img/neutralC/CFD-IF-619-197-N.jpg","img/neutralC/CFD-MF-327-002-N.jpg","img/neutralC/CFD-WF-248-129-N.jpg","1","0","1","0","0","0","0.562133900006302","0.666002499987371","0.56876779999584","1","1","1","1","1","1","1","1","1"
"250053","img/neutralC/CFD-WF-248-129-N.jpg","img/neutralC/CFD-IF-619-197-N.jpg","img/neutralC/CFD-MF-329-001-N.jpg","1","1","1","0","0","0","0.56876779999584","0.562133900006302","0.55681259999983","1","1","1","1","1","1","1","1","1"
"250053","img/neutralC/CFD-MF-329-001-N.jpg","img/neutralC/CFD-WF-248-129-N.jpg","img/neutralC/CFD-WM-024-015-N.jpg","1","1","1","0","0","1","0.55681259999983","0.56876779999584","0.494683600001736","1","1","1","1","1","1","1","1","1"
"250053","img/neutralC/CFD-WM-024-015-N.jpg","img/neutralC/CFD-MF-329-001-N.jpg","img/neutralC/CFD-BF-224-002-N.jpg","1","1","1","1","0","1","0.494683600001736","0.55681259999983","0.39954030001536","1","1","1","1","1","1","1","1","1"
"250053","img/neutralC/CFD-BF-224-002-N.jpg","img/neutralC/CFD-WM-024-015-N.jpg","img/neutralC/CFD-AF-215-70-N.jpg","1","1","1","1","1","0","0.39954030001536","0.494683600001736","0.667814599990379","1","1","1","1","1","1","1","1","1"
"250053","img/neutralC/CFD-AF-215-70-N.jpg","img/neutralC/CFD-BF-224-002-N.jpg","img/neutralC/CFD-WF-012-002-N.jpg","1","1","1","0","1","1","0.667814599990379","0.39954030001536","0.502686399995582","1","1","1","1","1","1","1","1","1"
"250053","img/neutralC/CFD-WF-012-002-N.jpg","img/neutralC/CFD-AF-215-70-N.jpg","img/neutralC/CFD-WM-213-076-N.jpg","1","1","1","1","0","1","0.502686399995582","0.667814599990379","0.448621799994726","1","1","1","1","1","1","1","1","1"
"250053","img/neutralC/CFD-WM-213-076-N.jpg","img/neutralC/CFD-WF-012-002-N.jpg","img/neutralC/CFD-AF-229-160-N.jpg","1","1","1","1","1","0","0.448621799994726","0.502686399995582","0.560684199997922","1","1","1","1","1","1","1","1","1"
"250053","img/neutralC/CFD-AF-229-160-N.jpg","img/neutralC/CFD-WM-213-076-N.jpg","img/neutralC/CFD-MF-340-026-N.jpg","1","1","1","0","1","1","0.560684199997922","0.448621799994726","0.436869600001955","1","1","1","1","1","1","1","1","1"
"250053","img/neutralC/CFD-MF-340-026-N.jpg","img/neutralC/CFD-AF-229-160-N.jpg","img/neutralC/CFD-BF-043-003-N.jpg","1","1","1","1","0","0","0.436869600001955","0.560684199997922","0.439634200010914","1","1","1","1","1","1","1","1","1"
"250053","img/neutralC/CFD-BF-043-003-N.jpg","img/neutralC/CFD-MF-340-026-N.jpg","img/neutralC/CFD-IF-608-390-N.jpg","1","1","1","0","1","1","0.439634200010914","0.436869600001955","0.428300700004911","1","1","1","1","1","1","1","1","1"
"250053","img/neutralC/CFD-IF-608-390-N.jpg","img/neutralC/CFD-BF-043-003-N.jpg","img/neutralC/CFD-MF-300-002-N.jpg","1","1","1","1","0","0","0.428300700004911","0.439634200010914","0.457551400002558","1","1","1","1","1","1","1","1","1"
"250053","img/neutralC/CFD-MF-300-002-N.jpg","img/neutralC/CFD-IF-608-390-N.jpg","img/neutralC/CFD-WF-008-002-N.jpg","1","1","1","0","1","1","0.457551400002558","0.428300700004911","0.406988000002457","1","1","1","1","1","1","1","1","1"
"250053","img/neutralC/CFD-WF-008-002-N.jpg","img/neutralC/CFD-MF-300-002-N.jpg","img/neutralC/CFD-BM-243-218-N.jpg","1","1","1","1","0","1","0.406988000002457","0.457551400002558","0.462787700002082","1","1","1","1","1","1","1","1","1"
"250053","img/neutralC/CFD-BM-243-218-N.jpg","img/neutralC/CFD-WF-008-002-N.jpg","img/neutralC/CFD-LF-201-035-N.jpg","1","1","1","1","1","1","0.462787700002082","0.406988000002457","0.457107399997767","1","1","1","1","1","1","1","1","1"
"250053","img/neutralC/CFD-LF-201-035-N.jpg","img/neutralC/CFD-BM-243-218-N.jpg","img/neutralC/CFD-MM-304-002-N.jpg","1","1","1","1","1","1","0.457107399997767","0.462787700002082","0.45770449997508","1","1","1","1","1","1","1","1","1"
"250053","img/neutralC/CFD-MM-304-002-N.jpg","img/neutralC/CFD-LF-201-035-N.jpg",NA,"1","1",NA,"1","1",NA,"0.45770449997508","0.457107399997767",NA,"1","1",NA,"1","1",NA,"1","1",NA
"250053","img/neutralC/CFD-BM-020-001-N.jpg",NA,"img/neutralC/CFD-AM-205-153-N.jpg","0",NA,"1","0",NA,"1","0.508432899980107",NA,"0.603534299996682","1",NA,"1","1",NA,"1","1",NA,"1"
"250053","img/neutralC/CFD-AM-205-153-N.jpg","img/neutralC/CFD-BM-020-001-N.jpg","img/neutralC/CFD-WF-243-148-N.jpg","1","0","1","1","0","0","0.603534299996682","0.508432899980107","0.496109200001229","1","1","1","1","1","1","1","1","1"
"250053","img/neutralC/CFD-WF-243-148-N.jpg","img/neutralC/CFD-AM-205-153-N.jpg","img/neutralC/CFD-WF-009-001-N.jpg","1","1","1","0","1","1","0.496109200001229","0.603534299996682","0.522245900006965","1","1","1","1","1","1","1","1","1"
"250053","img/neutralC/CFD-WF-009-001-N.jpg","img/neutralC/CFD-WF-243-148-N.jpg","img/neutralC/CFD-BM-043-071-N.jpg","1","1","1","1","0","0","0.522245900006965","0.496109200001229","0.529231200023787","1","1","1","1","1","1","1","1","1"
"250053","img/neutralC/CFD-BM-043-071-N.jpg","img/neutralC/CFD-WF-009-001-N.jpg","img/neutralC/CFD-LF-222-147-N.jpg","1","1","1","0","1","0","0.529231200023787","0.522245900006965","0.577234500000486","1","1","1","1","1","1","1","1","1"
"250053","img/neutralC/CFD-LF-222-147-N.jpg","img/neutralC/CFD-BM-043-071-N.jpg","img/neutralC/CFD-WF-207-014-N.jpg","1","1","1","0","0","1","0.577234500000486","0.529231200023787","0.455782699980773","1","1","1","1","1","1","1","1","1"
"250053","img/neutralC/CFD-WF-207-014-N.jpg","img/neutralC/CFD-LF-222-147-N.jpg","img/neutralC/CFD-BM-009-002-N.jpg","1","1","1","1","0","1","0.455782699980773","0.577234500000486","0.473990700003924","1","1","1","1","1","1","1","1","1"
"250053","img/neutralC/CFD-BM-009-002-N.jpg","img/neutralC/CFD-WF-207-014-N.jpg","img/neutralC/CFD-IM-615-167-N.jpg","1","1","1","1","1","0","0.473990700003924","0.455782699980773","0.430166899983305","1","1","1","1","1","1","1","1","1"
"250053","img/neutralC/CFD-IM-615-167-N.jpg","img/neutralC/CFD-BM-009-002-N.jpg","img/neutralC/CFD-LM-240-013-N.jpg","1","1","1","0","1","1","0.430166899983305","0.473990700003924","0.467177200014703","1","1","1","1","1","1","1","1","1"
"250053","img/neutralC/CFD-LM-240-013-N.jpg","img/neutralC/CFD-IM-615-167-N.jpg","img/neutralC/CFD-BF-244-231-N.jpg","1","1","1","1","0","1","0.467177200014703","0.430166899983305","0.474183099984657","1","1","1","1","1","1","1","1","1"
"250053","img/neutralC/CFD-BF-244-231-N.jpg","img/neutralC/CFD-LM-240-013-N.jpg","img/neutralC/CFD-BM-021-021-N.jpg","1","1","1","1","1","1","0.474183099984657","0.467177200014703","0.376639900001464","1","1","1","1","1","1","1","1","1"
"250053","img/neutralC/CFD-BM-021-021-N.jpg","img/neutralC/CFD-BF-244-231-N.jpg","img/neutralC/CFD-WM-023-001-N.jpg","1","1","0","1","1","0","0.376639900001464","0.474183099984657","0.440715199976694","1","1","1","1","1","1","1","1","1"
"250053","img/neutralC/CFD-WM-023-001-N.jpg","img/neutralC/CFD-BM-021-021-N.jpg","img/neutralC/CFD-WM-025-002-N.jpg","0","1","1","0","1","0","0.440715199976694","0.376639900001464","0.485932400013553","1","1","1","1","1","1","1","1","1"
"250053","img/neutralC/CFD-WM-025-002-N.jpg","img/neutralC/CFD-WM-023-001-N.jpg","img/neutralC/CFD-LF-238-154-N.jpg","1","0","1","0","0","1","0.485932400013553","0.440715199976694","0.462056299991673","1","1","1","1","1","1","1","1","1"
"250053","img/neutralC/CFD-LF-238-154-N.jpg","img/neutralC/CFD-WM-025-002-N.jpg","img/neutralC/CFD-IF-676-017-N.jpg","1","1","1","1","0","1","0.462056299991673","0.485932400013553","0.609066899982281","1","1","1","1","1","1","1","1","1"
"250053","img/neutralC/CFD-IF-676-017-N.jpg","img/neutralC/CFD-LF-238-154-N.jpg","img/neutralC/CFD-WF-221-005-N.jpg","1","1","1","1","1","0","0.609066899982281","0.462056299991673","0.490538300015032","1","1","1","1","1","1","1","1","1"
"250053","img/neutralC/CFD-WF-221-005-N.jpg","img/neutralC/CFD-IF-676-017-N.jpg","img/neutralC/CFD-WM-028-003-N.jpg","1","1","1","0","1","1","0.490538300015032","0.609066899982281","0.470565400028136","1","1","1","1","1","1","1","1","1"
"250053","img/neutralC/CFD-WM-028-003-N.jpg","img/neutralC/CFD-WF-221-005-N.jpg","img/neutralC/CFD-MF-328-020-N.jpg","1","1","1","1","0","0","0.470565400028136","0.490538300015032","0.596031699999003","1","1","1","1","1","1","1","1","1"
"250053","img/neutralC/CFD-MF-328-020-N.jpg","img/neutralC/CFD-WM-028-003-N.jpg","img/neutralC/CFD-AM-219-101-N.jpg","1","1","1","0","1","0","0.596031699999003","0.470565400028136","0.798274200002197","1","1","1","1","1","1","1","1","1"
"250053","img/neutralC/CFD-AM-219-101-N.jpg","img/neutralC/CFD-MF-328-020-N.jpg","img/neutralC/CFD-WF-241-210-N.jpg","1","1","1","0","0","0","0.798274200002197","0.596031699999003","0.52265910001006","1","1","1","1","1","1","1","1","1"
"250053","img/neutralC/CFD-WF-241-210-N.jpg","img/neutralC/CFD-AM-219-101-N.jpg","img/neutralC/CFD-IM-697-015-N.jpg","1","1","1","0","0","1","0.52265910001006","0.798274200002197","0.521432800014736","1","1","1","1","1","1","1","1","1"
"250053","img/neutralC/CFD-IM-697-015-N.jpg","img/neutralC/CFD-WF-241-210-N.jpg","img/neutralC/CFD-MM-306-010-N.jpg","1","1","1","1","0","0","0.521432800014736","0.52265910001006","0.656712299998617","1","1","1","1","1","1","1","1","1"
"250053","img/neutralC/CFD-MM-306-010-N.jpg","img/neutralC/CFD-IM-697-015-N.jpg","img/neutralC/CFD-IM-606-008-N.jpg","1","1","1","0","1","0","0.656712299998617","0.521432800014736","0.509104900003877","1","1","1","1","1","1","1","1","1"
"250053","img/neutralC/CFD-IM-606-008-N.jpg","img/neutralC/CFD-MM-306-010-N.jpg","img/neutralC/CFD-BF-012-001-N.jpg","1","1","1","0","0","0","0.509104900003877","0.656712299998617","0.568635699979495","1","1","1","1","1","1","1","1","1"
"250053","img/neutralC/CFD-BF-012-001-N.jpg","img/neutralC/CFD-IM-606-008-N.jpg","img/neutralC/CFD-AM-249-163-N.jpg","1","1","1","0","0","1","0.568635699979495","0.509104900003877","0.404653799982043","1","1","1","1","1","1","1","1","1"
"250053","img/neutralC/CFD-AM-249-163-N.jpg","img/neutralC/CFD-BF-012-001-N.jpg","img/neutralC/CFD-IM-689-263-N.jpg","1","1","1","1","0","1","0.404653799982043","0.568635699979495","0.480419500003336","1","1","1","1","1","1","1","1","1"
"250053","img/neutralC/CFD-IM-689-263-N.jpg","img/neutralC/CFD-AM-249-163-N.jpg","img/neutralC/CFD-BM-030-003-N.jpg","1","1","1","1","1","0","0.480419500003336","0.404653799982043","0.67822959998739","1","1","1","1","1","1","1","1","1"
"250053","img/neutralC/CFD-BM-030-003-N.jpg","img/neutralC/CFD-IM-689-263-N.jpg","img/neutralC/CFD-AM-243-212-N.jpg","1","1","1","0","1","1","0.67822959998739","0.480419500003336","0.655316499993205","1","1","1","1","1","1","1","1","1"
"250053","img/neutralC/CFD-AM-243-212-N.jpg","img/neutralC/CFD-BM-030-003-N.jpg","img/neutralC/CFD-BM-227-191-N.jpg","1","1","1","1","0","1","0.655316499993205","0.67822959998739","0.514082100009546","1","1","1","1","1","1","1","1","1"
"250053","img/neutralC/CFD-BM-227-191-N.jpg","img/neutralC/CFD-AM-243-212-N.jpg","img/neutralC/CFD-LF-212-066-N.jpg","1","1","1","1","1","1","0.514082100009546","0.655316499993205","0.51267490000464","1","1","1","1","1","1","1","1","1"
"250053","img/neutralC/CFD-LF-212-066-N.jpg","img/neutralC/CFD-BM-227-191-N.jpg","img/neutralC/CFD-AF-237-223-N.jpg","1","1","0","1","1","0","0.51267490000464","0.514082100009546","0.389978999999585","1","1","1","1","1","1","1","1","1"
"250053","img/neutralC/CFD-AF-237-223-N.jpg","img/neutralC/CFD-LF-212-066-N.jpg",NA,"0","1",NA,"0","1",NA,"0.389978999999585","0.51267490000464",NA,"1","1",NA,"1","1",NA,"1","1",NA
