"participant_id","face","surpAcc","memory_surp_responses","memory_surp_rt","keep_surp_memory_trial_based_on_rt","surp_block_num","exclude_block","number_of_surp_resp_items_used","num_blocks_excluded"
"250019","img/neutralC/CFD-WF-221-005-N.jpg","0","k","5.35027580001042",1,1,0,2,0
"250019","img/neutralC/CFD-AF-254-167-N.jpg","1","k","3.69142240003566",1,1,0,2,0
"250019","img/neutralC/CFD-MF-328-020-N.jpg","1","k","2.63007370001287",1,1,0,2,0
"250019","img/neutralC/CFD-WM-249-239-N.jpg","0","s","1.93044120000559",1,1,0,2,0
"250019","img/neutralC/CFD-WF-027-003-N.jpg","1","k","1.38468680004007",1,1,0,2,0
"250019","img/neutralC/CFD-AF-205-155-N.jpg","1","s","2.01446210005088",1,1,0,2,0
"250019","img/neutralC/CFD-BF-236-177-N.jpg","0","s","2.59619890002068",1,1,0,2,0
"250019","img/neutralC/CFD-WF-005-010-N.jpg","1","k","1.87107870003092",1,1,0,2,0
"250019","img/neutralC/CFD-WF-243-148-N.jpg","1","k","1.17865940002957",1,1,0,2,0
"250019","img/neutralC/CFD-LF-239-148-N.jpg","0","k","2.46068210003432",1,1,0,2,0
"250019","img/neutralC/CFD-MF-336-016-N.jpg","1","s","1.64340440003434",1,1,0,2,0
"250019","img/neutralC/CFD-IM-635-010-N.jpg","1","s","1.73222070001066",1,1,0,2,0
"250019","img/neutralC/CFD-BF-217-189-N.jpg","1","k","1.7821628000238",1,1,0,2,0
"250019","img/neutralC/CFD-BM-010-003-N.jpg","1","s","1.90541280002799",1,1,0,2,0
"250019","img/neutralC/CFD-AM-236-090-N.jpg","1","s","1.70242510002572",1,1,0,2,0
"250019","img/neutralC/CFD-IM-684-008-N.jpg","1","k","1.52517000003718",1,1,0,2,0
"250019","img/neutralC/CFD-AF-233-190-N.jpg","1","s","1.4468470000138",1,1,0,2,0
"250019","img/neutralC/CFD-WF-224-099-N.jpg","1","k","1.31787700002315",1,1,0,2,0
"250019","img/neutralC/CFD-AM-220-134-N.jpg","1","s","1.76337600001716",1,1,0,2,0
"250019","img/neutralC/CFD-BF-041-001-N.jpg","1","k","1.33607080002548",1,1,0,2,0
"250019","img/neutralC/CFD-BM-029-024-N.jpg","0","s","1.59593870001845",1,1,0,2,0
"250019","img/neutralC/CFD-LF-242-121-N.jpg","1","k","1.92837640002836",1,1,0,2,0
"250019","img/neutralC/CFD-BF-014-002-N.jpg","1","k","1.32294980002916",1,1,0,2,0
"250019","img/neutralC/CFD-BF-201-080-N.jpg","1","s","1.78108560002875",1,1,0,2,0
"250019","img/neutralC/CFD-LM-252-076-N.jpg","1","s","2.04513580002822",1,1,0,2,0
"250019","img/neutralC/CFD-IM-743-006-N.jpg","0","s","1.55224360001739",1,1,0,2,0
"250019","img/neutralC/CFD-WF-002-004-N.jpg","1","k","1.64630810002564",1,1,0,2,0
"250019","img/neutralC/CFD-WF-228-196-N.jpg","1","k","1.99608840001747",1,1,0,2,0
"250019","img/neutralC/CFD-WM-221-091-N.jpg","0","k","2.0323131000041",1,1,0,2,0
"250019","img/neutralC/CFD-IF-625-225-N.jpg","1","s","1.99726200001896",1,1,0,2,0
"250019","img/neutralC/CFD-BF-237-172-N.jpg","0","s","1.61550830001943",1,1,0,2,0
"250019","img/neutralC/CFD-BM-027-001-N.jpg","1","k","1.94344570001704",1,1,0,2,0
"250019","img/neutralC/CFD-WM-225-127-N.jpg","1","s","1.60013230002369",1,1,0,2,0
"250019","img/neutralC/CFD-LF-203-066-N.jpg","1","s","1.96549360000063",1,1,0,2,0
"250019","img/neutralC/CFD-BF-202-109-N.jpg","1","s","1.32614200003445",1,1,0,2,0
"250019","img/neutralC/CFD-LM-244-068-N.jpg","1","k","1.16884080000455",1,1,0,2,0
"250019","img/neutralC/CFD-LF-211-003-N.jpg","1","s","1.57480930001475",1,1,0,2,0
"250019","img/neutralC/CFD-BF-207-004-N.jpg","0","k","1.76165670002229",1,1,0,2,0
"250019","img/neutralC/CFD-MF-340-026-N.jpg","1","k","2.47121440002229",1,1,0,2,0
"250019","img/neutralC/CFD-AF-240-206-N.jpg","1","s","2.05839250001009",1,1,0,2,0
"250019","img/neutralC/CFD-WF-245-084-N.jpg","0","s","1.67834120002226",1,1,0,2,0
"250019","img/neutralC/CFD-WM-021-001-N.jpg","0","k","1.60418360002222",1,1,0,2,0
"250019","img/neutralC/CFD-WF-207-014-N.jpg","0","s","1.72255630002473",1,1,0,2,0
"250019","img/neutralC/CFD-AM-221-184-N.jpg","0","k","1.15558150003199",1,1,0,2,0
"250019","img/neutralC/CFD-IM-606-008-N.jpg","0","k","1.00967200004379",1,1,0,2,0
"250019","img/neutralC/CFD-IM-638-250-1-N.jpg","1","s","1.61195600000792",1,1,0,2,0
"250019","img/neutralC/CFD-IF-642-295-N.jpg","1","s","1.43723850004608",1,1,0,2,0
"250019","img/neutralC/CFD-WF-029-002-N.jpg","1","s","1.55882200002088",1,1,0,2,0
"250019","img/neutralC/CFD-LF-222-147-N.jpg","0","s","2.12896470000851",1,2,0,2,0
"250019","img/neutralC/CFD-AF-237-223-N.jpg","1","k","1.22863400002825",1,2,0,2,0
"250019","img/neutralC/CFD-WF-235-121-N.jpg","0","s","1.40029420002247",1,2,0,2,0
"250019","img/neutralC/CFD-MF-309-002-N.jpg","0","k","1.03747820004355",1,2,0,2,0
"250019","img/neutralC/CFD-WM-006-002-N.jpg","0","k","0.927893100015353",1,2,0,2,0
"250019","img/neutralC/CFD-AF-221-147-N.jpg","0","s","1.1954041000281",1,2,0,2,0
"250019","img/neutralC/CFD-BF-002-001-N.jpg","1","s","0.882379500020761",1,2,0,2,0
"250019","img/neutralC/CFD-BF-028-001-N.jpg","1","k","1.15415450002183",1,2,0,2,0
"250019","img/neutralC/CFD-AM-247-165-N.jpg","1","s","1.76263650003239",1,2,0,2,0
"250019","img/neutralC/CFD-LM-226-175-N.jpg","0","k","0.826755000016419",1,2,0,2,0
"250019","img/neutralC/CFD-IM-696-001-N.jpg","1","k","1.37489060004009",1,2,0,2,0
"250019","img/neutralC/CFD-WF-006-002-N.jpg","1","s","1.37660570003209",1,2,0,2,0
"250019","img/neutralC/CFD-BF-212-315-N.jpg","1","s","1.44495920004556",1,2,0,2,0
"250019","img/neutralC/CFD-IM-703-182-N.jpg","1","k","1.11868970002979",1,2,0,2,0
"250019","img/neutralC/CFD-LF-214-090-N.jpg","1","k","1.66021330002695",1,2,0,2,0
"250019","img/neutralC/CFD-MF-318-022-N.jpg","1","s","0.963701100030448",1,2,0,2,0
"250019","img/neutralC/CFD-BF-010-001-N.jpg","1","k","1.19531560005271",1,2,0,2,0
"250019","img/neutralC/CFD-MF-301-024-N.jpg","1","k","1.4115896000294",1,2,0,2,0
"250019","img/neutralC/CFD-LM-219-295-N.jpg","0","k","0.826985800027614",1,2,0,2,0
"250019","img/neutralC/CFD-LM-238-129-N.jpg","0","s","1.16259920000448",1,2,0,2,0
"250019","img/neutralC/CFD-BF-226-119-N.jpg","1","k","0.760250100021949",1,2,0,2,0
"250019","img/neutralC/CFD-WM-018-002-N.jpg","0","s","1.08111250001821",1,2,0,2,0
"250019","img/neutralC/CFD-BM-018-001-N.jpg","1","k","1.28386670001782",1,2,0,2,0
"250019","img/neutralC/CFD-LM-243-075-N.jpg","1","k","1.78650030001882",1,2,0,2,0
"250019","img/neutralC/CFD-BM-001-014-N.jpg","0","k","1.37747840004158",1,2,0,2,0
"250019","img/neutralC/CFD-AM-230-150-N.jpg","1","s","1.19701270002406",1,2,0,2,0
"250019","img/neutralC/CFD-MF-335-002-N.jpg","0","s","1.64712100001634",1,2,0,2,0
"250019","img/neutralC/CFD-BM-247-240-N.jpg","0","s","1.80918560002465",1,2,0,2,0
"250019","img/neutralC/CFD-WM-253-119-N.jpg","0","k","1.15824760004762",1,2,0,2,0
"250019","img/neutralC/CFD-LM-218-183-N.jpg","0","k","1.62963370000944",1,2,0,2,0
"250019","img/neutralC/CFD-WF-209-052-N.jpg","1","k","1.4414386000426",1,2,0,2,0
"250019","img/neutralC/CFD-IM-675-015-N.jpg","1","s","1.3218721000303",1,2,0,2,0
"250019","img/neutralC/CFD-BM-013-002-N.jpg","1","k","0.969519000034779",1,2,0,2,0
"250019","img/neutralC/CFD-AM-245-111-N.jpg","1","s","1.38517120003235",1,2,0,2,0
"250019","img/neutralC/CFD-WM-024-015-N.jpg","0","k","1.42427420002059",1,2,0,2,0
"250019","img/neutralC/CFD-BM-250-170-N.jpg","0","s","1.06345760001568",1,2,0,2,0
"250019","img/neutralC/CFD-AF-229-160-N.jpg","1","s","1.35898160000215",1,2,0,2,0
"250019","img/neutralC/CFD-AF-215-70-N.jpg","1","k","1.41718720001518",1,2,0,2,0
"250019","img/neutralC/CFD-WF-007-001-N.jpg","1","s","1.04609100002563",1,2,0,2,0
"250019","img/neutralC/CFD-BF-020-002-N.jpg","0","k","1.05209380004089",1,2,0,2,0
"250019","img/neutralC/CFD-BF-039-031-N.jpg","0","k","1.257582500024",1,2,0,2,0
"250019","img/neutralC/CFD-LF-212-066-N.jpg","1","s","0.972769300045911",1,2,0,2,0
"250019","img/neutralC/CFD-WF-226-095-N.jpg","0","s","1.43207500001881",1,2,0,2,0
"250019","img/neutralC/CFD-WF-238-023-N.jpg","0","k","1.29961230003391",1,2,0,2,0
"250019","img/neutralC/CFD-LM-200-045-N.jpg","0","k","1.19706750003388",1,2,0,2,0
"250019","img/neutralC/CFD-LF-208-127-N.jpg","0","s","1.5014965000446",1,2,0,2,0
"250019","img/neutralC/CFD-BF-232-187-N.jpg","0","s","1.14929400003166",1,2,0,2,0
"250019","img/neutralC/CFD-AM-235-241-N.jpg","0","k","0.908796400035499",1,2,0,2,0
"250019","img/neutralC/CFD-IM-615-167-N.jpg","1","k","1.12263210001402",1,3,0,2,0
"250019","img/neutralC/CFD-BF-042-026-N.jpg","0","k","0.986265600047773",1,3,0,2,0
"250019","img/neutralC/CFD-LF-236-221-N.jpg","1","k","1.32558320002863",1,3,0,2,0
"250019","img/neutralC/CFD-AF-202-122-N.jpg","1","s","1.05208040002617",1,3,0,2,0
"250019","img/neutralC/CFD-BF-006-017-N.jpg","0","k","0.994178700027987",1,3,0,2,0
"250019","img/neutralC/CFD-LF-250-169-N.jpg","1","s","1.41831280000042",1,3,0,2,0
"250019","img/neutralC/CFD-IM-702-101-N.jpg","0","s","2.0033381000394",1,3,0,2,0
"250019","img/neutralC/CFD-MF-302-027-N.jpg","1","k","1.60769880004227",1,3,0,2,0
"250019","img/neutralC/CFD-MF-337-026-N.jpg","0","s","1.49658830004046",1,3,0,2,0
"250019","img/neutralC/CFD-BF-222-240-N.jpg","1","k","1.31370940004126",1,3,0,2,0
"250019","img/neutralC/CFD-LF-247-051-N.jpg","0","s","1.6264776000171",1,3,0,2,0
"250019","img/neutralC/CFD-BM-215-155-N.jpg","0","s","1.51097120004124",1,3,0,2,0
"250019","img/neutralC/CFD-LF-238-154-N.jpg","1","s","2.70390580000822",1,3,0,2,0
"250019","img/neutralC/CFD-BF-254-201-N.jpg","1","k","1.35132820002036",1,3,0,2,0
"250019","img/neutralC/CFD-BM-225-154-N.jpg","0","s","1.70998010004405",1,3,0,2,0
"250019","img/neutralC/CFD-LM-233-171-N.jpg","0","s","1.74710630002664",1,3,0,2,0
"250019","img/neutralC/CFD-BF-214-308-N.jpg","1","k","1.14113630002248",1,3,0,2,0
"250019","img/neutralC/CFD-LM-253-075-N.jpg","0","k","1.27872370003024",1,3,0,2,0
"250019","img/neutralC/CFD-BF-253-202-N.jpg","0","s","1.21675740001956",1,3,0,2,0
"250019","img/neutralC/CFD-AF-206-079-N.jpg","0","k","1.10939120003604",1,3,0,2,0
"250019","img/neutralC/CFD-LF-218-072-N.jpg","1","s","1.12518570004613",1,3,0,2,0
"250019","img/neutralC/CFD-LM-214-165-N.jpg","0","s","1.45553690002998",1,3,0,2,0
"250019","img/neutralC/CFD-IM-604-014-N.jpg","1","k","0.956206900038524",1,3,0,2,0
"250019","img/neutralC/CFD-IM-616-214-N.jpg","0","k","1.08765240001958",1,3,0,2,0
"250019","img/neutralC/CFD-BM-021-021-N.jpg","0","k","1.54399560001912",1,3,0,2,0
"250019","img/neutralC/CFD-WM-237-052-N.jpg","0","s","1.41362510004546",1,3,0,2,0
"250019","img/neutralC/CFD-BM-243-218-N.jpg","0","k","1.77865300001577",1,3,0,2,0
"250019","img/neutralC/CFD-WM-041-021-N.jpg","0","k","1.26853560004383",1,3,0,2,0
"250019","img/neutralC/CFD-LF-230-203-N.jpg","0","s","1.88910260002012",1,3,0,2,0
"250019","img/neutralC/CFD-MF-343-001-N.jpg","1","s","1.79020170000149",1,3,0,2,0
"250019","img/neutralC/CFD-AM-244-222-N.jpg","1","k","1.14433340000687",1,3,0,2,0
"250019","img/neutralC/CFD-IM-719-221-N.jpg","1","s","0.83574440004304",1,3,0,2,0
"250019","img/neutralC/CFD-WF-018-017-N.jpg","1","s","2.30417440002202",1,3,0,2,0
"250019","img/neutralC/CFD-WF-241-210-N.jpg","0","s","1.92786590001197",1,3,0,2,0
"250019","img/neutralC/CFD-WM-002-009-N.jpg","0","s","1.5118062000256",1,3,0,2,0
"250019","img/neutralC/CFD-IF-608-390-N.jpg","0","s","1.94892250004341",1,3,0,2,0
"250019","img/neutralC/CFD-IM-646-023-N.jpg","1","k","1.40644400002202",1,3,0,2,0
"250019","img/neutralC/CFD-BM-241-235-N.jpg","0","k","1.34519180003554",1,3,0,2,0
"250019","img/neutralC/CFD-LM-215-247-N.jpg","0","k","1.83484710004996",1,3,0,2,0
"250019","img/neutralC/CFD-IF-676-017-N.jpg","0","s","1.65532810002333",1,3,0,2,0
"250019","img/neutralC/CFD-LF-210-220-N.jpg","1","k","1.2727273000055",1,3,0,2,0
"250019","img/neutralC/CFD-WF-223-133-N.jpg","0","k","1.14632930004154",1,3,0,2,0
"250019","img/neutralC/CFD-IF-629-234-N.jpg","0","k","1.24041320002289",1,3,0,2,0
"250019","img/neutralC/CFD-IM-697-015-N.jpg","1","k","1.03417330002412",1,3,0,2,0
"250019","img/neutralC/CFD-BM-019-002-N.jpg","0","s","1.25480760002392",1,3,0,2,0
"250019","img/neutralC/CFD-WF-222-092-N.jpg","1","s","1.02463400003035",1,3,0,2,0
"250019","img/neutralC/CFD-IF-620-218-N.jpg","0","k","1.08256670003175",1,3,0,2,0
"250019","img/neutralC/CFD-IM-637-007-N.jpg","0","k","1.09491970003",1,3,0,2,0
"250019","img/neutralC/CFD-AF-210-050-N.jpg","1","s","1.31500870001037",1,4,0,2,0
"250019","img/neutralC/CFD-BM-200-046-N.jpg","1","k","1.22149740002351",1,4,0,2,0
"250019","img/neutralC/CFD-BM-211-174-N.jpg","1","s","1.4089066000306",1,4,0,2,0
"250019","img/neutralC/CFD-AM-249-163-N.jpg","1","s","1.33830620002118",1,4,0,2,0
"250019","img/neutralC/CFD-IF-650-315-N.jpg","1","k","1.36796660002437",1,4,0,2,0
"250019","img/neutralC/CFD-WM-025-002-N.jpg","0","k","1.37734250002541",1,4,0,2,0
"250019","img/neutralC/CFD-LM-225-130-N.jpg","1","k","1.53680120003992",1,4,0,2,0
"250019","img/neutralC/CFD-IM-685-004-N.jpg","1","k","1.59199030001764",1,4,0,2,0
"250019","img/neutralC/CFD-IF-742-103-N.jpg","0","s","1.72553560003871",1,4,0,2,0
"250019","img/neutralC/CFD-WF-009-001-N.jpg","0","k","1.12494190002326",1,4,0,2,0
"250019","img/neutralC/CFD-MF-316-001-N.jpg","1","k","1.11934490004205",1,4,0,2,0
"250019","img/neutralC/CFD-BM-033-003-N.jpg","1","k","1.56516530000954",1,4,0,2,0
"250019","img/neutralC/CFD-MF-342-022-N.jpg","1","s","1.82650950003881",1,4,0,2,0
"250019","img/neutralC/CFD-IM-648-337-N.jpg","1","k","0.99796960002277",1,4,0,2,0
"250019","img/neutralC/CFD-IM-706-002-N.jpg","0","s","1.597657300008",1,4,0,2,0
"250019","img/neutralC/CFD-BM-212-117-N.jpg","0","s","1.99127980004414",1,4,0,2,0
"250019","img/neutralC/CFD-IM-727-195-N.jpg","1","k","1.65807730003144",1,4,0,2,0
"250019","img/neutralC/CFD-AM-201-076-N.jpg","0","s","1.29477800003951",1,4,0,2,0
"250019","img/neutralC/CFD-LF-205-100-N.jpg","1","k","1.27152700003353",1,4,0,2,0
"250019","img/neutralC/CFD-AM-205-153-N.jpg","0","s","1.14651650004089",1,4,0,2,0
"250019","img/neutralC/CFD-BM-248-128-N.jpg","0","s","1.09213340003043",1,4,0,2,0
"250019","img/neutralC/CFD-IF-729-393-N.jpg","0","s","1.28319180003018",1,4,0,2,0
"250019","img/neutralC/CFD-WM-232-070-N.jpg","0","s","1.35668410002836",1,4,0,2,0
"250019","img/neutralC/CFD-WF-012-002-N.jpg","0","k","1.34403380003641",1,4,0,2,0
"250019","img/neutralC/CFD-MF-357-002-N.jpg","0","k","1.16606880002655",1,4,0,2,0
"250019","img/neutralC/CFD-WM-257-161-N.jpg","1","k","1.47040650004055",1,4,0,2,0
"250019","img/neutralC/CFD-WM-026-001-N.jpg","1","k","1.93669170004432",1,4,0,2,0
"250019","img/neutralC/CFD-IM-709-103-N.jpg","0","s","1.08657170002698",1,4,0,2,0
"250019","img/neutralC/CFD-IF-732-260-N.jpg","1","k","1.34583840004052",1,4,0,2,0
"250019","img/neutralC/CFD-AM-243-212-N.jpg","0","s","1.0172749000194",1,4,0,2,0
"250019","img/neutralC/CFD-MF-327-002-N.jpg","1","s","1.78026110000792",1,4,0,2,0
"250019","img/neutralC/CFD-WM-040-022-N.jpg","0","k","0.95325820002472",1,4,0,2,0
"250019","img/neutralC/CFD-WF-214-122-N.jpg","1","s","1.08552030002465",1,4,0,2,0
"250019","img/neutralC/CFD-WF-248-129-N.jpg","1","k","0.981967800034909",1,4,0,2,0
"250019","img/neutralC/CFD-BF-206-143-N.jpg","0","s","0.733096000010846",1,4,0,2,0
"250019","img/neutralC/CFD-WF-210-086-N.jpg","0","s","1.22940940002445",1,4,0,2,0
"250019","img/neutralC/CFD-BF-224-002-N.jpg","1","s","1.43132440003683",1,4,0,2,0
"250019","img/neutralC/CFD-AF-241-141-N.jpg","1","k","0.674998600006802",1,4,0,2,0
"250019","img/neutralC/CFD-MF-312-002-N.jpg","1","s","1.18562360003125",1,4,0,2,0
"250019","img/neutralC/CFD-MF-329-001-N.jpg","1","k","1.46964190003928",1,4,0,2,0
"250019","img/neutralC/CFD-IM-721-341-N.jpg","1","k","1.44443150004372",1,4,0,2,0
"250019","img/neutralC/CFD-BF-029-031-N.jpg","0","s","1.15085730003193",1,4,0,2,0
"250019","img/neutralC/CFD-BM-204-003-N.jpg","0","s","1.44626470003277",1,4,0,2,0
"250019","img/neutralC/CFD-LF-226-174-N.jpg","1","k","1.68607250001514",1,4,0,2,0
"250019","img/neutralC/CFD-BF-213-188-N.jpg","1","s","1.00517900002887",1,4,0,2,0
"250019","img/neutralC/CFD-LF-220-120-N.jpg","1","s","1.59417630001553",1,4,0,2,0
"250019","img/neutralC/CFD-IM-653-008-N.jpg","1","k","1.7168626000057",1,4,0,2,0
"250019","img/neutralC/CFD-MF-303-013-N.jpg","1","k","1.12325970001984",1,4,0,2,0
"250019","img/neutralC/CFD-BF-033-028-N.jpg","0","k","1.23616220001713",1,5,0,2,0
"250019","img/neutralC/CFD-WF-008-002-N.jpg","1","s","2.0790836000233",1,5,0,2,0
"250019","img/neutralC/CFD-BF-208-266-N.jpg","0","k","1.51865190002718",1,5,0,2,0
"250019","img/neutralC/CFD-WF-026-002-N.jpg","0","k","1.56794830004219",1,5,0,2,0
"250019","img/neutralC/CFD-BF-038-037-N.jpg","1","s","0.913144900026964",1,5,0,2,0
"250019","img/neutralC/CFD-WM-255-219-N.jpg","0","k","1.38963420002256",1,5,0,2,0
"250019","img/neutralC/CFD-AM-251-124-N.jpg","0","k","1.8721535000368",1,5,0,2,0
"250019","img/neutralC/CFD-BM-039-029-N.jpg","1","s","1.48460520000663",1,5,0,2,0
"250019","img/neutralC/CFD-AF-232-078-N.jpg","0","k","1.26739270004327",1,5,0,2,0
"250019","img/neutralC/CFD-WM-038-003-N.jpg","0","k","1.40281150001101",1,5,0,2,0
"250019","img/neutralC/CFD-AF-244-168-N.jpg","1","k","1.0095183000376",1,5,0,2,0
"250019","img/neutralC/CFD-BF-238-190-N.jpg","0","s","1.39780190002057",1,5,0,2,0
"250019","img/neutralC/CFD-IM-680-369-N.jpg","1","s","1.07795320003061",1,5,0,2,0
"250019","img/neutralC/CFD-BF-018-039-N.jpg","0","s","1.11612780002179",1,5,0,2,0
"250019","img/neutralC/CFD-LF-241-188-N.jpg","1","k","0.960077800031286",1,5,0,2,0
"250019","img/neutralC/CFD-IM-659-359-N.jpg","1","k","1.32348400005139",1,5,0,2,0
"250019","img/neutralC/CFD-WM-202-107-N.jpg","0","s","1.65576950000832",1,5,0,2,0
"250019","img/neutralC/CFD-BF-003-003-N.jpg","0","s","0.930082400038373",1,5,0,2,0
"250019","img/neutralC/CFD-AF-227-207-N.jpg","0","k","1.3940464000334",1,5,0,2,0
"250019","img/neutralC/CFD-BF-255-140-N.jpg","0","k","1.24589470002684",1,5,0,2,0
"250019","img/neutralC/CFD-BF-025-002-N.jpg","1","k","1.21186120004859",1,5,0,2,0
"250019","img/neutralC/CFD-WM-258-125-N.jpg","1","k","1.66402750002453",1,5,0,2,0
"250019","img/neutralC/CFD-MM-321-021-N.jpg","0","k","0.757272100017872",1,5,0,2,0
"250019","img/neutralC/CFD-BM-005-003-N.jpg","0","s","0.826282700028969",1,5,0,2,0
"250019","img/neutralC/CFD-LM-204-001-N.jpg","0","k","0.829029300017282",1,5,0,2,0
"250019","img/neutralC/CFD-LM-216-082-N.jpg","1","k","1.48884550001821",1,5,0,2,0
"250019","img/neutralC/CFD-BF-045-003-N.jpg","1","s","1.26869330002228",1,5,0,2,0
"250019","img/neutralC/CFD-IM-639-263-N.jpg","1","s","1.36407330003567",1,5,0,2,0
"250019","img/neutralC/CFD-LF-206-078-N.jpg","1","s","1.51584630002617",1,5,0,2,0
"250019","img/neutralC/CFD-IM-701-312-N.jpg","1","k","0.867809300019871",1,5,0,2,0
"250019","img/neutralC/CFD-WM-213-076-N.jpg","0","s","1.59318970001186",1,5,0,2,0
"250019","img/neutralC/CFD-IF-677-452-1-N.jpg","1","s","1.05508730001748",1,5,0,2,0
"250019","img/neutralC/CFD-BF-004-014-N.jpg","1","k","0.730296100024134",1,5,0,2,0
"250019","img/neutralC/CFD-LM-217-162-N.jpg","0","s","1.12005970004248",1,5,0,2,0
"250019","img/neutralC/CFD-AM-212-050-N.jpg","1","s","1.25581460003741",1,5,0,2,0
"250019","img/neutralC/CFD-AM-242-176-N.jpg","0","s","1.36794490000466",1,5,0,2,0
"250019","img/neutralC/CFD-AM-225-102-N.jpg","1","k","1.09010380003019",1,5,0,2,0
"250019","img/neutralC/CFD-MM-316-156-N.jpg","0","k","0.774742600042373",1,5,0,2,0
"250019","img/neutralC/CFD-IM-738-191-N.jpg","0","k","0.77307910003583",1,5,0,2,0
"250019","img/neutralC/CFD-WM-014-002-N.jpg","0","k","1.18831590001355",1,5,0,2,0
"250019","img/neutralC/CFD-LF-255-088-N.jpg","1","k","1.34775090002222",1,5,0,2,0
"250019","img/neutralC/CFD-AF-213-126-N.jpg","0","s","1.42321200002334",1,5,0,2,0
"250019","img/neutralC/CFD-WF-036-023-N.jpg","1","k","1.03340090002166",1,5,0,2,0
"250019","img/neutralC/CFD-IF-673-389-N.jpg","1","k","1.18690120003885",1,5,0,2,0
"250019","img/neutralC/CFD-BM-251-013-N.jpg","0","s","0.837857500038808",1,5,0,2,0
"250019","img/neutralC/CFD-WM-254-152-N.jpg","1","s","1.38766930002021",1,5,0,2,0
"250019","img/neutralC/CFD-WM-209-038-N.jpg","0","s","1.13266170001589",1,5,0,2,0
"250019","img/neutralC/CFD-BF-027-002-N.jpg","1","k","0.75475400002324",1,5,0,2,0
"250019","img/neutralC/CFD-IF-710-016-N.jpg","1","s","0.900061600026675",1,6,0,2,0
"250019","img/neutralC/CFD-IM-667-369-N.jpg","1","s","2.12581030002912",1,6,0,2,0
"250019","img/neutralC/CFD-IM-651-308-N.jpg","1","s","0.879038800019771",1,6,0,2,0
"250019","img/neutralC/CFD-IF-672-305-N.jpg","1","k","1.01200450002216",1,6,0,2,0
"250019","img/neutralC/CFD-BM-036-003-N.jpg","0","s","1.5486227000365",1,6,0,2,0
"250019","img/neutralC/CFD-LM-213-061-N.jpg","0","k","1.68422070002998",1,6,0,2,0
"250019","img/neutralC/CFD-BM-015-015-N.jpg","0","k","1.16667340003187",1,6,0,2,0
"250019","img/neutralC/CFD-WM-019-003-N.jpg","0","s","1.25573940001777",1,6,0,2,0
"250019","img/neutralC/CFD-WF-023-003-N.jpg","0","k","1.6130409000325",1,6,0,2,0
"250019","img/neutralC/CFD-IM-627-178-N.jpg","0","k","1.16406030004146",1,6,0,2,0
"250019","img/neutralC/CFD-MM-306-010-N.jpg","0","k","0.968621800042456",1,6,0,2,0
"250019","img/neutralC/CFD-MM-319-052-N.jpg","1","s","1.4510490000248",1,6,0,2,0
"250019","img/neutralC/CFD-BM-030-003-N.jpg","1","k","1.38023130001966",1,6,0,2,0
"250019","img/neutralC/CFD-BM-026-002-N.jpg","0","k","1.23948610003572",1,6,0,2,0
"250019","img/neutralC/CFD-BM-217-082-N.jpg","0","s","0.859090300044045",1,6,0,2,0
"250019","img/neutralC/CFD-IF-693-172-N.jpg","1","s","1.27241309999954",1,6,0,2,0
"250019","img/neutralC/CFD-BF-051-035-N.jpg","0","s","0.906407700036652",1,6,0,2,0
"250019","img/neutralC/CFD-WF-208-068-N.jpg","1","k","0.973433300037868",1,6,0,2,0
"250019","img/neutralC/CFD-IM-664-651-N.jpg","1","k","1.39872450003168",1,6,0,2,0
"250019","img/neutralC/CFD-WF-240-083-N.jpg","1","k","0.990759600012098",1,6,0,2,0
"250019","img/neutralC/CFD-LM-237-264-N.jpg","0","k","0.98770220001461",1,6,0,2,0
"250019","img/neutralC/CFD-WM-219-008-N.jpg","0","k","0.838816700037569",1,6,0,2,0
"250019","img/neutralC/CFD-BM-003-003-N.jpg","1","s","1.36625260001165",1,6,0,2,0
"250019","img/neutralC/CFD-WM-248-036-N.jpg","0","k","0.685366700025043",1,6,0,2,0
"250019","img/neutralC/CFD-MF-313-002-N.jpg","1","k","1.53513070000918",1,6,0,2,0
"250019","img/neutralC/CFD-IM-669-111-N.jpg","0","k","1.5588843000005",1,6,0,2,0
"250019","img/neutralC/CFD-LF-224-176-N.jpg","0","s","1.24262430000817",1,6,0,2,0
"250019","img/neutralC/CFD-MF-321-003-N.jpg","1","k","1.30388310001581",1,6,0,2,0
"250019","img/neutralC/CFD-WM-228-065-N.jpg","0","k","1.27119360002689",1,6,0,2,0
"250019","img/neutralC/CFD-WF-200-099-N.jpg","1","s","1.29300490004243",1,6,0,2,0
"250019","img/neutralC/CFD-AM-211-052-N.jpg","0","s","0.946573500026716",1,6,0,2,0
"250019","img/neutralC/CFD-WM-015-002-N.jpg","0","s","1.00622960002511",1,6,0,2,0
"250019","img/neutralC/CFD-AF-250-200-N.jpg","1","k","0.834056400024565",1,6,0,2,0
"250019","img/neutralC/CFD-WF-033-002-N.jpg","0","s","1.00050340004964",1,6,0,2,0
"250019","img/neutralC/CFD-LM-241-125-N.jpg","1","k","0.995835000037914",1,6,0,2,0
"250019","img/neutralC/CFD-WM-242-011-N.jpg","0","s","1.29932070002542",1,6,0,2,0
"250019","img/neutralC/CFD-BM-023-029-N.jpg","1","k","0.797537400037982",1,6,0,2,0
"250019","img/neutralC/CFD-WM-009-002-N.jpg","0","k","1.83340000003227",1,6,0,2,0
"250019","img/neutralC/CFD-WM-017-002-N.jpg","1","s","1.59688570004073",1,6,0,2,0
"250019","img/neutralC/CFD-BF-218-207-N.jpg","1","s","1.17185770001379",1,6,0,2,0
"250019","img/neutralC/CFD-IF-718-001-N.jpg","1","s","1.54329560001497",1,6,0,2,0
"250019","img/neutralC/CFD-IM-689-263-N.jpg","0","s","1.30097810004372",1,6,0,2,0
"250019","img/neutralC/CFD-BF-043-003-N.jpg","0","k","0.953484100027708",1,6,0,2,0
"250019","img/neutralC/CFD-IF-665-015-N.jpg","1","k","1.46876970000449",1,6,0,2,0
"250019","img/neutralC/CFD-AF-239-171-N.jpg","0","s","1.4436991000257",1,6,0,2,0
"250019","img/neutralC/CFD-BM-207-024-N.jpg","0","k","1.14377430002787",1,6,0,2,0
"250019","img/neutralC/CFD-BF-044-034-N.jpg","1","s","1.29428620002",1,6,0,2,0
"250019","img/neutralC/CFD-IF-634-382-N.jpg","0","k","1.0108008000243",1,6,0,2,0
"250019","img/neutralC/CFD-AF-246-242-N.jpg","1","k","0.773821800015867",1,7,0,2,0
"250019","img/neutralC/CFD-IM-707-105-N.jpg","1","s","1.21190570000908",1,7,0,2,0
"250019","img/neutralC/CFD-WM-020-001-N.jpg","0","k","0.924060100020142",1,7,0,2,0
"250019","img/neutralC/CFD-MM-304-002-N.jpg","0","k","1.76507890003268",1,7,0,2,0
"250019","img/neutralC/CFD-LM-247-095-N.jpg","0","s","1.43879970000125",1,7,0,2,0
"250019","img/neutralC/CFD-WM-034-030-N.jpg","1","s","1.49758310001926",1,7,0,2,0
"250019","img/neutralC/CFD-LF-245-166-N.jpg","1","k","0.908590800012462",1,7,0,2,0
"250019","img/neutralC/CFD-MF-307-002-N.jpg","0","k","1.09479350002948",1,7,0,2,0
"250019","img/neutralC/CFD-LF-204-133-N.jpg","0","k","1.24088300004951",1,7,0,2,0
"250019","img/neutralC/CFD-IM-700-009-N.jpg","1","s","0.891288200014969",1,7,0,2,0
"250019","img/neutralC/CFD-BM-213-134-N.jpg","0","k","0.91508520001662",1,7,0,2,0
"250019","img/neutralC/CFD-MF-300-002-N.jpg","0","k","1.34669880004367",1,7,0,2,0
"250019","img/neutralC/CFD-WM-012-001-N.jpg","0","s","0.992562500032364",1,7,0,2,0
"250019","img/neutralC/CFD-BM-253-004-N.jpg","1","k","0.98927220000769",1,7,0,2,0
"250019","img/neutralC/CFD-BM-238-242-N.jpg","0","s","1.06396080000559",1,7,0,2,0
"250019","img/neutralC/CFD-BM-239-136-N.jpg","1","s","1.45189950003987",1,7,0,2,0
"250019","img/neutralC/CFD-LF-225-164-N.jpg","1","k","1.6567892000312",1,7,0,2,0
"250019","img/neutralC/CFD-IF-660-464-N.jpg","1","k","1.10328260000097",1,7,0,2,0
"250019","img/neutralC/CFD-WM-227-099-N.jpg","0","s","1.05692780003301",1,7,0,2,0
"250019","img/neutralC/CFD-WM-023-001-N.jpg","0","k","0.880551500013098",1,7,0,2,0
"250019","img/neutralC/CFD-IM-671-601-N.jpg","0","s","1.63915220001945",1,7,0,2,0
"250019","img/neutralC/CFD-WM-212-097-N.jpg","0","k","0.779632900026627",1,7,0,2,0
"250019","img/neutralC/CFD-WM-215-041-N.jpg","0","k","1.24614570004633",1,7,0,2,0
"250019","img/neutralC/CFD-BF-012-001-N.jpg","1","k","1.18506590003381",1,7,0,2,0
"250019","img/neutralC/CFD-AF-253-130-N.jpg","1","k","1.21533450001152",1,7,0,2,0
"250019","img/neutralC/CFD-BM-227-191-N.jpg","1","s","1.83005700001377",1,7,0,2,0
"250019","img/neutralC/CFD-WF-244-163-N.jpg","1","k","1.37399150000419",1,7,0,2,0
"250019","img/neutralC/CFD-WM-004-010-N.jpg","1","s","1.29402020000271",1,7,0,2,0
"250019","img/neutralC/CFD-WF-001-003-N.jpg","1","s","1.14410970002064",1,7,0,2,0
"250019","img/neutralC/CFD-WF-030-002-N.jpg","0","s","1.3055012000259",1,7,0,2,0
"250019","img/neutralC/CFD-IM-674-281-N.jpg","0","s","1.34359250002308",1,7,0,2,0
"250019","img/neutralC/CFD-IM-632-097-N.jpg","0","s","1.42946570002823",1,7,0,2,0
"250019","img/neutralC/CFD-IM-657-308-N.jpg","0","k","1.41471370001091",1,7,0,2,0
"250019","img/neutralC/CFD-WF-250-167-N.jpg","1","s","1.05762610002421",1,7,0,2,0
"250019","img/neutralC/CFD-WF-233-112-N.jpg","0","k","1.41101170002366",1,7,0,2,0
"250019","img/neutralC/CFD-BM-020-001-N.jpg","0","k","1.34971370000858",1,7,0,2,0
"250019","img/neutralC/CFD-BM-009-002-N.jpg","1","s","1.08247880000272",1,7,0,2,0
"250019","img/neutralC/CFD-MF-305-014-N.jpg","0","s","1.53638000000501",1,7,0,2,0
"250019","img/neutralC/CFD-WF-234-086-N.jpg","1","s","0.973034600028768",1,7,0,2,0
"250019","img/neutralC/CFD-WF-213-031-N.jpg","1","s","1.71870490003494",1,7,0,2,0
"250019","img/neutralC/CFD-IF-744-114-N.jpg","0","k","1.42082100003609",1,7,0,2,0
"250019","img/neutralC/CFD-BF-205-141-N.jpg","1","k","1.03978970003664",1,7,0,2,0
"250019","img/neutralC/CFD-BM-004-002-N.jpg","0","k","1.49714710001717",1,7,0,2,0
"250019","img/neutralC/CFD-WM-033-025-N.jpg","0","s","1.165022900037",1,7,0,2,0
"250019","img/neutralC/CFD-IM-617-174-N.jpg","0","k","1.06728300004033",1,7,0,2,0
"250019","img/neutralC/CFD-AM-219-101-N.jpg","0","s","1.59348210002645",1,7,0,2,0
"250019","img/neutralC/CFD-WM-028-003-N.jpg","0","k","1.41325390004204",1,7,0,2,0
"250019","img/neutralC/CFD-AM-233-236-N.jpg","0","k","1.31099400002859",1,7,0,2,0
"250019","img/neutralC/CFD-LM-201-057-N.jpg","0","k","1.0773346000351",1,8,0,2,0
"250019","img/neutralC/CFD-LM-228-188-N.jpg","0","s","1.34905870002694",1,8,0,2,0
"250019","img/neutralC/CFD-MM-317-061-N.jpg","0","s","1.10347360002925",1,8,0,2,0
"250019","img/neutralC/CFD-IM-686-097-N.jpg","0","k","0.874599400005536",1,8,0,2,0
"250019","img/neutralC/CFD-BF-011-002-N.jpg","1","k","1.12759740001638",1,8,0,2,0
"250019","img/neutralC/CFD-BF-244-231-N.jpg","0","s","0.858502800023416",1,8,0,2,0
"250019","img/neutralC/CFD-IM-678-482-N.jpg","0","k","1.768867100036",1,8,0,2,0
"250019","img/neutralC/CFD-MF-333-012-N.jpg","1","s","1.57406890002312",1,8,0,2,0
"250019","img/neutralC/CFD-AM-215-120-N.jpg","1","s","1.69666920002783",1,8,0,2,0
"250019","img/neutralC/CFD-MF-352-054-N.jpg","1","k","1.47706770000514",1,8,0,2,0
"250019","img/neutralC/CFD-BF-247-179-N.jpg","0","k","1.75996680004755",1,8,0,2,0
"250019","img/neutralC/CFD-WF-217-085-N.jpg","1","s","1.1264499000099",1,8,0,2,0
"250019","img/neutralC/CFD-AM-217-085-N.jpg","0","k","0.969043500052066",1,8,0,2,0
"250019","img/neutralC/CFD-BM-041-035-N.jpg","0","k","2.29441490001045",1,8,0,2,0
"250019","img/neutralC/CFD-BF-204-189-N.jpg","1","s","1.1047495000239",1,8,0,2,0
"250019","img/neutralC/CFD-BM-028-002-N.jpg","1","k","1.31280560002779",1,8,0,2,0
"250019","img/neutralC/CFD-IF-619-197-N.jpg","1","k","1.4995480000216",1,8,0,2,0
"250019","img/neutralC/CFD-BF-023-010-N.jpg","1","k","1.17885640001623",1,8,0,2,0
"250019","img/neutralC/CFD-BM-205-001-N.jpg","0","k","1.49898360000225",1,8,0,2,0
"250019","img/neutralC/CFD-WM-013-001-N.jpg","0","s","1.90328390002833",1,8,0,2,0
"250019","img/neutralC/CFD-BF-036-027-N.jpg","1","s","1.23521840004832",1,8,0,2,0
"250019","img/neutralC/CFD-WF-212-050-N.jpg","0","k","1.39256500001648",1,8,0,2,0
"250019","img/neutralC/CFD-AF-234-208-N.jpg","1","s","2.04713660001289",1,8,0,2,0
"250019","img/neutralC/CFD-IF-623-129-N.jpg","1","s","3.049851400021",1,8,0,2,0
"250019","img/neutralC/CFD-AF-231-357-N.jpg","1","k","0.973825800028862",1,8,0,2,0
"250019","img/neutralC/CFD-BF-228-212-N.jpg","1","s","1.20826360004139",1,8,0,2,0
"250019","img/neutralC/CFD-LF-201-035-N.jpg","0","k","1.37715300003765",1,8,0,2,0
"250019","img/neutralC/CFD-MM-324-069-N.jpg","0","k","2.20231900000363",1,8,0,2,0
"250019","img/neutralC/CFD-WM-235-147-N.jpg","0","k","0.996522700035712",1,8,0,2,0
"250019","img/neutralC/CFD-BM-043-071-N.jpg","0","s","1.67059400002472",1,8,0,2,0
"250019","img/neutralC/CFD-IM-645-001-N.jpg","0","s","0.932884800015017",1,8,0,2,0
"250019","img/neutralC/CFD-WM-218-074-N.jpg","0","s","1.85384530000738",1,8,0,2,0
"250019","img/neutralC/CFD-LF-216-121-N.jpg","1","s","1.18307000002824",1,8,0,2,0
"250019","img/neutralC/CFD-LM-240-013-N.jpg","1","k","1.00639110003249",1,8,0,2,0
"250019","img/neutralC/CFD-LF-215-157-N.jpg","1","s","1.72391480000806",1,8,0,2,0
"250019","img/neutralC/CFD-MF-359-019-N.jpg","0","k","1.20351720001781",1,8,0,2,0
"250019","img/neutralC/CFD-IF-626-375-N.jpg","1","k","1.24189450000995",1,8,0,2,0
"250019","img/neutralC/CFD-IF-636-011-N.jpg","1","k","1.09322440001415",1,8,0,2,0
"250019","img/neutralC/CFD-WF-017-003-N.jpg","1","s","1.17472380003892",1,8,0,2,0
"250019","img/neutralC/CFD-IM-726-248-N.jpg","1","k","1.60500250002951",1,8,0,2,0
"250019","img/neutralC/CFD-BF-229-179-N.jpg","1","k","1.6229584000248",1,8,0,2,0
"250019","img/neutralC/CFD-IM-728-041-N.jpg","0","s","1.87033580004936",1,8,0,2,0
"250019","img/neutralC/CFD-BM-231-155-N.jpg","0","k","1.11859470003401",1,8,0,2,0
"250019","img/neutralC/CFD-BF-235-168-N.jpg","1","s","2.11019910001778",1,8,0,2,0
"250019","img/neutralC/CFD-WM-011-002-N.jpg","1","k","1.49905020004371",1,8,0,2,0
"250019","img/neutralC/CFD-WF-022-017-N.jpg","1","s","1.65797100003692",1,8,0,2,0
"250019","img/neutralC/CFD-BF-040-003-N.jpg","1","s","0.807776600006036",1,8,0,2,0
"250019","img/neutralC/CFD-WM-201-063-N.jpg","1","s","1.97127420001198",1,8,0,2,0
