"participant_id","face","surpAcc","memory_surp_responses","memory_surp_rt","keep_surp_memory_trial_based_on_rt","surp_block_num","exclude_block","number_of_surp_resp_items_used","num_blocks_excluded"
"250009","img/neutralC/CFD-WF-207-014-N.jpg","0","s","1.8587965000188",1,1,0,2,0
"250009","img/neutralC/CFD-WF-221-005-N.jpg","0","k","1.86043650005013",1,1,0,2,0
"250009","img/neutralC/CFD-WF-002-004-N.jpg","1","k","1.05892350000795",1,1,0,2,0
"250009","img/neutralC/CFD-AM-220-134-N.jpg","1","s","1.53798309992999",1,1,0,2,0
"250009","img/neutralC/CFD-BM-010-003-N.jpg","1","s","1.88360980001744",1,1,0,2,0
"250009","img/neutralC/CFD-BM-027-001-N.jpg","1","k","2.63058700005058",1,1,0,2,0
"250009","img/neutralC/CFD-WF-027-003-N.jpg","0","s","2.24349340004846",1,1,0,2,0
"250009","img/neutralC/CFD-IM-606-008-N.jpg","1","s","1.61692830000538",1,1,0,2,0
"250009","img/neutralC/CFD-BF-014-002-N.jpg","1","k","2.11664640007075",1,1,0,2,0
"250009","img/neutralC/CFD-IF-625-225-N.jpg","0","k","2.52925690007396",1,1,0,2,0
"250009","img/neutralC/CFD-IM-743-006-N.jpg","1","k","2.67745580000337",1,1,0,2,0
"250009","img/neutralC/CFD-WF-245-084-N.jpg","0","s","1.47136630001478",1,1,0,2,0
"250009","img/neutralC/CFD-BF-236-177-N.jpg","1","k","1.45553499995731",1,1,0,2,0
"250009","img/neutralC/CFD-AF-205-155-N.jpg","1","s","1.56274180009495",1,1,0,2,0
"250009","img/neutralC/CFD-MF-340-026-N.jpg","1","k","1.92233800003305",1,1,0,2,0
"250009","img/neutralC/CFD-BF-217-189-N.jpg","1","k","2.24648119998164",1,1,0,2,0
"250009","img/neutralC/CFD-IM-635-010-N.jpg","1","s","1.89815229992382",1,1,0,2,0
"250009","img/neutralC/CFD-WM-021-001-N.jpg","0","k","3.38879380002618",1,1,0,2,0
"250009","img/neutralC/CFD-MF-328-020-N.jpg","1","k","2.26780269993469",1,1,0,2,0
"250009","img/neutralC/CFD-IM-684-008-N.jpg","1","k","1.24731860007159",1,1,0,2,0
"250009","img/neutralC/CFD-MF-336-016-N.jpg","1","s","1.48759580007754",1,1,0,2,0
"250009","img/neutralC/CFD-BF-207-004-N.jpg","1","s","2.76992359990254",1,1,0,2,0
"250009","img/neutralC/CFD-LF-239-148-N.jpg","1","s","5.2597695000004",1,1,0,2,0
"250009","img/neutralC/CFD-WM-221-091-N.jpg","0","k","3.52913809998427",1,1,0,2,0
"250009","img/neutralC/CFD-LM-244-068-N.jpg","1","k","2.2480337000452",1,1,0,2,0
"250009","img/neutralC/CFD-LF-203-066-N.jpg","1","s","5.27125619992148",1,1,0,2,0
"250009","img/neutralC/CFD-AF-233-190-N.jpg","0","k","1.85570479999296",1,1,0,2,0
"250009","img/neutralC/CFD-AF-254-167-N.jpg","0","s","1.3007321000332",1,1,0,2,0
"250009","img/neutralC/CFD-IF-642-295-N.jpg","1","s","1.48347109998576",1,1,0,2,0
"250009","img/neutralC/CFD-BF-237-172-N.jpg","1","k","1.3733827000251",1,1,0,2,0
"250009","img/neutralC/CFD-LF-242-121-N.jpg","0","s","1.60626719996799",1,1,0,2,0
"250009","img/neutralC/CFD-WF-243-148-N.jpg","0","s","1.44308889994863",1,1,0,2,0
"250009","img/neutralC/CFD-WM-225-127-N.jpg","1","s","4.0233392000664",1,1,0,2,0
"250009","img/neutralC/CFD-BF-201-080-N.jpg","0","k","2.73094739997759",1,1,0,2,0
"250009","img/neutralC/CFD-WF-005-010-N.jpg","1","k","2.17659749998711",1,1,0,2,0
"250009","img/neutralC/CFD-AF-240-206-N.jpg","1","s","1.82390320010018",1,1,0,2,0
"250009","img/neutralC/CFD-WF-029-002-N.jpg","1","s","1.94815820001531",1,1,0,2,0
"250009","img/neutralC/CFD-WF-228-196-N.jpg","0","s","1.92246819997672",1,1,0,2,0
"250009","img/neutralC/CFD-WF-224-099-N.jpg","1","k","1.79237749997992",1,1,0,2,0
"250009","img/neutralC/CFD-BF-041-001-N.jpg","1","k","3.04822969995439",1,1,0,2,0
"250009","img/neutralC/CFD-LM-252-076-N.jpg","1","s","2.65497059992049",1,1,0,2,0
"250009","img/neutralC/CFD-AM-236-090-N.jpg","1","s","2.40173789998516",1,1,0,2,0
"250009","img/neutralC/CFD-WM-249-239-N.jpg","1","k","1.8489569000667",1,1,0,2,0
"250009","img/neutralC/CFD-LF-211-003-N.jpg","0","k","2.37255600001663",1,1,0,2,0
"250009","img/neutralC/CFD-AM-221-184-N.jpg","0","k","2.59187559993006",1,1,0,2,0
"250009","img/neutralC/CFD-BF-202-109-N.jpg","1","s","3.77714649995323",1,1,0,2,0
"250009","img/neutralC/CFD-IM-638-250-1-N.jpg","1","s","1.70660079992376",1,1,0,2,0
"250009","img/neutralC/CFD-BM-029-024-N.jpg","0","s","2.68709640007",1,1,0,2,0
"250009","img/neutralC/CFD-LF-208-127-N.jpg","0","s","2.02305920002982",1,2,0,2,0
"250009","img/neutralC/CFD-BF-212-315-N.jpg","1","s","1.21349669992924",1,2,0,2,0
"250009","img/neutralC/CFD-BM-013-002-N.jpg","1","k","1.12208759994246",1,2,0,2,0
"250009","img/neutralC/CFD-BF-039-031-N.jpg","1","s","1.76632890000474",1,2,0,2,0
"250009","img/neutralC/CFD-BF-002-001-N.jpg","0","k","1.68768360000104",1,2,0,2,0
"250009","img/neutralC/CFD-IM-696-001-N.jpg","1","k","1.4404623999726",1,2,0,2,0
"250009","img/neutralC/CFD-IM-675-015-N.jpg","1","s","0.988780200015754",1,2,0,2,0
"250009","img/neutralC/CFD-MF-309-002-N.jpg","0","k","2.46518780000042",1,2,0,2,0
"250009","img/neutralC/CFD-LM-243-075-N.jpg","1","k","2.07988620002288",1,2,0,2,0
"250009","img/neutralC/CFD-LM-238-129-N.jpg","0","s","2.5255926999962",1,2,0,2,0
"250009","img/neutralC/CFD-LM-226-175-N.jpg","0","k","1.27806079993024",1,2,0,2,0
"250009","img/neutralC/CFD-AM-245-111-N.jpg","1","s","1.865524899913",1,2,0,2,0
"250009","img/neutralC/CFD-BF-226-119-N.jpg","1","k","1.81683349993546",1,2,0,2,0
"250009","img/neutralC/CFD-LF-222-147-N.jpg","0","s","1.53627319994848",1,2,0,2,0
"250009","img/neutralC/CFD-WF-235-121-N.jpg","0","s","1.27792439993937",1,2,0,2,0
"250009","img/neutralC/CFD-WM-006-002-N.jpg","0","k","2.04224599990994",1,2,0,2,0
"250009","img/neutralC/CFD-LF-214-090-N.jpg","1","k","1.18861269997433",1,2,0,2,0
"250009","img/neutralC/CFD-AM-235-241-N.jpg","1","s","1.89460300002247",1,2,0,2,0
"250009","img/neutralC/CFD-MF-335-002-N.jpg","1","k","1.05529509996995",1,2,0,2,0
"250009","img/neutralC/CFD-WF-007-001-N.jpg","0","k","1.03480120003223",1,2,0,2,0
"250009","img/neutralC/CFD-WF-238-023-N.jpg","0","k","1.39284889993723",1,2,0,2,0
"250009","img/neutralC/CFD-WF-006-002-N.jpg","1","s","0.931022000033408",1,2,0,2,0
"250009","img/neutralC/CFD-BF-232-187-N.jpg","1","k","1.02213619998656",1,2,0,2,0
"250009","img/neutralC/CFD-WM-253-119-N.jpg","0","k","1.22738020005636",1,2,0,2,0
"250009","img/neutralC/CFD-AM-230-150-N.jpg","1","s","1.28880760003813",1,2,0,2,0
"250009","img/neutralC/CFD-BM-250-170-N.jpg","0","s","1.81875109998509",1,2,0,2,0
"250009","img/neutralC/CFD-BF-010-001-N.jpg","1","k","1.21327189996373",1,2,0,2,0
"250009","img/neutralC/CFD-AF-221-147-N.jpg","0","s","3.82773530005943",1,2,0,2,0
"250009","img/neutralC/CFD-LF-212-066-N.jpg","1","s","2.80121200007852",1,2,0,2,0
"250009","img/neutralC/CFD-LM-218-183-N.jpg","0","k","1.07727979996707",1,2,0,2,0
"250009","img/neutralC/CFD-WF-226-095-N.jpg","0","s","1.42220999998972",1,2,0,2,0
"250009","img/neutralC/CFD-AF-229-160-N.jpg","1","s","1.44512980000582",1,2,0,2,0
"250009","img/neutralC/CFD-WF-209-052-N.jpg","1","k","1.21706459997222",1,2,0,2,0
"250009","img/neutralC/CFD-BM-247-240-N.jpg","1","k","1.12207789998502",1,2,0,2,0
"250009","img/neutralC/CFD-AF-237-223-N.jpg","0","s","1.28392610000446",1,2,0,2,0
"250009","img/neutralC/CFD-LM-219-295-N.jpg","1","s","1.67787389992736",1,2,0,2,0
"250009","img/neutralC/CFD-BM-018-001-N.jpg","1","k","1.29622829996515",1,2,0,2,0
"250009","img/neutralC/CFD-BF-028-001-N.jpg","0","s","1.50135310005862",1,2,0,2,0
"250009","img/neutralC/CFD-MF-318-022-N.jpg","0","k","2.21649070002604",1,2,0,2,0
"250009","img/neutralC/CFD-BM-001-014-N.jpg","1","s","1.12528699997347",1,2,0,2,0
"250009","img/neutralC/CFD-LM-200-045-N.jpg","0","k","1.63957429991569",1,2,0,2,0
"250009","img/neutralC/CFD-IM-703-182-N.jpg","1","k","1.34662199998274",1,2,0,2,0
"250009","img/neutralC/CFD-AF-215-70-N.jpg","1","k","2.52660989994183",1,2,0,2,0
"250009","img/neutralC/CFD-AM-247-165-N.jpg","1","s","2.38261779991444",1,2,0,2,0
"250009","img/neutralC/CFD-WM-024-015-N.jpg","0","k","1.23407210002188",1,2,0,2,0
"250009","img/neutralC/CFD-MF-301-024-N.jpg","0","s","1.72188910003752",1,2,0,2,0
"250009","img/neutralC/CFD-WM-018-002-N.jpg","0","s","2.03767420002259",1,2,0,2,0
"250009","img/neutralC/CFD-BF-020-002-N.jpg","0","k","1.14401940000243",1,2,0,2,0
"250009","img/neutralC/CFD-LF-250-169-N.jpg","1","s","1.58750490006059",1,3,0,2,0
"250009","img/neutralC/CFD-BF-222-240-N.jpg","0","s","2.0739933999721",1,3,0,2,0
"250009","img/neutralC/CFD-BM-215-155-N.jpg","1","k","1.20499110000674",1,3,0,2,0
"250009","img/neutralC/CFD-IM-637-007-N.jpg","0","k","1.89284680003766",1,3,0,2,0
"250009","img/neutralC/CFD-BM-019-002-N.jpg","1","k","2.24404480005614",1,3,0,2,0
"250009","img/neutralC/CFD-MF-337-026-N.jpg","0","s","1.73525999998674",1,3,0,2,0
"250009","img/neutralC/CFD-BF-253-202-N.jpg","0","s","1.98502040002495",1,3,0,2,0
"250009","img/neutralC/CFD-WM-237-052-N.jpg","1","k","2.72049570002127",1,3,0,2,0
"250009","img/neutralC/CFD-BF-254-201-N.jpg","1","k","4.69991770002525",1,3,0,2,0
"250009","img/neutralC/CFD-IF-676-017-N.jpg","1","k","2.14607709995471",1,3,0,2,0
"250009","img/neutralC/CFD-IM-604-014-N.jpg","1","k","3.13490890001412",1,3,0,2,0
"250009","img/neutralC/CFD-WM-002-009-N.jpg","0","s","1.32026379997842",1,3,0,2,0
"250009","img/neutralC/CFD-IM-615-167-N.jpg","1","k","3.63084969995543",1,3,0,2,0
"250009","img/neutralC/CFD-BM-021-021-N.jpg","1","s","2.59376329998486",1,3,0,2,0
"250009","img/neutralC/CFD-WF-222-092-N.jpg","1","s","2.43049089994747",1,3,0,2,0
"250009","img/neutralC/CFD-LF-210-220-N.jpg","0","s","1.74714590003714",1,3,0,2,0
"250009","img/neutralC/CFD-LF-230-203-N.jpg","1","k","2.20099769998342",1,3,0,2,0
"250009","img/neutralC/CFD-LF-218-072-N.jpg","1","s","2.1757634000387",1,3,0,2,0
"250009","img/neutralC/CFD-WM-041-021-N.jpg","1","s","1.62904929998331",1,3,0,2,0
"250009","img/neutralC/CFD-AF-206-079-N.jpg","1","s","1.05123759992421",1,3,0,2,0
"250009","img/neutralC/CFD-LM-215-247-N.jpg","0","k","1.64264970005024",1,3,0,2,0
"250009","img/neutralC/CFD-BF-042-026-N.jpg","1","s","2.00071269995533",1,3,0,2,0
"250009","img/neutralC/CFD-AF-202-122-N.jpg","0","k","1.72438879997935",1,3,0,2,0
"250009","img/neutralC/CFD-BF-006-017-N.jpg","1","s","1.97590880002826",1,3,0,2,0
"250009","img/neutralC/CFD-IF-608-390-N.jpg","1","k","3.99741700000595",1,3,0,2,0
"250009","img/neutralC/CFD-LM-253-075-N.jpg","1","s","1.43112960003782",1,3,0,2,0
"250009","img/neutralC/CFD-LF-238-154-N.jpg","1","s","3.06391929998063",1,3,0,2,0
"250009","img/neutralC/CFD-IF-620-218-N.jpg","1","s","1.92072009993717",1,3,0,2,0
"250009","img/neutralC/CFD-WF-241-210-N.jpg","0","s","2.44529199996032",1,3,0,2,0
"250009","img/neutralC/CFD-MF-302-027-N.jpg","1","k","1.7390643999679",1,3,0,2,0
"250009","img/neutralC/CFD-IM-616-214-N.jpg","1","s","1.4159881999949",1,3,0,2,0
"250009","img/neutralC/CFD-IF-629-234-N.jpg","0","k","2.21697890001815",1,3,0,2,0
"250009","img/neutralC/CFD-BM-243-218-N.jpg","0","k","1.65903159999289",1,3,0,2,0
"250009","img/neutralC/CFD-BM-225-154-N.jpg","1","k","2.09821149997879",1,3,0,2,0
"250009","img/neutralC/CFD-LM-214-165-N.jpg","1","k","2.6481722999597",1,3,0,2,0
"250009","img/neutralC/CFD-WF-018-017-N.jpg","0","k","2.40188149991445",1,3,0,2,0
"250009","img/neutralC/CFD-LF-236-221-N.jpg","0","s","1.64802490000147",1,3,0,2,0
"250009","img/neutralC/CFD-IM-719-221-N.jpg","1","s","1.25827620003838",1,3,0,2,0
"250009","img/neutralC/CFD-BM-241-235-N.jpg","1","s","1.58990999998059",1,3,0,2,0
"250009","img/neutralC/CFD-LF-247-051-N.jpg","0","s","1.1092115000356",1,3,0,2,0
"250009","img/neutralC/CFD-IM-702-101-N.jpg","1","k","0.793467999901623",1,3,0,2,0
"250009","img/neutralC/CFD-AM-244-222-N.jpg","0","s","2.56264829996508",1,3,0,2,0
"250009","img/neutralC/CFD-IM-697-015-N.jpg","1","k","1.36783680005465",1,3,0,2,0
"250009","img/neutralC/CFD-MF-343-001-N.jpg","0","k","2.32181090000086",1,3,0,2,0
"250009","img/neutralC/CFD-BF-214-308-N.jpg","0","s","1.53428760007955",1,3,0,2,0
"250009","img/neutralC/CFD-WF-223-133-N.jpg","0","k","1.66942319995724",1,3,0,2,0
"250009","img/neutralC/CFD-IM-646-023-N.jpg","1","k","1.66052220005076",1,3,0,2,0
"250009","img/neutralC/CFD-LM-233-171-N.jpg","0","s","1.40826739999466",1,3,0,2,0
"250009","img/neutralC/CFD-MF-303-013-N.jpg","1","k","2.22204289992806",1,4,0,2,0
"250009","img/neutralC/CFD-AM-243-212-N.jpg","0","s","2.06638969993219",1,4,0,2,0
"250009","img/neutralC/CFD-LF-220-120-N.jpg","0","k","1.53317629999947",1,4,0,2,0
"250009","img/neutralC/CFD-IF-650-315-N.jpg","1","k","1.26747960003559",1,4,0,2,0
"250009","img/neutralC/CFD-LF-226-174-N.jpg","0","s","2.02012390003074",1,4,0,2,0
"250009","img/neutralC/CFD-AF-241-141-N.jpg","0","s","1.41907169995829",1,4,0,2,0
"250009","img/neutralC/CFD-BM-248-128-N.jpg","1","k","2.41056999994908",1,4,0,2,0
"250009","img/neutralC/CFD-MF-316-001-N.jpg","1","k","1.60369889996946",1,4,0,2,0
"250009","img/neutralC/CFD-WF-210-086-N.jpg","0","s","1.26022189995274",1,4,0,2,0
"250009","img/neutralC/CFD-MF-327-002-N.jpg","1","s","1.71987280005123",1,4,0,2,0
"250009","img/neutralC/CFD-WF-214-122-N.jpg","0","k","2.11583619995508",1,4,0,2,0
"250009","img/neutralC/CFD-BM-204-003-N.jpg","0","s","3.0631009999197",1,4,0,2,0
"250009","img/neutralC/CFD-IM-706-002-N.jpg","0","s","2.48737889993936",1,4,0,2,0
"250009","img/neutralC/CFD-BF-213-188-N.jpg","0","k","3.93744020001031",1,4,0,2,0
"250009","img/neutralC/CFD-MF-342-022-N.jpg","1","s","1.90732200001366",1,4,0,2,0
"250009","img/neutralC/CFD-IF-732-260-N.jpg","0","s","1.69057890004478",1,4,0,2,0
"250009","img/neutralC/CFD-MF-357-002-N.jpg","1","s","1.61018660000991",1,4,0,2,0
"250009","img/neutralC/CFD-WF-009-001-N.jpg","0","k","1.39703999995254",1,4,0,2,0
"250009","img/neutralC/CFD-BF-224-002-N.jpg","0","k","1.60378450003918",1,4,0,2,0
"250009","img/neutralC/CFD-BF-206-143-N.jpg","1","k","1.26756680000108",1,4,0,2,0
"250009","img/neutralC/CFD-BM-033-003-N.jpg","0","s","2.07176959991921",1,4,0,2,0
"250009","img/neutralC/CFD-AM-249-163-N.jpg","0","k","1.31314770004246",1,4,0,2,0
"250009","img/neutralC/CFD-WM-026-001-N.jpg","1","k","1.35929189994931",1,4,0,2,0
"250009","img/neutralC/CFD-WM-232-070-N.jpg","0","s","1.77983470004983",1,4,0,2,0
"250009","img/neutralC/CFD-IM-709-103-N.jpg","1","k","1.10554939997382",1,4,0,2,0
"250009","img/neutralC/CFD-WM-040-022-N.jpg","0","k","1.64524460001849",1,4,0,2,0
"250009","img/neutralC/CFD-WF-012-002-N.jpg","1","s","1.06465740001295",1,4,0,2,0
"250009","img/neutralC/CFD-AM-201-076-N.jpg","0","s","1.57027779996861",1,4,0,2,0
"250009","img/neutralC/CFD-IM-653-008-N.jpg","1","k","1.99400900001638",1,4,0,2,0
"250009","img/neutralC/CFD-BM-200-046-N.jpg","1","k","1.84324929991271",1,4,0,2,0
"250009","img/neutralC/CFD-BF-029-031-N.jpg","0","s","2.72030559997074",1,4,0,2,0
"250009","img/neutralC/CFD-IM-685-004-N.jpg","1","k","2.01318430004176",1,4,0,2,0
"250009","img/neutralC/CFD-WF-248-129-N.jpg","0","s","0.968508700025268",1,4,0,2,0
"250009","img/neutralC/CFD-BM-212-117-N.jpg","0","s","1.00099780003075",1,4,0,2,0
"250009","img/neutralC/CFD-IM-648-337-N.jpg","1","k","0.943141800002195",1,4,0,2,0
"250009","img/neutralC/CFD-IF-742-103-N.jpg","1","k","1.02089639997575",1,4,0,2,0
"250009","img/neutralC/CFD-AM-205-153-N.jpg","0","s","2.30322320002597",1,4,0,2,0
"250009","img/neutralC/CFD-BM-211-174-N.jpg","1","s","1.62153660005424",1,4,0,2,0
"250009","img/neutralC/CFD-IF-729-393-N.jpg","1","k","1.82570829999167",1,4,0,2,0
"250009","img/neutralC/CFD-LM-225-130-N.jpg","0","s","1.90591210010462",1,4,0,2,0
"250009","img/neutralC/CFD-MF-312-002-N.jpg","1","s","1.29774910002016",1,4,0,2,0
"250009","img/neutralC/CFD-MF-329-001-N.jpg","1","k","4.58567659999244",1,4,0,2,0
"250009","img/neutralC/CFD-AF-210-050-N.jpg","0","k","1.27047440002207",1,4,0,2,0
"250009","img/neutralC/CFD-LF-205-100-N.jpg","1","k","1.00459350005258",1,4,0,2,0
"250009","img/neutralC/CFD-IM-721-341-N.jpg","1","k","1.6766427999828",1,4,0,2,0
"250009","img/neutralC/CFD-WM-025-002-N.jpg","0","k","1.1750809000805",1,4,0,2,0
"250009","img/neutralC/CFD-WM-257-161-N.jpg","0","s","2.94742049998604",1,4,0,2,0
"250009","img/neutralC/CFD-IM-727-195-N.jpg","1","k","1.80451460008044",1,4,0,2,0
"250009","img/neutralC/CFD-BF-025-002-N.jpg","1","k","1.30863520002458",1,5,0,2,0
"250009","img/neutralC/CFD-MM-321-021-N.jpg","0","k","1.26109220006038",1,5,0,2,0
"250009","img/neutralC/CFD-IM-639-263-N.jpg","1","s","1.99580279993825",1,5,0,2,0
"250009","img/neutralC/CFD-AM-251-124-N.jpg","0","k","1.49986480001826",1,5,0,2,0
"250009","img/neutralC/CFD-IM-701-312-N.jpg","1","k","0.954305800027214",1,5,0,2,0
"250009","img/neutralC/CFD-WF-036-023-N.jpg","1","k","1.81535669998266",1,5,0,2,0
"250009","img/neutralC/CFD-BM-039-029-N.jpg","1","s","2.38739849999547",1,5,0,2,0
"250009","img/neutralC/CFD-WM-255-219-N.jpg","0","k","2.88779649999924",1,5,0,2,0
"250009","img/neutralC/CFD-LF-255-088-N.jpg","1","k","1.85191720002331",1,5,0,2,0
"250009","img/neutralC/CFD-WM-254-152-N.jpg","1","s","1.81517710001208",1,5,0,2,0
"250009","img/neutralC/CFD-LM-204-001-N.jpg","1","s","1.53333270002622",1,5,0,2,0
"250009","img/neutralC/CFD-BF-027-002-N.jpg","1","k","1.88987810001709",1,5,0,2,0
"250009","img/neutralC/CFD-BF-003-003-N.jpg","1","k","1.54997309995815",1,5,0,2,0
"250009","img/neutralC/CFD-BF-004-014-N.jpg","1","k","1.42430309997872",1,5,0,2,0
"250009","img/neutralC/CFD-BF-045-003-N.jpg","1","s","1.40704540000297",1,5,0,2,0
"250009","img/neutralC/CFD-WM-209-038-N.jpg","1","k","2.3500245999312",1,5,0,2,0
"250009","img/neutralC/CFD-MM-316-156-N.jpg","1","s","1.23159659991506",1,5,0,2,0
"250009","img/neutralC/CFD-LM-216-082-N.jpg","1","k","2.28688599995803",1,5,0,2,0
"250009","img/neutralC/CFD-WM-014-002-N.jpg","0","k","1.60288749996107",1,5,0,2,0
"250009","img/neutralC/CFD-IM-738-191-N.jpg","1","s","1.32300240010954",1,5,0,2,0
"250009","img/neutralC/CFD-BF-208-266-N.jpg","1","s","4.01320689998101",1,5,0,2,0
"250009","img/neutralC/CFD-BM-005-003-N.jpg","0","s","1.97114679997321",1,5,0,2,0
"250009","img/neutralC/CFD-IF-673-389-N.jpg","1","k","1.00518360000569",1,5,0,2,0
"250009","img/neutralC/CFD-BF-038-037-N.jpg","1","s","1.3131806999445",1,5,0,2,0
"250009","img/neutralC/CFD-LF-206-078-N.jpg","0","k","1.14471810008399",1,5,0,2,0
"250009","img/neutralC/CFD-AF-232-078-N.jpg","1","s","1.60815760004334",1,5,0,2,0
"250009","img/neutralC/CFD-WF-026-002-N.jpg","1","s","2.00203989993315",1,5,0,2,0
"250009","img/neutralC/CFD-WF-008-002-N.jpg","1","s","1.57732010004111",1,5,0,2,0
"250009","img/neutralC/CFD-BF-255-140-N.jpg","1","s","1.68801680009346",1,5,0,2,0
"250009","img/neutralC/CFD-LM-217-162-N.jpg","0","s","1.36489810002968",1,5,0,2,0
"250009","img/neutralC/CFD-BF-033-028-N.jpg","1","s","2.48861470003612",1,5,0,2,0
"250009","img/neutralC/CFD-WM-202-107-N.jpg","0","s","1.41487760003656",1,5,0,2,0
"250009","img/neutralC/CFD-IM-659-359-N.jpg","1","k","0.789342399919406",1,5,0,2,0
"250009","img/neutralC/CFD-AF-213-126-N.jpg","0","s","1.12425090000033",1,5,0,2,0
"250009","img/neutralC/CFD-WM-258-125-N.jpg","1","k","2.34265260002576",1,5,0,2,0
"250009","img/neutralC/CFD-BF-018-039-N.jpg","1","k","1.76403530000243",1,5,0,2,0
"250009","img/neutralC/CFD-BF-238-190-N.jpg","0","s","1.46188529999927",1,5,0,2,0
"250009","img/neutralC/CFD-AM-212-050-N.jpg","1","s","1.36305399995763",1,5,0,2,0
"250009","img/neutralC/CFD-WM-213-076-N.jpg","0","s","2.32932869996876",1,5,0,2,0
"250009","img/neutralC/CFD-AF-244-168-N.jpg","0","s","1.27557920000982",1,5,0,2,0
"250009","img/neutralC/CFD-AM-242-176-N.jpg","1","k","0.849641100037843",1,5,0,2,0
"250009","img/neutralC/CFD-BM-251-013-N.jpg","1","k","1.35424309992231",1,5,0,2,0
"250009","img/neutralC/CFD-IF-677-452-1-N.jpg","1","s","0.79891199991107",1,5,0,2,0
"250009","img/neutralC/CFD-WM-038-003-N.jpg","0","k","0.997710700030439",1,5,0,2,0
"250009","img/neutralC/CFD-AM-225-102-N.jpg","1","k","0.506064899964258",1,5,0,2,0
"250009","img/neutralC/CFD-AF-227-207-N.jpg","1","s","0.536320799961686",1,5,0,2,0
"250009","img/neutralC/CFD-IM-680-369-N.jpg","0","k","0.572171799954958",1,5,0,2,0
"250009","img/neutralC/CFD-LF-241-188-N.jpg","0","s","1.14309739996679",1,5,0,2,0
"250009","img/neutralC/CFD-BF-043-003-N.jpg","1","s","1.80480620008893",1,6,0,2,0
"250009","img/neutralC/CFD-WF-208-068-N.jpg","0","s","0.969593900023028",1,6,0,2,0
"250009","img/neutralC/CFD-MF-313-002-N.jpg","1","k","0.458681699936278",1,6,0,2,0
"250009","img/neutralC/CFD-BM-003-003-N.jpg","0","k","1.10117209993768",1,6,0,2,0
"250009","img/neutralC/CFD-IF-718-001-N.jpg","0","k","1.81168490007985",1,6,0,2,0
"250009","img/neutralC/CFD-LM-237-264-N.jpg","0","k","1.59116469998844",1,6,0,2,0
"250009","img/neutralC/CFD-BF-218-207-N.jpg","1","s","1.44622459996026",1,6,0,2,0
"250009","img/neutralC/CFD-WM-219-008-N.jpg","0","k","1.20524519996252",1,6,0,2,0
"250009","img/neutralC/CFD-WM-248-036-N.jpg","1","s","0.894535099971108",1,6,0,2,0
"250009","img/neutralC/CFD-WF-033-002-N.jpg","0","s","0.993585599935614",1,6,0,2,0
"250009","img/neutralC/CFD-AF-250-200-N.jpg","1","k","1.47460529999807",1,6,0,2,0
"250009","img/neutralC/CFD-BM-217-082-N.jpg","0","s","0.60841420001816",1,6,0,2,0
"250009","img/neutralC/CFD-IM-651-308-N.jpg","1","s","1.16516289999709",1,6,0,2,0
"250009","img/neutralC/CFD-IF-693-172-N.jpg","1","s","0.876918199937791",1,6,0,2,0
"250009","img/neutralC/CFD-IM-664-651-N.jpg","1","k","0.688977099955082",1,6,0,2,0
"250009","img/neutralC/CFD-IM-669-111-N.jpg","1","s","0.858054199954495",1,6,0,2,0
"250009","img/neutralC/CFD-BM-030-003-N.jpg","1","k","1.53438840003219",1,6,0,2,0
"250009","img/neutralC/CFD-BF-051-035-N.jpg","1","k","0.919543900061399",1,6,0,2,0
"250009","img/neutralC/CFD-BF-044-034-N.jpg","1","s","1.01046020002104",1,6,0,2,0
"250009","img/neutralC/CFD-MM-306-010-N.jpg","1","s","1.25675000005867",1,6,0,2,0
"250009","img/neutralC/CFD-IM-627-178-N.jpg","1","s","1.46994689991698",1,6,0,2,0
"250009","img/neutralC/CFD-MF-321-003-N.jpg","0","s","1.53979059995618",1,6,0,2,0
"250009","img/neutralC/CFD-LF-224-176-N.jpg","0","s","1.79156829998828",1,6,0,2,0
"250009","img/neutralC/CFD-IM-689-263-N.jpg","1","k","0.92698129999917",1,6,0,2,0
"250009","img/neutralC/CFD-AM-211-052-N.jpg","1","k","0.75606569997035",1,6,0,2,0
"250009","img/neutralC/CFD-WF-240-083-N.jpg","1","k","0.901657299953513",1,6,0,2,0
"250009","img/neutralC/CFD-IM-667-369-N.jpg","1","s","0.762472600094043",1,6,0,2,0
"250009","img/neutralC/CFD-BM-015-015-N.jpg","0","k","0.860927099944092",1,6,0,2,0
"250009","img/neutralC/CFD-BM-207-024-N.jpg","1","s","0.305366199929267",1,6,0,2,0
"250009","img/neutralC/CFD-IF-634-382-N.jpg","0","k","0.917708799941465",1,6,0,2,0
"250009","img/neutralC/CFD-WF-023-003-N.jpg","0","k","1.17362669995055",1,6,0,2,0
"250009","img/neutralC/CFD-WM-017-002-N.jpg","1","s","1.19135310000274",1,6,0,2,0
"250009","img/neutralC/CFD-WM-015-002-N.jpg","0","s","1.13579580001533",1,6,0,2,0
"250009","img/neutralC/CFD-IF-665-015-N.jpg","1","k","1.08972960000392",1,6,0,2,0
"250009","img/neutralC/CFD-WM-019-003-N.jpg","0","s","0.950031300075352",1,6,0,2,0
"250009","img/neutralC/CFD-WM-228-065-N.jpg","1","s","0.944882300100289",1,6,0,2,0
"250009","img/neutralC/CFD-LM-213-061-N.jpg","1","s","1.18813640007284",1,6,0,2,0
"250009","img/neutralC/CFD-AF-239-171-N.jpg","0","s","1.13480809994508",1,6,0,2,0
"250009","img/neutralC/CFD-BM-036-003-N.jpg","0","s","2.29277830000501",1,6,0,2,0
"250009","img/neutralC/CFD-BM-023-029-N.jpg","1","k","1.26265119994059",1,6,0,2,0
"250009","img/neutralC/CFD-BM-026-002-N.jpg","1","s","1.02949800004717",1,6,0,2,0
"250009","img/neutralC/CFD-IF-672-305-N.jpg","1","k","1.28839360002894",1,6,0,2,0
"250009","img/neutralC/CFD-MM-319-052-N.jpg","1","s","1.14536999992561",1,6,0,2,0
"250009","img/neutralC/CFD-WM-009-002-N.jpg","1","s","1.00788529997226",1,6,0,2,0
"250009","img/neutralC/CFD-WF-200-099-N.jpg","0","k","0.854134100023657",1,6,0,2,0
"250009","img/neutralC/CFD-IF-710-016-N.jpg","1","s","0.751036199973896",1,6,0,2,0
"250009","img/neutralC/CFD-WM-242-011-N.jpg","0","s","1.02233639999758",1,6,0,2,0
"250009","img/neutralC/CFD-LM-241-125-N.jpg","0","s","1.14399519993458",1,6,0,2,0
"250009","img/neutralC/CFD-BF-205-141-N.jpg","1","k","1.22261459997389",1,7,0,2,0
"250009","img/neutralC/CFD-IM-617-174-N.jpg","1","s","1.50835109991021",1,7,0,2,0
"250009","img/neutralC/CFD-WM-028-003-N.jpg","0","k","0.894172900007106",1,7,0,2,0
"250009","img/neutralC/CFD-WM-023-001-N.jpg","0","k","0.978168200002983",1,7,0,2,0
"250009","img/neutralC/CFD-IF-660-464-N.jpg","0","s","0.761039600009099",1,7,0,2,0
"250009","img/neutralC/CFD-WF-233-112-N.jpg","1","s","1.01243959995918",1,7,0,2,0
"250009","img/neutralC/CFD-WF-244-163-N.jpg","1","k","1.11942270002328",1,7,0,2,0
"250009","img/neutralC/CFD-AM-233-236-N.jpg","0","k","0.7803133999696",1,7,0,2,0
"250009","img/neutralC/CFD-WM-033-025-N.jpg","0","s","0.771134900045581",1,7,0,2,0
"250009","img/neutralC/CFD-WM-020-001-N.jpg","1","s","0.793903600075282",1,7,0,2,0
"250009","img/neutralC/CFD-WF-030-002-N.jpg","1","k","1.81253590004053",1,7,0,2,0
"250009","img/neutralC/CFD-AM-219-101-N.jpg","1","k","1.26087739993818",1,7,0,2,0
"250009","img/neutralC/CFD-LF-204-133-N.jpg","1","s","1.82231149997097",1,7,0,2,0
"250009","img/neutralC/CFD-IM-707-105-N.jpg","1","s","1.68420720007271",1,7,0,2,0
"250009","img/neutralC/CFD-WF-234-086-N.jpg","1","s","0.882713799946941",1,7,0,2,0
"250009","img/neutralC/CFD-BM-253-004-N.jpg","0","s","1.04340010008309",1,7,0,2,0
"250009","img/neutralC/CFD-WM-212-097-N.jpg","0","k","1.27639480005018",1,7,0,2,0
"250009","img/neutralC/CFD-IM-632-097-N.jpg","1","k","2.17571250000037",1,7,0,2,0
"250009","img/neutralC/CFD-LM-247-095-N.jpg","0","s","1.28502099995967",1,7,0,2,0
"250009","img/neutralC/CFD-BM-009-002-N.jpg","0","k","1.16579400002956",1,7,0,2,0
"250009","img/neutralC/CFD-BM-239-136-N.jpg","1","s","1.47548070002813",1,7,0,2,0
"250009","img/neutralC/CFD-BM-213-134-N.jpg","0","k","1.2508044000715",1,7,0,2,0
"250009","img/neutralC/CFD-WM-034-030-N.jpg","0","k","1.70807099994272",1,7,0,2,0
"250009","img/neutralC/CFD-LF-225-164-N.jpg","1","k","0.700562799931504",1,7,0,2,0
"250009","img/neutralC/CFD-BM-238-242-N.jpg","0","s","1.51584430004004",1,7,0,2,0
"250009","img/neutralC/CFD-IM-657-308-N.jpg","1","s","1.15540859999601",1,7,0,2,0
"250009","img/neutralC/CFD-BM-227-191-N.jpg","0","k","1.14238480001222",1,7,0,2,0
"250009","img/neutralC/CFD-WF-001-003-N.jpg","0","k","1.69303890003357",1,7,0,2,0
"250009","img/neutralC/CFD-MF-305-014-N.jpg","1","k","1.40499939990696",1,7,0,2,0
"250009","img/neutralC/CFD-WM-012-001-N.jpg","0","s","0.879444899968803",1,7,0,2,0
"250009","img/neutralC/CFD-BM-020-001-N.jpg","1","s","0.683821700047702",1,7,0,2,0
"250009","img/neutralC/CFD-MF-300-002-N.jpg","0","k","1.09137309994549",1,7,0,2,0
"250009","img/neutralC/CFD-BF-012-001-N.jpg","1","k","1.03899120003916",1,7,0,2,0
"250009","img/neutralC/CFD-WM-215-041-N.jpg","1","s","1.48008650005795",1,7,0,2,0
"250009","img/neutralC/CFD-IM-671-601-N.jpg","1","k","1.18506779999007",1,7,0,2,0
"250009","img/neutralC/CFD-IM-674-281-N.jpg","1","k","1.0987962000072",1,7,0,2,0
"250009","img/neutralC/CFD-MM-304-002-N.jpg","1","s","0.995179099962115",1,7,0,2,0
"250009","img/neutralC/CFD-AF-253-130-N.jpg","1","k","1.15726689994335",1,7,0,2,0
"250009","img/neutralC/CFD-BM-004-002-N.jpg","0","k","0.731084900093265",1,7,0,2,0
"250009","img/neutralC/CFD-WF-213-031-N.jpg","0","k","0.784561199950986",1,7,0,2,0
"250009","img/neutralC/CFD-MF-307-002-N.jpg","0","k","1.03907159995288",1,7,0,2,0
"250009","img/neutralC/CFD-IM-700-009-N.jpg","1","s","0.68146190000698",1,7,0,2,0
"250009","img/neutralC/CFD-LF-245-166-N.jpg","0","s","0.785794100025669",1,7,0,2,0
"250009","img/neutralC/CFD-IF-744-114-N.jpg","1","s","1.02541500004008",1,7,0,2,0
"250009","img/neutralC/CFD-WM-004-010-N.jpg","0","k","0.868606699979864",1,7,0,2,0
"250009","img/neutralC/CFD-AF-246-242-N.jpg","1","k","0.814041399979033",1,7,0,2,0
"250009","img/neutralC/CFD-WM-227-099-N.jpg","0","s","0.861430000048131",1,7,0,2,0
"250009","img/neutralC/CFD-WF-250-167-N.jpg","1","s","0.930285900016315",1,7,0,2,0
"250009","img/neutralC/CFD-BM-043-071-N.jpg","1","k","1.075569299981",1,8,0,2,0
"250009","img/neutralC/CFD-LM-240-013-N.jpg","0","s","0.670790900010616",1,8,0,2,0
"250009","img/neutralC/CFD-IF-623-129-N.jpg","1","s","0.810824300046079",1,8,0,2,0
"250009","img/neutralC/CFD-MF-352-054-N.jpg","1","k","0.79484109999612",1,8,0,2,0
"250009","img/neutralC/CFD-IM-686-097-N.jpg","0","k","1.05151489994023",1,8,0,2,0
"250009","img/neutralC/CFD-WM-013-001-N.jpg","1","k","1.0028878999874",1,8,0,2,0
"250009","img/neutralC/CFD-MF-359-019-N.jpg","1","s","0.977459099958651",1,8,0,2,0
"250009","img/neutralC/CFD-BF-244-231-N.jpg","0","s","0.913012299919501",1,8,0,2,0
"250009","img/neutralC/CFD-LF-201-035-N.jpg","1","s","0.657563699991442",1,8,0,2,0
"250009","img/neutralC/CFD-IM-728-041-N.jpg","1","k","1.13574639998842",1,8,0,2,0
"250009","img/neutralC/CFD-LF-215-157-N.jpg","0","k","1.39727870002389",1,8,0,2,0
"250009","img/neutralC/CFD-WF-017-003-N.jpg","1","s","1.01918990002014",1,8,0,2,0
"250009","img/neutralC/CFD-WM-011-002-N.jpg","0","s","1.11678929999471",1,8,0,2,0
"250009","img/neutralC/CFD-IF-619-197-N.jpg","1","k","1.02263769996352",1,8,0,2,0
"250009","img/neutralC/CFD-AM-217-085-N.jpg","0","k","0.980566299986094",1,8,0,2,0
"250009","img/neutralC/CFD-LM-228-188-N.jpg","0","s","1.00906149996445",1,8,0,2,0
"250009","img/neutralC/CFD-BF-235-168-N.jpg","1","s","1.05669870006386",1,8,0,2,0
"250009","img/neutralC/CFD-MF-333-012-N.jpg","1","s","0.906206400017254",1,8,0,2,0
"250009","img/neutralC/CFD-AM-215-120-N.jpg","1","s","1.34654839988798",1,8,0,2,0
"250009","img/neutralC/CFD-BF-040-003-N.jpg","0","k","1.1114372999873",1,8,0,2,0
"250009","img/neutralC/CFD-IF-626-375-N.jpg","1","k","1.12208949995693",1,8,0,2,0
"250009","img/neutralC/CFD-BF-204-189-N.jpg","1","s","1.15804419992492",1,8,0,2,0
"250009","img/neutralC/CFD-WF-212-050-N.jpg","1","s","0.65822580002714",1,8,0,2,0
"250009","img/neutralC/CFD-LM-201-057-N.jpg","0","k","0.618895499967039",1,8,0,2,0
"250009","img/neutralC/CFD-BF-036-027-N.jpg","1","s","0.817238999996334",1,8,0,2,0
"250009","img/neutralC/CFD-WF-217-085-N.jpg","0","k","1.33146020001732",1,8,0,2,0
"250009","img/neutralC/CFD-IM-726-248-N.jpg","0","s","0.665436599985696",1,8,0,2,0
"250009","img/neutralC/CFD-BM-028-002-N.jpg","0","s","0.567309800069779",1,8,0,2,0
"250009","img/neutralC/CFD-MM-317-061-N.jpg","0","s","0.685554199968465",1,8,0,2,0
"250009","img/neutralC/CFD-BM-205-001-N.jpg","0","k","1.16446689993609",1,8,0,2,0
"250009","img/neutralC/CFD-LF-216-121-N.jpg","0","k","0.951463900040835",1,8,0,2,0
"250009","img/neutralC/CFD-BF-228-212-N.jpg","1","s","0.660936800064519",1,8,0,2,0
"250009","img/neutralC/CFD-BF-247-179-N.jpg","1","s","1.48503119999077",1,8,0,2,0
"250009","img/neutralC/CFD-AF-231-357-N.jpg","1","k","1.67710329999682",1,8,0,2,0
"250009","img/neutralC/CFD-WM-235-147-N.jpg","0","k","1.48199380002916",1,8,0,2,0
"250009","img/neutralC/CFD-IM-645-001-N.jpg","1","k","0.81650279997848",1,8,0,2,0
"250009","img/neutralC/CFD-BF-229-179-N.jpg","0","s","0.987640100065619",1,8,0,2,0
"250009","img/neutralC/CFD-MM-324-069-N.jpg","0","k","0.871724700089544",1,8,0,2,0
"250009","img/neutralC/CFD-BM-231-155-N.jpg","0","k","0.988453199970536",1,8,0,2,0
"250009","img/neutralC/CFD-BM-041-035-N.jpg","1","s","1.25166150007863",1,8,0,2,0
"250009","img/neutralC/CFD-BF-011-002-N.jpg","1","k","1.09819579997566",1,8,0,2,0
"250009","img/neutralC/CFD-WM-201-063-N.jpg","1","s","1.31393179995939",1,8,0,2,0
"250009","img/neutralC/CFD-WM-218-074-N.jpg","1","k","1.17066449997947",1,8,0,2,0
"250009","img/neutralC/CFD-BF-023-010-N.jpg","1","k","1.1894824000774",1,8,0,2,0
"250009","img/neutralC/CFD-IM-678-482-N.jpg","1","s","1.26604969997425",1,8,0,2,0
"250009","img/neutralC/CFD-AF-234-208-N.jpg","1","s","0.944809200009331",1,8,0,2,0
"250009","img/neutralC/CFD-WF-022-017-N.jpg","0","k","1.33418859995436",1,8,0,2,0
"250009","img/neutralC/CFD-IF-636-011-N.jpg","1","k","1.09365599998273",1,8,0,2,0
