"participant_id","current_trial_face","pre_trial_face","post_trial_face","current_trial_accuracy","pre_trial_accuracy","post_trial_accuracy","current_trial_congruency","pre_trial_congruency","post_trial_congruency","current_trial_rt","pre_trial_rt","post_trial_rt","current_trial_responded","pre_trial_responded","post_trial_responded","current_trial_legitResponse","pre_trial_legitResponse","post_trial_legitResponse","current_trial_resp_nums","pre_trial_resp_nums","post_trial_resp_nums"
"250002","img/neutralC/CFD-MF-336-016-N.jpg",NA,"img/neutralC/CFD-IF-744-114-N.jpg","1",NA,"1","1",NA,"0","0.602939399890602",NA,"0.409019699785858","1",NA,"1","1",NA,"1","1",NA,"1"
"250002","img/neutralC/CFD-IF-744-114-N.jpg","img/neutralC/CFD-MF-336-016-N.jpg","img/neutralC/CFD-IM-659-359-N.jpg","1","1","1","0","1","0","0.409019699785858","0.602939399890602","0.436086499597877","1","1","1","1","1","1","1","1","1"
"250002","img/neutralC/CFD-IM-659-359-N.jpg","img/neutralC/CFD-IF-744-114-N.jpg","img/neutralC/CFD-MF-312-002-N.jpg","1","1","1","0","0","1","0.436086499597877","0.409019699785858","0.365376699715853","1","1","1","1","1","1","1","1","1"
"250002","img/neutralC/CFD-MF-312-002-N.jpg","img/neutralC/CFD-IM-659-359-N.jpg","img/neutralC/CFD-BM-028-002-N.jpg","1","1","1","1","0","1","0.365376699715853","0.436086499597877","0.367785499431193","1","1","1","1","1","1","1","1","1"
"250002","img/neutralC/CFD-BM-028-002-N.jpg","img/neutralC/CFD-MF-312-002-N.jpg","img/neutralC/CFD-LF-225-164-N.jpg","1","1","1","1","1","1","0.367785499431193","0.365376699715853","0.470177099574357","1","1","1","1","1","1","1","1","1"
"250002","img/neutralC/CFD-LF-225-164-N.jpg","img/neutralC/CFD-BM-028-002-N.jpg","img/neutralC/CFD-LF-210-220-N.jpg","1","1","1","1","1","1","0.470177099574357","0.367785499431193","0.424859099555761","1","1","1","1","1","1","1","1","1"
"250002","img/neutralC/CFD-LF-210-220-N.jpg","img/neutralC/CFD-LF-225-164-N.jpg","img/neutralC/CFD-LM-247-095-N.jpg","1","1","1","1","1","0","0.424859099555761","0.470177099574357","0.405905399937183","1","1","1","1","1","1","1","1","1"
"250002","img/neutralC/CFD-LM-247-095-N.jpg","img/neutralC/CFD-LF-210-220-N.jpg","img/neutralC/CFD-BM-003-003-N.jpg","1","1","1","0","1","0","0.405905399937183","0.424859099555761","0.491050299722701","1","1","1","1","1","1","1","1","1"
"250002","img/neutralC/CFD-BM-003-003-N.jpg","img/neutralC/CFD-LM-247-095-N.jpg","img/neutralC/CFD-IF-673-389-N.jpg","1","1","1","0","0","0","0.491050299722701","0.405905399937183","0.469860999379307","1","1","1","1","1","1","1","1","1"
"250002","img/neutralC/CFD-IF-673-389-N.jpg","img/neutralC/CFD-BM-003-003-N.jpg","img/neutralC/CFD-WF-033-002-N.jpg","1","1","1","0","0","1","0.469860999379307","0.491050299722701","0.478394399862736","1","1","1","1","1","1","1","1","1"
"250002","img/neutralC/CFD-WF-033-002-N.jpg","img/neutralC/CFD-IF-673-389-N.jpg","img/neutralC/CFD-AF-210-050-N.jpg","1","1","1","1","0","1","0.478394399862736","0.469860999379307","0.580322199501097","1","1","1","1","1","1","1","1","1"
"250002","img/neutralC/CFD-AF-210-050-N.jpg","img/neutralC/CFD-WF-033-002-N.jpg","img/neutralC/CFD-BF-004-014-N.jpg","1","1","1","1","1","1","0.580322199501097","0.478394399862736","0.484170399606228","1","1","1","1","1","1","1","1","1"
"250002","img/neutralC/CFD-BF-004-014-N.jpg","img/neutralC/CFD-AF-210-050-N.jpg","img/neutralC/CFD-LF-241-188-N.jpg","1","1","1","1","1","0","0.484170399606228","0.580322199501097","0.50523589970544","1","1","1","1","1","1","1","1","1"
"250002","img/neutralC/CFD-LF-241-188-N.jpg","img/neutralC/CFD-BF-004-014-N.jpg","img/neutralC/CFD-AM-221-184-N.jpg","1","1","1","0","1","1","0.50523589970544","0.484170399606228","0.450822199694812","1","1","1","1","1","1","1","1","1"
"250002","img/neutralC/CFD-AM-221-184-N.jpg","img/neutralC/CFD-LF-241-188-N.jpg","img/neutralC/CFD-IM-701-312-N.jpg","1","1","1","1","0","0","0.450822199694812","0.50523589970544","0.527751799672842","1","1","1","1","1","1","1","1","1"
"250002","img/neutralC/CFD-IM-701-312-N.jpg","img/neutralC/CFD-AM-221-184-N.jpg","img/neutralC/CFD-WM-228-065-N.jpg","1","1","1","0","1","0","0.527751799672842","0.450822199694812","0.59860729938373","1","1","1","1","1","1","1","1","1"
"250002","img/neutralC/CFD-WM-228-065-N.jpg","img/neutralC/CFD-IM-701-312-N.jpg","img/neutralC/CFD-WF-006-002-N.jpg","1","1","1","0","0","0","0.59860729938373","0.527751799672842","0.503019799478352","1","1","1","1","1","1","1","1","1"
"250002","img/neutralC/CFD-WF-006-002-N.jpg","img/neutralC/CFD-WM-228-065-N.jpg","img/neutralC/CFD-IF-625-225-N.jpg","1","1","1","0","0","0","0.503019799478352","0.59860729938373","0.505462700035423","1","1","1","1","1","1","1","1","1"
"250002","img/neutralC/CFD-IF-625-225-N.jpg","img/neutralC/CFD-WF-006-002-N.jpg","img/neutralC/CFD-LF-208-127-N.jpg","1","1","1","0","0","0","0.505462700035423","0.503019799478352","0.498626299668103","1","1","1","1","1","1","1","1","1"
"250002","img/neutralC/CFD-LF-208-127-N.jpg","img/neutralC/CFD-IF-625-225-N.jpg","img/neutralC/CFD-BF-045-003-N.jpg","1","1","1","0","0","0","0.498626299668103","0.505462700035423","0.469645199365914","1","1","1","1","1","1","1","1","1"
"250002","img/neutralC/CFD-BF-045-003-N.jpg","img/neutralC/CFD-LF-208-127-N.jpg","img/neutralC/CFD-BM-213-134-N.jpg","1","1","1","0","0","1","0.469645199365914","0.498626299668103","0.600650199688971","1","1","1","1","1","1","1","1","1"
"250002","img/neutralC/CFD-BM-213-134-N.jpg","img/neutralC/CFD-BF-045-003-N.jpg","img/neutralC/CFD-BM-010-003-N.jpg","1","1","1","1","0","0","0.600650199688971","0.469645199365914","0.5817142999731","1","1","1","1","1","1","1","1","1"
"250002","img/neutralC/CFD-BM-010-003-N.jpg","img/neutralC/CFD-BM-213-134-N.jpg","img/neutralC/CFD-AF-227-207-N.jpg","1","1","1","0","1","1","0.5817142999731","0.600650199688971","0.438204899895936","1","1","1","1","1","1","1","1","1"
"250002","img/neutralC/CFD-AF-227-207-N.jpg","img/neutralC/CFD-BM-010-003-N.jpg","img/neutralC/CFD-WM-254-152-N.jpg","1","1","1","1","0","1","0.438204899895936","0.5817142999731","0.440295999869704","1","1","1","1","1","1","1","1","1"
"250002","img/neutralC/CFD-WM-254-152-N.jpg","img/neutralC/CFD-AF-227-207-N.jpg","img/neutralC/CFD-AF-239-171-N.jpg","1","1","1","1","1","1","0.440295999869704","0.438204899895936","0.572258200030774","1","1","1","1","1","1","1","1","1"
"250002","img/neutralC/CFD-AF-239-171-N.jpg","img/neutralC/CFD-WM-254-152-N.jpg","img/neutralC/CFD-IM-738-191-N.jpg","1","1","1","1","1","0","0.572258200030774","0.440295999869704","0.509022199548781","1","1","1","1","1","1","1","1","1"
"250002","img/neutralC/CFD-IM-738-191-N.jpg","img/neutralC/CFD-AF-239-171-N.jpg","img/neutralC/CFD-BM-013-002-N.jpg","1","1","1","0","1","1","0.509022199548781","0.572258200030774","0.439279599580914","1","1","1","1","1","1","1","1","1"
"250002","img/neutralC/CFD-BM-013-002-N.jpg","img/neutralC/CFD-IM-738-191-N.jpg","img/neutralC/CFD-BF-222-240-N.jpg","1","1","1","1","0","0","0.439279599580914","0.509022199548781","0.471519699785858","1","1","1","1","1","1","1","1","1"
"250002","img/neutralC/CFD-BF-222-240-N.jpg","img/neutralC/CFD-BM-013-002-N.jpg","img/neutralC/CFD-WF-223-133-N.jpg","1","1","1","0","1","0","0.471519699785858","0.439279599580914","0.507555899675936","1","1","1","1","1","1","1","1","1"
"250002","img/neutralC/CFD-WF-223-133-N.jpg","img/neutralC/CFD-BF-222-240-N.jpg","img/neutralC/CFD-LM-238-129-N.jpg","1","1","1","0","0","1","0.507555899675936","0.471519699785858","0.418603799305856","1","1","1","1","1","1","1","1","1"
"250002","img/neutralC/CFD-LM-238-129-N.jpg","img/neutralC/CFD-WF-223-133-N.jpg","img/neutralC/CFD-WM-202-107-N.jpg","1","1","1","1","0","1","0.418603799305856","0.507555899675936","0.391963799484074","1","1","1","1","1","1","1","1","1"
"250002","img/neutralC/CFD-WM-202-107-N.jpg","img/neutralC/CFD-LM-238-129-N.jpg",NA,"1","1",NA,"1","1",NA,"0.391963799484074","0.418603799305856",NA,"1","1",NA,"1","1",NA,"1","1",NA
"250002","img/neutralC/CFD-BF-202-109-N.jpg",NA,"img/neutralC/CFD-WM-019-003-N.jpg","1",NA,"1","1",NA,"1","0.427713199518621",NA,"0.373484299518168","1",NA,"1","1",NA,"1","1",NA,"1"
"250002","img/neutralC/CFD-WM-019-003-N.jpg","img/neutralC/CFD-BF-202-109-N.jpg","img/neutralC/CFD-BM-205-001-N.jpg","1","1","0","1","1","0","0.373484299518168","0.427713199518621","0.402222499717027","1","1","1","1","1","1","1","1","1"
"250002","img/neutralC/CFD-BM-205-001-N.jpg","img/neutralC/CFD-WM-019-003-N.jpg","img/neutralC/CFD-WM-212-097-N.jpg","0","1","1","0","1","0","0.402222499717027","0.373484299518168","0.470544700045139","1","1","1","1","1","1","1","1","1"
"250002","img/neutralC/CFD-WM-212-097-N.jpg","img/neutralC/CFD-BM-205-001-N.jpg","img/neutralC/CFD-WM-249-239-N.jpg","1","0","1","0","0","1","0.470544700045139","0.402222499717027","0.38871489930898","1","1","1","1","1","1","1","1","1"
"250002","img/neutralC/CFD-WM-249-239-N.jpg","img/neutralC/CFD-WM-212-097-N.jpg","img/neutralC/CFD-AF-240-206-N.jpg","1","1","1","1","0","0","0.38871489930898","0.470544700045139","0.421112899668515","1","1","1","1","1","1","1","1","1"
"250002","img/neutralC/CFD-AF-240-206-N.jpg","img/neutralC/CFD-WM-249-239-N.jpg","img/neutralC/CFD-WF-228-196-N.jpg","1","1","1","0","1","0","0.421112899668515","0.38871489930898","0.466808299534023","1","1","1","1","1","1","1","1","1"
"250002","img/neutralC/CFD-WF-228-196-N.jpg","img/neutralC/CFD-AF-240-206-N.jpg","img/neutralC/CFD-WF-017-003-N.jpg","1","1","1","0","0","1","0.466808299534023","0.421112899668515","0.382373999338597","1","1","1","1","1","1","1","1","1"
"250002","img/neutralC/CFD-WF-017-003-N.jpg","img/neutralC/CFD-WF-228-196-N.jpg","img/neutralC/CFD-LM-201-057-N.jpg","1","1","1","1","0","1","0.382373999338597","0.466808299534023","0.396806399803609","1","1","1","1","1","1","1","1","1"
"250002","img/neutralC/CFD-LM-201-057-N.jpg","img/neutralC/CFD-WF-017-003-N.jpg","img/neutralC/CFD-WM-215-041-N.jpg","1","1","1","1","1","0","0.396806399803609","0.382373999338597","0.468104099854827","1","1","1","1","1","1","1","1","1"
"250002","img/neutralC/CFD-WM-215-041-N.jpg","img/neutralC/CFD-LM-201-057-N.jpg","img/neutralC/CFD-LM-214-165-N.jpg","1","1","1","0","1","1","0.468104099854827","0.396806399803609","0.379280699882656","1","1","1","1","1","1","1","1","1"
"250002","img/neutralC/CFD-LM-214-165-N.jpg","img/neutralC/CFD-WM-215-041-N.jpg","img/neutralC/CFD-WM-006-002-N.jpg","1","1","1","1","0","0","0.379280699882656","0.468104099854827","0.396569199860096","1","1","1","1","1","1","1","1","1"
"250002","img/neutralC/CFD-WM-006-002-N.jpg","img/neutralC/CFD-LM-214-165-N.jpg","img/neutralC/CFD-WF-005-010-N.jpg","1","1","1","0","1","0","0.396569199860096","0.379280699882656","0.428762299474329","1","1","1","1","1","1","1","1","1"
"250002","img/neutralC/CFD-WF-005-010-N.jpg","img/neutralC/CFD-WM-006-002-N.jpg","img/neutralC/CFD-WM-026-001-N.jpg","1","1","1","0","0","1","0.428762299474329","0.396569199860096","0.32613299973309","1","1","1","1","1","1","1","1","1"
"250002","img/neutralC/CFD-WM-026-001-N.jpg","img/neutralC/CFD-WF-005-010-N.jpg","img/neutralC/CFD-WM-012-001-N.jpg","1","1","1","1","0","1","0.32613299973309","0.428762299474329","0.348379599396139","1","1","1","1","1","1","1","1","1"
"250002","img/neutralC/CFD-WM-012-001-N.jpg","img/neutralC/CFD-WM-026-001-N.jpg","img/neutralC/CFD-WF-240-083-N.jpg","1","1","1","1","1","0","0.348379599396139","0.32613299973309","0.472447899635881","1","1","1","1","1","1","1","1","1"
"250002","img/neutralC/CFD-WF-240-083-N.jpg","img/neutralC/CFD-WM-012-001-N.jpg","img/neutralC/CFD-LM-216-082-N.jpg","1","1","1","0","1","0","0.472447899635881","0.348379599396139","0.482550599612296","1","1","1","1","1","1","1","1","1"
"250002","img/neutralC/CFD-LM-216-082-N.jpg","img/neutralC/CFD-WF-240-083-N.jpg","img/neutralC/CFD-LM-243-075-N.jpg","1","1","1","0","0","0","0.482550599612296","0.472447899635881","0.37817889964208","1","1","1","1","1","1","1","1","1"
"250002","img/neutralC/CFD-LM-243-075-N.jpg","img/neutralC/CFD-LM-216-082-N.jpg","img/neutralC/CFD-MF-335-002-N.jpg","1","1","1","0","0","0","0.37817889964208","0.482550599612296","0.493390699848533","1","1","1","1","1","1","1","1","1"
"250002","img/neutralC/CFD-MF-335-002-N.jpg","img/neutralC/CFD-LM-243-075-N.jpg","img/neutralC/CFD-BF-025-002-N.jpg","1","1","1","0","0","0","0.493390699848533","0.37817889964208","0.566965699661523","1","1","1","1","1","1","1","1","1"
"250002","img/neutralC/CFD-BF-025-002-N.jpg","img/neutralC/CFD-MF-335-002-N.jpg","img/neutralC/CFD-LM-244-068-N.jpg","1","1","1","0","0","1","0.566965699661523","0.493390699848533","0.397651199717075","1","1","1","1","1","1","1","1","1"
"250002","img/neutralC/CFD-LM-244-068-N.jpg","img/neutralC/CFD-BF-025-002-N.jpg","img/neutralC/CFD-AM-247-165-N.jpg","1","1","1","1","0","1","0.397651199717075","0.566965699661523","0.365619599819183","1","1","1","1","1","1","1","1","1"
"250002","img/neutralC/CFD-AM-247-165-N.jpg","img/neutralC/CFD-LM-244-068-N.jpg","img/neutralC/CFD-BF-212-315-N.jpg","1","1","1","1","1","1","0.365619599819183","0.397651199717075","0.344676399603486","1","1","1","1","1","1","1","1","1"
"250002","img/neutralC/CFD-BF-212-315-N.jpg","img/neutralC/CFD-AM-247-165-N.jpg","img/neutralC/CFD-BF-228-212-N.jpg","1","1","1","1","1","0","0.344676399603486","0.365619599819183","0.410201099701226","1","1","1","1","1","1","1","1","1"
"250002","img/neutralC/CFD-BF-228-212-N.jpg","img/neutralC/CFD-BF-212-315-N.jpg","img/neutralC/CFD-BF-041-001-N.jpg","1","1","1","0","1","1","0.410201099701226","0.344676399603486","0.367052099201828","1","1","1","1","1","1","1","1","1"
"250002","img/neutralC/CFD-BF-041-001-N.jpg","img/neutralC/CFD-BF-228-212-N.jpg","img/neutralC/CFD-BM-248-128-N.jpg","1","1","1","1","0","0","0.367052099201828","0.410201099701226","0.592182499822229","1","1","1","1","1","1","1","1","1"
"250002","img/neutralC/CFD-BM-248-128-N.jpg","img/neutralC/CFD-BF-041-001-N.jpg","img/neutralC/CFD-BM-251-013-N.jpg","1","1","1","0","1","1","0.592182499822229","0.367052099201828","0.353765899781138","1","1","1","1","1","1","1","1","1"
"250002","img/neutralC/CFD-BM-251-013-N.jpg","img/neutralC/CFD-BM-248-128-N.jpg","img/neutralC/CFD-MM-317-061-N.jpg","1","1","1","1","0","1","0.353765899781138","0.592182499822229","0.387637999374419","1","1","1","1","1","1","1","1","1"
"250002","img/neutralC/CFD-MM-317-061-N.jpg","img/neutralC/CFD-BM-251-013-N.jpg","img/neutralC/CFD-IM-646-023-N.jpg","1","1","1","1","1","1","0.387637999374419","0.353765899781138","0.324065199587494","1","1","1","1","1","1","1","1","1"
"250002","img/neutralC/CFD-IM-646-023-N.jpg","img/neutralC/CFD-MM-317-061-N.jpg","img/neutralC/CFD-IF-642-295-N.jpg","1","1","1","1","1","1","0.324065199587494","0.387637999374419","0.437299499753863","1","1","1","1","1","1","1","1","1"
"250002","img/neutralC/CFD-IF-642-295-N.jpg","img/neutralC/CFD-IM-646-023-N.jpg","img/neutralC/CFD-MF-309-002-N.jpg","1","1","1","1","1","0","0.437299499753863","0.324065199587494","0.616349199321121","1","1","1","1","1","1","1","1","1"
"250002","img/neutralC/CFD-MF-309-002-N.jpg","img/neutralC/CFD-IF-642-295-N.jpg","img/neutralC/CFD-IM-648-337-N.jpg","1","1","1","0","1","0","0.616349199321121","0.437299499753863","0.397770499810576","1","1","1","1","1","1","1","1","1"
"250002","img/neutralC/CFD-IM-648-337-N.jpg","img/neutralC/CFD-MF-309-002-N.jpg",NA,"1","1",NA,"0","0",NA,"0.397770499810576","0.616349199321121",NA,"1","1",NA,"1","1",NA,"1","1",NA
"250002","img/neutralC/CFD-IM-632-097-N.jpg",NA,"img/neutralC/CFD-BF-206-143-N.jpg","1",NA,"1","0",NA,"1","0.571344299707562",NA,"0.438033999409527","1",NA,"1","1",NA,"1","1",NA,"1"
"250002","img/neutralC/CFD-BF-206-143-N.jpg","img/neutralC/CFD-IM-632-097-N.jpg","img/neutralC/CFD-IM-669-111-N.jpg","1","1","1","1","0","1","0.438033999409527","0.571344299707562","0.323850299697369","1","1","1","1","1","1","1","1","1"
"250002","img/neutralC/CFD-IM-669-111-N.jpg","img/neutralC/CFD-BF-206-143-N.jpg","img/neutralC/CFD-BF-040-003-N.jpg","1","1","1","1","1","1","0.323850299697369","0.438033999409527","0.305557399522513","1","1","1","1","1","1","1","1","1"
"250002","img/neutralC/CFD-BF-040-003-N.jpg","img/neutralC/CFD-IM-669-111-N.jpg","img/neutralC/CFD-MF-302-027-N.jpg","1","1","0","1","1","0","0.305557399522513","0.323850299697369","0.316231999546289","1","1","1","1","1","1","1","1","1"
"250002","img/neutralC/CFD-MF-302-027-N.jpg","img/neutralC/CFD-BF-040-003-N.jpg","img/neutralC/CFD-AF-246-242-N.jpg","0","1","1","0","1","0","0.316231999546289","0.305557399522513","0.475576699711382","1","1","1","1","1","1","1","1","1"
"250002","img/neutralC/CFD-AF-246-242-N.jpg","img/neutralC/CFD-MF-302-027-N.jpg","img/neutralC/CFD-IF-732-260-N.jpg","1","0","1","0","0","0","0.475576699711382","0.316231999546289","0.450925199780613","1","1","1","1","1","1","1","1","1"
"250002","img/neutralC/CFD-IF-732-260-N.jpg","img/neutralC/CFD-AF-246-242-N.jpg","img/neutralC/CFD-BF-217-189-N.jpg","1","1","1","0","0","0","0.450925199780613","0.475576699711382","0.41569779952988","1","1","1","1","1","1","1","1","1"
"250002","img/neutralC/CFD-BF-217-189-N.jpg","img/neutralC/CFD-IF-732-260-N.jpg","img/neutralC/CFD-LM-241-125-N.jpg","1","1","1","0","0","1","0.41569779952988","0.450925199780613","0.407196799758822","1","1","1","1","1","1","1","1","1"
"250002","img/neutralC/CFD-LM-241-125-N.jpg","img/neutralC/CFD-BF-217-189-N.jpg","img/neutralC/CFD-IM-678-482-N.jpg","1","1","1","1","0","0","0.407196799758822","0.41569779952988","0.391976200044155","1","1","1","1","1","1","1","1","1"
"250002","img/neutralC/CFD-IM-678-482-N.jpg","img/neutralC/CFD-LM-241-125-N.jpg","img/neutralC/CFD-BM-004-002-N.jpg","1","1","1","0","1","0","0.391976200044155","0.407196799758822","0.426938799675554","1","1","1","1","1","1","1","1","1"
"250002","img/neutralC/CFD-BM-004-002-N.jpg","img/neutralC/CFD-IM-678-482-N.jpg","img/neutralC/CFD-AM-225-102-N.jpg","1","1","1","0","0","0","0.426938799675554","0.391976200044155","0.396728199906647","1","1","1","1","1","1","1","1","1"
"250002","img/neutralC/CFD-AM-225-102-N.jpg","img/neutralC/CFD-BM-004-002-N.jpg","img/neutralC/CFD-MF-307-002-N.jpg","1","1","1","0","0","1","0.396728199906647","0.426938799675554","0.325437299907207","1","1","1","1","1","1","1","1","1"
"250002","img/neutralC/CFD-MF-307-002-N.jpg","img/neutralC/CFD-AM-225-102-N.jpg","img/neutralC/CFD-LM-204-001-N.jpg","1","1","1","1","0","0","0.325437299907207","0.396728199906647","0.426324899774045","1","1","1","1","1","1","1","1","1"
"250002","img/neutralC/CFD-LM-204-001-N.jpg","img/neutralC/CFD-MF-307-002-N.jpg","img/neutralC/CFD-AF-244-168-N.jpg","1","1","1","0","1","0","0.426324899774045","0.325437299907207","0.475068399682641","1","1","1","1","1","1","1","1","1"
"250002","img/neutralC/CFD-AF-244-168-N.jpg","img/neutralC/CFD-LM-204-001-N.jpg","img/neutralC/CFD-AM-245-111-N.jpg","1","1","1","0","0","1","0.475068399682641","0.426324899774045","0.357694799546152","1","1","1","1","1","1","1","1","1"
"250002","img/neutralC/CFD-AM-245-111-N.jpg","img/neutralC/CFD-AF-244-168-N.jpg","img/neutralC/CFD-IF-636-011-N.jpg","1","1","1","1","0","1","0.357694799546152","0.475068399682641","0.420725399628282","1","1","1","1","1","1","1","1","1"
"250002","img/neutralC/CFD-IF-636-011-N.jpg","img/neutralC/CFD-AM-245-111-N.jpg","img/neutralC/CFD-WM-018-002-N.jpg","1","1","1","1","1","0","0.420725399628282","0.357694799546152","0.40825970005244","1","1","1","1","1","1","1","1","1"
"250002","img/neutralC/CFD-WM-018-002-N.jpg","img/neutralC/CFD-IF-636-011-N.jpg","img/neutralC/CFD-AF-250-200-N.jpg","1","1","1","0","1","1","0.40825970005244","0.420725399628282","0.349291499704123","1","1","1","1","1","1","1","1","1"
"250002","img/neutralC/CFD-AF-250-200-N.jpg","img/neutralC/CFD-WM-018-002-N.jpg","img/neutralC/CFD-AF-234-208-N.jpg","1","1","1","1","0","1","0.349291499704123","0.40825970005244","0.362836199812591","1","1","1","1","1","1","1","1","1"
"250002","img/neutralC/CFD-AF-234-208-N.jpg","img/neutralC/CFD-AF-250-200-N.jpg","img/neutralC/CFD-BF-020-002-N.jpg","1","1","1","1","1","1","0.362836199812591","0.349291499704123","0.351535799447447","1","1","1","1","1","1","1","1","1"
"250002","img/neutralC/CFD-BF-020-002-N.jpg","img/neutralC/CFD-AF-234-208-N.jpg","img/neutralC/CFD-IM-635-010-N.jpg","1","1","1","1","1","1","0.351535799447447","0.362836199812591","0.377477099653333","1","1","1","1","1","1","1","1","1"
"250002","img/neutralC/CFD-IM-635-010-N.jpg","img/neutralC/CFD-BF-020-002-N.jpg","img/neutralC/CFD-BF-042-026-N.jpg","1","1","1","1","1","1","0.377477099653333","0.351535799447447","0.372993099503219","1","1","1","1","1","1","1","1","1"
"250002","img/neutralC/CFD-BF-042-026-N.jpg","img/neutralC/CFD-IM-635-010-N.jpg","img/neutralC/CFD-AF-213-126-N.jpg","1","1","1","1","1","1","0.372993099503219","0.377477099653333","0.39388439944014","1","1","1","1","1","1","1","1","1"
"250002","img/neutralC/CFD-AF-213-126-N.jpg","img/neutralC/CFD-BF-042-026-N.jpg","img/neutralC/CFD-WM-253-119-N.jpg","1","1","1","1","1","1","0.39388439944014","0.372993099503219","0.382049199659377","1","1","1","1","1","1","1","1","1"
"250002","img/neutralC/CFD-WM-253-119-N.jpg","img/neutralC/CFD-AF-213-126-N.jpg","img/neutralC/CFD-AM-233-236-N.jpg","1","1","1","1","1","1","0.382049199659377","0.39388439944014","0.39300199970603","1","1","1","1","1","1","1","1","1"
"250002","img/neutralC/CFD-AM-233-236-N.jpg","img/neutralC/CFD-WM-253-119-N.jpg","img/neutralC/CFD-WF-235-121-N.jpg","1","1","1","1","1","0","0.39300199970603","0.382049199659377","0.449249399825931","1","1","1","1","1","1","1","1","1"
"250002","img/neutralC/CFD-WF-235-121-N.jpg","img/neutralC/CFD-AM-233-236-N.jpg","img/neutralC/CFD-BF-235-168-N.jpg","1","1","1","0","1","1","0.449249399825931","0.39300199970603","0.404785999562591","1","1","1","1","1","1","1","1","1"
"250002","img/neutralC/CFD-BF-235-168-N.jpg","img/neutralC/CFD-WF-235-121-N.jpg","img/neutralC/CFD-LF-239-148-N.jpg","1","1","1","1","0","0","0.404785999562591","0.449249399825931","0.516897500026971","1","1","1","1","1","1","1","1","1"
"250002","img/neutralC/CFD-LF-239-148-N.jpg","img/neutralC/CFD-BF-235-168-N.jpg","img/neutralC/CFD-WF-210-086-N.jpg","1","1","1","0","1","0","0.516897500026971","0.404785999562591","0.402678999584168","1","1","1","1","1","1","1","1","1"
"250002","img/neutralC/CFD-WF-210-086-N.jpg","img/neutralC/CFD-LF-239-148-N.jpg","img/neutralC/CFD-AF-205-155-N.jpg","1","1","1","0","0","0","0.402678999584168","0.516897500026971","0.338615699671209","1","1","1","1","1","1","1","1","1"
"250002","img/neutralC/CFD-AF-205-155-N.jpg","img/neutralC/CFD-WF-210-086-N.jpg","img/neutralC/CFD-BM-215-155-N.jpg","1","1","1","0","0","0","0.338615699671209","0.402678999584168","0.433944499585778","1","1","1","1","1","1","1","1","1"
"250002","img/neutralC/CFD-BM-215-155-N.jpg","img/neutralC/CFD-AF-205-155-N.jpg",NA,"1","1",NA,"0","0",NA,"0.433944499585778","0.338615699671209",NA,"1","1",NA,"1","1",NA,"1","1",NA
"250002","img/neutralC/CFD-MF-342-022-N.jpg",NA,"img/neutralC/CFD-MF-321-003-N.jpg","1",NA,"1","1",NA,"0","0.558115699794143",NA,"0.422071999404579","1",NA,"1","1",NA,"1","1",NA,"1"
"250002","img/neutralC/CFD-MF-321-003-N.jpg","img/neutralC/CFD-MF-342-022-N.jpg","img/neutralC/CFD-LF-215-157-N.jpg","1","1","1","0","1","0","0.422071999404579","0.558115699794143","0.425551999825984","1","1","1","1","1","1","1","1","1"
"250002","img/neutralC/CFD-LF-215-157-N.jpg","img/neutralC/CFD-MF-321-003-N.jpg","img/neutralC/CFD-IM-627-178-N.jpg","1","1","1","0","0","1","0.425551999825984","0.422071999404579","0.354119599796832","1","1","1","1","1","1","1","1","1"
"250002","img/neutralC/CFD-IM-627-178-N.jpg","img/neutralC/CFD-LF-215-157-N.jpg","img/neutralC/CFD-IF-629-234-N.jpg","1","1","1","1","0","0","0.354119599796832","0.425551999825984","0.40232429979369","1","1","1","1","1","1","1","1","1"
"250002","img/neutralC/CFD-IF-629-234-N.jpg","img/neutralC/CFD-IM-627-178-N.jpg","img/neutralC/CFD-BF-218-207-N.jpg","1","1","1","0","1","1","0.40232429979369","0.354119599796832","0.424318199977279","1","1","1","1","1","1","1","1","1"
"250002","img/neutralC/CFD-BF-218-207-N.jpg","img/neutralC/CFD-IF-629-234-N.jpg","img/neutralC/CFD-WM-221-091-N.jpg","1","1","1","1","0","0","0.424318199977279","0.40232429979369","0.462462299503386","1","1","1","1","1","1","1","1","1"
"250002","img/neutralC/CFD-WM-221-091-N.jpg","img/neutralC/CFD-BF-218-207-N.jpg","img/neutralC/CFD-WM-013-001-N.jpg","1","1","1","0","1","1","0.462462299503386","0.424318199977279","0.365594299510121","1","1","1","1","1","1","1","1","1"
"250002","img/neutralC/CFD-WM-013-001-N.jpg","img/neutralC/CFD-WM-221-091-N.jpg","img/neutralC/CFD-WF-023-003-N.jpg","1","1","1","1","0","1","0.365594299510121","0.462462299503386","0.420919899363071","1","1","1","1","1","1","1","1","1"
"250002","img/neutralC/CFD-WF-023-003-N.jpg","img/neutralC/CFD-WM-013-001-N.jpg","img/neutralC/CFD-AM-244-222-N.jpg","1","1","1","1","1","0","0.420919899363071","0.365594299510121","0.4677878995426","1","1","1","1","1","1","1","1","1"
"250002","img/neutralC/CFD-AM-244-222-N.jpg","img/neutralC/CFD-WF-023-003-N.jpg","img/neutralC/CFD-IM-719-221-N.jpg","1","1","1","0","1","0","0.4677878995426","0.420919899363071","0.457298799417913","1","1","1","1","1","1","1","1","1"
"250002","img/neutralC/CFD-IM-719-221-N.jpg","img/neutralC/CFD-AM-244-222-N.jpg","img/neutralC/CFD-AF-232-078-N.jpg","1","1","1","0","0","1","0.457298799417913","0.4677878995426","0.388946299441159","1","1","1","1","1","1","1","1","1"
"250002","img/neutralC/CFD-AF-232-078-N.jpg","img/neutralC/CFD-IM-719-221-N.jpg","img/neutralC/CFD-WM-009-002-N.jpg","1","1","1","1","0","0","0.388946299441159","0.457298799417913","0.458143800031394","1","1","1","1","1","1","1","1","1"
"250002","img/neutralC/CFD-WM-009-002-N.jpg","img/neutralC/CFD-AF-232-078-N.jpg","img/neutralC/CFD-LF-211-003-N.jpg","1","1","1","0","1","0","0.458143800031394","0.388946299441159","0.508154899347574","1","1","1","1","1","1","1","1","1"
"250002","img/neutralC/CFD-LF-211-003-N.jpg","img/neutralC/CFD-WM-009-002-N.jpg","img/neutralC/CFD-WF-245-084-N.jpg","1","1","1","0","0","1","0.508154899347574","0.458143800031394","0.4042385998182","1","1","1","1","1","1","1","1","1"
"250002","img/neutralC/CFD-WF-245-084-N.jpg","img/neutralC/CFD-LF-211-003-N.jpg","img/neutralC/CFD-AF-221-147-N.jpg","1","1","1","1","0","0","0.4042385998182","0.508154899347574","0.393202599603683","1","1","1","1","1","1","1","1","1"
"250002","img/neutralC/CFD-AF-221-147-N.jpg","img/neutralC/CFD-WF-245-084-N.jpg","img/neutralC/CFD-BM-023-029-N.jpg","1","1","1","0","1","1","0.393202599603683","0.4042385998182","0.369902399834245","1","1","1","1","1","1","1","1","1"
"250002","img/neutralC/CFD-BM-023-029-N.jpg","img/neutralC/CFD-AF-221-147-N.jpg","img/neutralC/CFD-WM-237-052-N.jpg","1","1","1","1","0","1","0.369902399834245","0.393202599603683","0.318312699906528","1","1","1","1","1","1","1","1","1"
"250002","img/neutralC/CFD-WM-237-052-N.jpg","img/neutralC/CFD-BM-023-029-N.jpg","img/neutralC/CFD-BM-204-003-N.jpg","1","1","1","1","1","0","0.318312699906528","0.369902399834245","0.389366299845278","1","1","1","1","1","1","1","1","1"
"250002","img/neutralC/CFD-BM-204-003-N.jpg","img/neutralC/CFD-WM-237-052-N.jpg","img/neutralC/CFD-WF-027-003-N.jpg","1","1","1","0","1","1","0.389366299845278","0.318312699906528","0.31533269956708","1","1","1","1","1","1","1","1","1"
"250002","img/neutralC/CFD-WF-027-003-N.jpg","img/neutralC/CFD-BM-204-003-N.jpg","img/neutralC/CFD-WM-201-063-N.jpg","1","1","1","1","0","1","0.31533269956708","0.389366299845278","0.423619899433106","1","1","1","1","1","1","1","1","1"
"250002","img/neutralC/CFD-WM-201-063-N.jpg","img/neutralC/CFD-WF-027-003-N.jpg","img/neutralC/CFD-WF-018-017-N.jpg","1","1","1","1","1","1","0.423619899433106","0.31533269956708","0.436719899531454","1","1","1","1","1","1","1","1","1"
"250002","img/neutralC/CFD-WF-018-017-N.jpg","img/neutralC/CFD-WM-201-063-N.jpg","img/neutralC/CFD-BM-200-046-N.jpg","1","1","1","1","1","0","0.436719899531454","0.423619899433106","0.414531899616122","1","1","1","1","1","1","1","1","1"
"250002","img/neutralC/CFD-BM-200-046-N.jpg","img/neutralC/CFD-WF-018-017-N.jpg","img/neutralC/CFD-WF-238-023-N.jpg","1","1","1","0","1","0","0.414531899616122","0.436719899531454","0.381471399683505","1","1","1","1","1","1","1","1","1"
"250002","img/neutralC/CFD-WF-238-023-N.jpg","img/neutralC/CFD-BM-200-046-N.jpg","img/neutralC/CFD-MF-318-022-N.jpg","1","1","1","0","0","1","0.381471399683505","0.414531899616122","0.400408099405468","1","1","1","1","1","1","1","1","1"
"250002","img/neutralC/CFD-MF-318-022-N.jpg","img/neutralC/CFD-WF-238-023-N.jpg","img/neutralC/CFD-BF-018-039-N.jpg","1","1","1","1","0","1","0.400408099405468","0.381471399683505","0.304088599514216","1","1","1","1","1","1","1","1","1"
"250002","img/neutralC/CFD-BF-018-039-N.jpg","img/neutralC/CFD-MF-318-022-N.jpg","img/neutralC/CFD-BF-254-201-N.jpg","1","1","1","1","1","0","0.304088599514216","0.400408099405468","0.314811499789357","1","1","1","1","1","1","1","1","1"
"250002","img/neutralC/CFD-BF-254-201-N.jpg","img/neutralC/CFD-BF-018-039-N.jpg","img/neutralC/CFD-LM-253-075-N.jpg","1","1","1","0","1","0","0.314811499789357","0.304088599514216","0.382550199516118","1","1","1","1","1","1","1","1","1"
"250002","img/neutralC/CFD-LM-253-075-N.jpg","img/neutralC/CFD-BF-254-201-N.jpg","img/neutralC/CFD-WM-255-219-N.jpg","1","1","1","0","0","0","0.382550199516118","0.314811499789357","0.39910849975422","1","1","1","1","1","1","1","1","1"
"250002","img/neutralC/CFD-WM-255-219-N.jpg","img/neutralC/CFD-LM-253-075-N.jpg","img/neutralC/CFD-WF-226-095-N.jpg","1","1","1","0","0","1","0.39910849975422","0.382550199516118","0.423572099767625","1","1","1","1","1","1","1","1","1"
"250002","img/neutralC/CFD-WF-226-095-N.jpg","img/neutralC/CFD-WM-255-219-N.jpg","img/neutralC/CFD-IM-700-009-N.jpg","1","1","1","1","0","1","0.423572099767625","0.39910849975422","0.393730199895799","1","1","1","1","1","1","1","1","1"
"250002","img/neutralC/CFD-IM-700-009-N.jpg","img/neutralC/CFD-WF-226-095-N.jpg","img/neutralC/CFD-MM-321-021-N.jpg","1","1","1","1","1","0","0.393730199895799","0.423572099767625","0.402520299889147","1","1","1","1","1","1","1","1","1"
"250002","img/neutralC/CFD-MM-321-021-N.jpg","img/neutralC/CFD-IM-700-009-N.jpg",NA,"1","1",NA,"0","1",NA,"0.402520299889147","0.393730199895799",NA,"1","1",NA,"1","1",NA,"1","1",NA
"250002","img/neutralC/CFD-IF-672-305-N.jpg",NA,"img/neutralC/CFD-LF-236-221-N.jpg","1",NA,"1","0",NA,"1","0.782403299584985",NA,"0.359889499843121","1",NA,"1","1",NA,"1","1",NA,"1"
"250002","img/neutralC/CFD-LF-236-221-N.jpg","img/neutralC/CFD-IF-672-305-N.jpg","img/neutralC/CFD-IM-674-281-N.jpg","1","1","1","1","0","1","0.359889499843121","0.782403299584985","0.378861199598759","1","1","1","1","1","1","1","1","1"
"250002","img/neutralC/CFD-IM-674-281-N.jpg","img/neutralC/CFD-LF-236-221-N.jpg","img/neutralC/CFD-BM-029-024-N.jpg","1","1","1","1","1","1","0.378861199598759","0.359889499843121","0.379985799547285","1","1","1","1","1","1","1","1","1"
"250002","img/neutralC/CFD-BM-029-024-N.jpg","img/neutralC/CFD-IM-674-281-N.jpg","img/neutralC/CFD-AM-235-241-N.jpg","1","1","1","1","1","0","0.379985799547285","0.378861199598759","0.491495099849999","1","1","1","1","1","1","1","1","1"
"250002","img/neutralC/CFD-AM-235-241-N.jpg","img/neutralC/CFD-BM-029-024-N.jpg","img/neutralC/CFD-WM-225-127-N.jpg","1","1","1","0","1","0","0.491495099849999","0.379985799547285","0.447138899937272","1","1","1","1","1","1","1","1","1"
"250002","img/neutralC/CFD-WM-225-127-N.jpg","img/neutralC/CFD-AM-235-241-N.jpg","img/neutralC/CFD-IM-639-263-N.jpg","1","1","1","0","0","1","0.447138899937272","0.491495099849999","0.309701099526137","1","1","1","1","1","1","1","1","1"
"250002","img/neutralC/CFD-IM-639-263-N.jpg","img/neutralC/CFD-WM-225-127-N.jpg","img/neutralC/CFD-WF-002-004-N.jpg","1","1","1","1","0","0","0.309701099526137","0.447138899937272","0.502146599814296","1","1","1","1","1","1","1","1","1"
"250002","img/neutralC/CFD-WF-002-004-N.jpg","img/neutralC/CFD-IM-639-263-N.jpg","img/neutralC/CFD-BM-015-015-N.jpg","1","1","1","0","1","0","0.502146599814296","0.309701099526137","0.497368199750781","1","1","1","1","1","1","1","1","1"
"250002","img/neutralC/CFD-BM-015-015-N.jpg","img/neutralC/CFD-WF-002-004-N.jpg","img/neutralC/CFD-WM-040-022-N.jpg","1","1","1","0","0","0","0.497368199750781","0.502146599814296","0.43876519985497","1","1","1","1","1","1","1","1","1"
"250002","img/neutralC/CFD-WM-040-022-N.jpg","img/neutralC/CFD-BM-015-015-N.jpg","img/neutralC/CFD-BF-255-140-N.jpg","1","1","1","0","0","1","0.43876519985497","0.497368199750781","0.408634399529546","1","1","1","1","1","1","1","1","1"
"250002","img/neutralC/CFD-BF-255-140-N.jpg","img/neutralC/CFD-WM-040-022-N.jpg","img/neutralC/CFD-BF-208-266-N.jpg","1","1","1","1","0","0","0.408634399529546","0.43876519985497","0.510544999502599","1","1","1","1","1","1","1","1","1"
"250002","img/neutralC/CFD-BF-208-266-N.jpg","img/neutralC/CFD-BF-255-140-N.jpg","img/neutralC/CFD-IF-718-001-N.jpg","1","1","1","0","1","1","0.510544999502599","0.408634399529546","0.357691499404609","1","1","1","1","1","1","1","1","1"
"250002","img/neutralC/CFD-IF-718-001-N.jpg","img/neutralC/CFD-BF-208-266-N.jpg","img/neutralC/CFD-BM-027-001-N.jpg","1","1","1","1","0","0","0.357691499404609","0.510544999502599","0.421808599494398","1","1","1","1","1","1","1","1","1"
"250002","img/neutralC/CFD-BM-027-001-N.jpg","img/neutralC/CFD-IF-718-001-N.jpg","img/neutralC/CFD-BF-028-001-N.jpg","1","1","1","0","1","1","0.421808599494398","0.357691499404609","0.33014789968729","1","1","1","1","1","1","1","1","1"
"250002","img/neutralC/CFD-BF-028-001-N.jpg","img/neutralC/CFD-BM-027-001-N.jpg","img/neutralC/CFD-BF-023-010-N.jpg","1","1","1","1","0","1","0.33014789968729","0.421808599494398","0.382989099714905","1","1","1","1","1","1","1","1","1"
"250002","img/neutralC/CFD-BF-023-010-N.jpg","img/neutralC/CFD-BF-028-001-N.jpg","img/neutralC/CFD-WF-026-002-N.jpg","1","1","1","1","1","1","0.382989099714905","0.33014789968729","0.315397499594837","1","1","1","1","1","1","1","1","1"
"250002","img/neutralC/CFD-WF-026-002-N.jpg","img/neutralC/CFD-BF-023-010-N.jpg","img/neutralC/CFD-MM-319-052-N.jpg","1","1","1","1","1","1","0.315397499594837","0.382989099714905","0.361613699700683","1","1","1","1","1","1","1","1","1"
"250002","img/neutralC/CFD-MM-319-052-N.jpg","img/neutralC/CFD-WF-026-002-N.jpg","img/neutralC/CFD-BF-201-080-N.jpg","1","1","1","1","1","1","0.361613699700683","0.315397499594837","0.405264999717474","1","1","1","1","1","1","1","1","1"
"250002","img/neutralC/CFD-BF-201-080-N.jpg","img/neutralC/CFD-MM-319-052-N.jpg","img/neutralC/CFD-WM-002-009-N.jpg","1","1","1","1","1","0","0.405264999717474","0.361613699700683","0.416463099885732","1","1","1","1","1","1","1","1","1"
"250002","img/neutralC/CFD-WM-002-009-N.jpg","img/neutralC/CFD-BF-201-080-N.jpg","img/neutralC/CFD-AM-215-120-N.jpg","1","1","1","0","1","1","0.416463099885732","0.405264999717474","0.417693499475718","1","1","1","1","1","1","1","1","1"
"250002","img/neutralC/CFD-AM-215-120-N.jpg","img/neutralC/CFD-WM-002-009-N.jpg","img/neutralC/CFD-LF-216-121-N.jpg","1","1","1","1","0","1","0.417693499475718","0.416463099885732","0.392588399816305","1","1","1","1","1","1","1","1","1"
"250002","img/neutralC/CFD-LF-216-121-N.jpg","img/neutralC/CFD-AM-215-120-N.jpg","img/neutralC/CFD-IM-728-041-N.jpg","1","1","1","1","1","0","0.392588399816305","0.417693499475718","0.305550899822265","1","1","1","1","1","1","1","1","1"
"250002","img/neutralC/CFD-IM-728-041-N.jpg","img/neutralC/CFD-LF-216-121-N.jpg","img/neutralC/CFD-BF-003-003-N.jpg","1","1","1","0","1","0","0.305550899822265","0.392588399816305","0.434626099653542","1","1","1","1","1","1","1","1","1"
"250002","img/neutralC/CFD-BF-003-003-N.jpg","img/neutralC/CFD-IM-728-041-N.jpg","img/neutralC/CFD-BM-211-174-N.jpg","1","1","1","0","0","0","0.434626099653542","0.305550899822265","0.419745299965143","1","1","1","1","1","1","1","1","1"
"250002","img/neutralC/CFD-BM-211-174-N.jpg","img/neutralC/CFD-BF-003-003-N.jpg","img/neutralC/CFD-BF-204-189-N.jpg","1","1","1","0","0","1","0.419745299965143","0.434626099653542","0.427907899487764","1","1","1","1","1","1","1","1","1"
"250002","img/neutralC/CFD-BF-204-189-N.jpg","img/neutralC/CFD-BM-211-174-N.jpg","img/neutralC/CFD-WM-038-003-N.jpg","1","1","1","1","0","0","0.427907899487764","0.419745299965143","0.450631499290466","1","1","1","1","1","1","1","1","1"
"250002","img/neutralC/CFD-WM-038-003-N.jpg","img/neutralC/CFD-BF-204-189-N.jpg","img/neutralC/CFD-LM-252-076-N.jpg","1","1","1","0","1","1","0.450631499290466","0.427907899487764","0.357710999902338","1","1","1","1","1","1","1","1","1"
"250002","img/neutralC/CFD-LM-252-076-N.jpg","img/neutralC/CFD-WM-038-003-N.jpg","img/neutralC/CFD-WF-022-017-N.jpg","1","1","1","1","0","0","0.357710999902338","0.450631499290466","0.473682699725032","1","1","1","1","1","1","1","1","1"
"250002","img/neutralC/CFD-WF-022-017-N.jpg","img/neutralC/CFD-LM-252-076-N.jpg","img/neutralC/CFD-AM-217-085-N.jpg","1","1","1","0","1","0","0.473682699725032","0.357710999902338","0.550086999777704","1","1","1","1","1","1","1","1","1"
"250002","img/neutralC/CFD-AM-217-085-N.jpg","img/neutralC/CFD-WF-022-017-N.jpg","img/neutralC/CFD-WM-257-161-N.jpg","1","1","1","0","0","1","0.550086999777704","0.473682699725032","0.402279199566692","1","1","1","1","1","1","1","1","1"
"250002","img/neutralC/CFD-WM-257-161-N.jpg","img/neutralC/CFD-AM-217-085-N.jpg","img/neutralC/CFD-BM-247-240-N.jpg","1","1","1","1","0","0","0.402279199566692","0.550086999777704","0.396287199575454","1","1","1","1","1","1","1","1","1"
"250002","img/neutralC/CFD-BM-247-240-N.jpg","img/neutralC/CFD-WM-257-161-N.jpg",NA,"1","1",NA,"0","1",NA,"0.396287199575454","0.402279199566692",NA,"1","1",NA,"1","1",NA,"1","1",NA
"250002","img/neutralC/CFD-LM-218-183-N.jpg",NA,"img/neutralC/CFD-AF-231-357-N.jpg","1",NA,"1","1",NA,"1","0.424122699536383",NA,"0.391217699740082","1",NA,"1","1",NA,"1","1",NA,"1"
"250002","img/neutralC/CFD-AF-231-357-N.jpg","img/neutralC/CFD-LM-218-183-N.jpg","img/neutralC/CFD-AM-212-050-N.jpg","1","1","1","1","1","1","0.391217699740082","0.424122699536383","0.311326899565756","1","1","1","1","1","1","1","1","1"
"250002","img/neutralC/CFD-AM-212-050-N.jpg","img/neutralC/CFD-AF-231-357-N.jpg","img/neutralC/CFD-BF-213-188-N.jpg","1","1","1","1","1","1","0.311326899565756","0.391217699740082","0.35080899996683","1","1","1","1","1","1","1","1","1"
"250002","img/neutralC/CFD-BF-213-188-N.jpg","img/neutralC/CFD-AM-212-050-N.jpg","img/neutralC/CFD-WF-213-031-N.jpg","1","1","1","1","1","1","0.35080899996683","0.311326899565756","0.310162599664181","1","1","1","1","1","1","1","1","1"
"250002","img/neutralC/CFD-WF-213-031-N.jpg","img/neutralC/CFD-BF-213-188-N.jpg","img/neutralC/CFD-WF-250-167-N.jpg","1","1","1","1","1","1","0.310162599664181","0.35080899996683","0.327679599635303","1","1","1","1","1","1","1","1","1"
"250002","img/neutralC/CFD-WF-250-167-N.jpg","img/neutralC/CFD-WF-213-031-N.jpg","img/neutralC/CFD-LF-214-090-N.jpg","1","1","1","1","1","0","0.327679599635303","0.310162599664181","0.422249399591237","1","1","1","1","1","1","1","1","1"
"250002","img/neutralC/CFD-LF-214-090-N.jpg","img/neutralC/CFD-WF-250-167-N.jpg","img/neutralC/CFD-LM-215-247-N.jpg","1","1","1","0","1","0","0.422249399591237","0.327679599635303","0.396126799751073","1","1","1","1","1","1","1","1","1"
"250002","img/neutralC/CFD-LM-215-247-N.jpg","img/neutralC/CFD-LF-214-090-N.jpg","img/neutralC/CFD-WF-224-099-N.jpg","1","1","1","0","0","0","0.396126799751073","0.422249399591237","0.420127099379897","1","1","1","1","1","1","1","1","1"
"250002","img/neutralC/CFD-WF-224-099-N.jpg","img/neutralC/CFD-LM-215-247-N.jpg","img/neutralC/CFD-MF-337-026-N.jpg","1","1","1","0","0","1","0.420127099379897","0.396126799751073","0.371710199862719","1","1","1","1","1","1","1","1","1"
"250002","img/neutralC/CFD-MF-337-026-N.jpg","img/neutralC/CFD-WF-224-099-N.jpg","img/neutralC/CFD-IF-710-016-N.jpg","1","1","1","1","0","0","0.371710199862719","0.420127099379897","0.355024999473244","1","1","1","1","1","1","1","1","1"
"250002","img/neutralC/CFD-IF-710-016-N.jpg","img/neutralC/CFD-MF-337-026-N.jpg","img/neutralC/CFD-BF-029-031-N.jpg","1","1","1","0","1","1","0.355024999473244","0.371710199862719","0.334279499482363","1","1","1","1","1","1","1","1","1"
"250002","img/neutralC/CFD-BF-029-031-N.jpg","img/neutralC/CFD-IF-710-016-N.jpg","img/neutralC/CFD-MM-316-156-N.jpg","1","1","1","1","0","1","0.334279499482363","0.355024999473244","0.346679099835455","1","1","1","1","1","1","1","1","1"
"250002","img/neutralC/CFD-MM-316-156-N.jpg","img/neutralC/CFD-BF-029-031-N.jpg","img/neutralC/CFD-AM-201-076-N.jpg","1","1","1","1","1","1","0.346679099835455","0.334279499482363","0.320229099597782","1","1","1","1","1","1","1","1","1"
"250002","img/neutralC/CFD-AM-201-076-N.jpg","img/neutralC/CFD-MM-316-156-N.jpg","img/neutralC/CFD-WM-041-021-N.jpg","1","1","1","1","1","0","0.320229099597782","0.346679099835455","0.376498699653894","1","1","1","1","1","1","1","1","1"
"250002","img/neutralC/CFD-WM-041-021-N.jpg","img/neutralC/CFD-AM-201-076-N.jpg","img/neutralC/CFD-BM-239-136-N.jpg","1","1","1","0","1","1","0.376498699653894","0.320229099597782","0.420148299541324","1","1","1","1","1","1","1","1","1"
"250002","img/neutralC/CFD-BM-239-136-N.jpg","img/neutralC/CFD-WM-041-021-N.jpg","img/neutralC/CFD-LF-224-176-N.jpg","1","1","1","1","0","0","0.420148299541324","0.376498699653894","0.435750599484891","1","1","1","1","1","1","1","1","1"
"250002","img/neutralC/CFD-LF-224-176-N.jpg","img/neutralC/CFD-BM-239-136-N.jpg","img/neutralC/CFD-BF-253-202-N.jpg","1","1","1","0","1","0","0.435750599484891","0.420148299541324","0.440405099652708","1","1","1","1","1","1","1","1","1"
"250002","img/neutralC/CFD-BF-253-202-N.jpg","img/neutralC/CFD-LF-224-176-N.jpg","img/neutralC/CFD-WM-021-001-N.jpg","1","1","1","0","0","1","0.440405099652708","0.435750599484891","0.352815099991858","1","1","1","1","1","1","1","1","1"
"250002","img/neutralC/CFD-WM-021-001-N.jpg","img/neutralC/CFD-BF-253-202-N.jpg","img/neutralC/CFD-LF-205-100-N.jpg","1","1","1","1","0","1","0.352815099991858","0.440405099652708","0.312653499655426","1","1","1","1","1","1","1","1","1"
"250002","img/neutralC/CFD-LF-205-100-N.jpg","img/neutralC/CFD-WM-021-001-N.jpg","img/neutralC/CFD-WM-011-002-N.jpg","1","1","1","1","1","0","0.312653499655426","0.352815099991858","0.390049299690872","1","1","1","1","1","1","1","1","1"
"250002","img/neutralC/CFD-WM-011-002-N.jpg","img/neutralC/CFD-LF-205-100-N.jpg","img/neutralC/CFD-IF-693-172-N.jpg","1","1","1","0","1","0","0.390049299690872","0.312653499655426","0.527610499411821","1","1","1","1","1","1","1","1","1"
"250002","img/neutralC/CFD-IF-693-172-N.jpg","img/neutralC/CFD-WM-011-002-N.jpg","img/neutralC/CFD-IF-634-382-N.jpg","1","1","1","0","0","1","0.527610499411821","0.390049299690872","0.320413399487734","1","1","1","1","1","1","1","1","1"
"250002","img/neutralC/CFD-IF-634-382-N.jpg","img/neutralC/CFD-IF-693-172-N.jpg","img/neutralC/CFD-BF-205-141-N.jpg","1","1","1","1","0","0","0.320413399487734","0.527610499411821","0.373668199405074","1","1","1","1","1","1","1","1","1"
"250002","img/neutralC/CFD-BF-205-141-N.jpg","img/neutralC/CFD-IF-634-382-N.jpg","img/neutralC/CFD-IM-651-308-N.jpg","1","1","1","0","1","0","0.373668199405074","0.320413399487734","0.335835399571806","1","1","1","1","1","1","1","1","1"
"250002","img/neutralC/CFD-IM-651-308-N.jpg","img/neutralC/CFD-BF-205-141-N.jpg","img/neutralC/CFD-LF-203-066-N.jpg","1","1","1","0","0","0","0.335835399571806","0.373668199405074","0.346573199611157","1","1","1","1","1","1","1","1","1"
"250002","img/neutralC/CFD-LF-203-066-N.jpg","img/neutralC/CFD-IM-651-308-N.jpg","img/neutralC/CFD-BF-039-031-N.jpg","1","1","1","0","0","1","0.346573199611157","0.335835399571806","0.298194299452007","1","1","1","1","1","1","1","1","1"
"250002","img/neutralC/CFD-BF-039-031-N.jpg","img/neutralC/CFD-LF-203-066-N.jpg","img/neutralC/CFD-BM-033-003-N.jpg","1","1","1","1","0","0","0.298194299452007","0.346573199611157","0.399975299835205","1","1","1","1","1","1","1","1","1"
"250002","img/neutralC/CFD-BM-033-003-N.jpg","img/neutralC/CFD-BF-039-031-N.jpg","img/neutralC/CFD-BM-041-035-N.jpg","1","1","1","0","1","0","0.399975299835205","0.298194299452007","0.394945599604398","1","1","1","1","1","1","1","1","1"
"250002","img/neutralC/CFD-BM-041-035-N.jpg","img/neutralC/CFD-BM-033-003-N.jpg","img/neutralC/CFD-IM-684-008-N.jpg","1","1","1","0","0","1","0.394945599604398","0.399975299835205","0.37912579998374","1","1","1","1","1","1","1","1","1"
"250002","img/neutralC/CFD-IM-684-008-N.jpg","img/neutralC/CFD-BM-041-035-N.jpg","img/neutralC/CFD-LF-230-203-N.jpg","1","1","1","1","0","0","0.37912579998374","0.394945599604398","0.457360799890012","1","1","1","1","1","1","1","1","1"
"250002","img/neutralC/CFD-LF-230-203-N.jpg","img/neutralC/CFD-IM-684-008-N.jpg","img/neutralC/CFD-BM-019-002-N.jpg","1","1","1","0","1","0","0.457360799890012","0.37912579998374","0.404026199597865","1","1","1","1","1","1","1","1","1"
"250002","img/neutralC/CFD-BM-019-002-N.jpg","img/neutralC/CFD-LF-230-203-N.jpg",NA,"1","1",NA,"0","0",NA,"0.404026199597865","0.457360799890012",NA,"1","1",NA,"1","1",NA,"1","1",NA
"250002","img/neutralC/CFD-LF-220-120-N.jpg",NA,"img/neutralC/CFD-LF-218-072-N.jpg","1",NA,"1","1",NA,"0","0.311939199920744",NA,"0.364915899466723","1",NA,"1","1",NA,"1","1",NA,"1"
"250002","img/neutralC/CFD-LF-218-072-N.jpg","img/neutralC/CFD-LF-220-120-N.jpg","img/neutralC/CFD-IF-650-315-N.jpg","1","1","0","0","1","0","0.364915899466723","0.311939199920744","0.348032899666578","1","1","1","1","1","1","1","1","1"
"250002","img/neutralC/CFD-IF-650-315-N.jpg","img/neutralC/CFD-LF-218-072-N.jpg","img/neutralC/CFD-LM-228-188-N.jpg","0","1","1","0","0","1","0.348032899666578","0.364915899466723","0.375758099835366","1","1","1","1","1","1","1","1","1"
"250002","img/neutralC/CFD-LM-228-188-N.jpg","img/neutralC/CFD-IF-650-315-N.jpg","img/neutralC/CFD-WF-001-003-N.jpg","1","0","1","1","0","1","0.375758099835366","0.348032899666578","0.301297299563885","1","1","1","1","1","1","1","1","1"
"250002","img/neutralC/CFD-WF-001-003-N.jpg","img/neutralC/CFD-LM-228-188-N.jpg","img/neutralC/CFD-WM-004-010-N.jpg","1","1","1","1","1","0","0.301297299563885","0.375758099835366","0.39664699928835","1","1","1","1","1","1","1","1","1"
"250002","img/neutralC/CFD-WM-004-010-N.jpg","img/neutralC/CFD-WF-001-003-N.jpg","img/neutralC/CFD-AM-251-124-N.jpg","1","1","0","0","1","0","0.39664699928835","0.301297299563885","0.385303899645805","1","1","1","1","1","1","1","1","1"
"250002","img/neutralC/CFD-AM-251-124-N.jpg","img/neutralC/CFD-WM-004-010-N.jpg","img/neutralC/CFD-WM-235-147-N.jpg","0","1","1","0","0","0","0.385303899645805","0.39664699928835","0.437329999636859","1","1","1","1","1","1","1","1","1"
"250002","img/neutralC/CFD-WM-235-147-N.jpg","img/neutralC/CFD-AM-251-124-N.jpg","img/neutralC/CFD-WF-214-122-N.jpg","1","0","1","0","0","1","0.437329999636859","0.385303899645805","0.384676199406385","1","1","1","1","1","1","1","1","1"
"250002","img/neutralC/CFD-WF-214-122-N.jpg","img/neutralC/CFD-WM-235-147-N.jpg","img/neutralC/CFD-WF-200-099-N.jpg","1","1","1","1","0","0","0.384676199406385","0.437329999636859","0.32624109974131","1","1","1","1","1","1","1","1","1"
"250002","img/neutralC/CFD-WF-200-099-N.jpg","img/neutralC/CFD-WF-214-122-N.jpg","img/neutralC/CFD-WM-033-025-N.jpg","1","1","1","0","1","1","0.32624109974131","0.384676199406385","0.37229699967429","1","1","1","1","1","1","1","1","1"
"250002","img/neutralC/CFD-WM-033-025-N.jpg","img/neutralC/CFD-WF-200-099-N.jpg","img/neutralC/CFD-IM-616-214-N.jpg","1","1","1","1","0","0","0.37229699967429","0.32624109974131","0.428881599567831","1","1","1","1","1","1","1","1","1"
"250002","img/neutralC/CFD-IM-616-214-N.jpg","img/neutralC/CFD-WM-033-025-N.jpg","img/neutralC/CFD-IM-671-601-N.jpg","1","1","0","0","1","0","0.428881599567831","0.37229699967429","0.405694599729031","1","1","1","1","1","1","1","1","2"
"250002","img/neutralC/CFD-IM-671-601-N.jpg","img/neutralC/CFD-IM-616-214-N.jpg","img/neutralC/CFD-MF-352-054-N.jpg","0","1","1","0","0","0","0.405694599729031","0.428881599567831","0.453763700090349","1","1","1","1","1","1","2","1","1"
"250002","img/neutralC/CFD-MF-352-054-N.jpg","img/neutralC/CFD-IM-671-601-N.jpg","img/neutralC/CFD-BM-225-154-N.jpg","1","0","1","0","0","1","0.453763700090349","0.405694599729031","0.38040279969573","1","1","1","1","1","1","1","2","1"
"250002","img/neutralC/CFD-BM-225-154-N.jpg","img/neutralC/CFD-MF-352-054-N.jpg","img/neutralC/CFD-MF-359-019-N.jpg","1","1","1","1","0","0","0.38040279969573","0.453763700090349","0.387121099513024","1","1","1","1","1","1","1","1","1"
"250002","img/neutralC/CFD-MF-359-019-N.jpg","img/neutralC/CFD-BM-225-154-N.jpg","img/neutralC/CFD-WF-036-023-N.jpg","1","1","1","0","1","0","0.387121099513024","0.38040279969573","0.421294299885631","1","1","1","1","1","1","1","1","1"
"250002","img/neutralC/CFD-WF-036-023-N.jpg","img/neutralC/CFD-MF-359-019-N.jpg","img/neutralC/CFD-BF-226-119-N.jpg","1","1","1","0","0","1","0.421294299885631","0.387121099513024","0.367433599662036","1","1","1","1","1","1","1","1","1"
"250002","img/neutralC/CFD-BF-226-119-N.jpg","img/neutralC/CFD-WF-036-023-N.jpg","img/neutralC/CFD-WM-219-008-N.jpg","1","1","1","1","0","0","0.367433599662036","0.421294299885631","0.330536499619484","1","1","1","1","1","1","1","1","1"
"250002","img/neutralC/CFD-WM-219-008-N.jpg","img/neutralC/CFD-BF-226-119-N.jpg","img/neutralC/CFD-IM-743-006-N.jpg","1","1","1","0","1","1","0.330536499619484","0.367433599662036","0.355744599830359","1","1","1","1","1","1","1","1","1"
"250002","img/neutralC/CFD-IM-743-006-N.jpg","img/neutralC/CFD-WM-219-008-N.jpg","img/neutralC/CFD-BF-229-179-N.jpg","1","1","1","1","0","0","0.355744599830359","0.330536499619484","0.447027799673378","1","1","1","1","1","1","1","1","1"
"250002","img/neutralC/CFD-BF-229-179-N.jpg","img/neutralC/CFD-IM-743-006-N.jpg","img/neutralC/CFD-IF-623-129-N.jpg","1","1","1","0","1","1","0.447027799673378","0.355744599830359","0.402470299508423","1","1","1","1","1","1","1","1","1"
"250002","img/neutralC/CFD-IF-623-129-N.jpg","img/neutralC/CFD-BF-229-179-N.jpg","img/neutralC/CFD-IM-645-001-N.jpg","1","1","1","1","0","0","0.402470299508423","0.447027799673378","0.358980199322104","1","1","1","1","1","1","1","1","1"
"250002","img/neutralC/CFD-IM-645-001-N.jpg","img/neutralC/CFD-IF-623-129-N.jpg","img/neutralC/CFD-BM-253-004-N.jpg","1","1","1","0","1","1","0.358980199322104","0.402470299508423","0.388143199495971","1","1","1","1","1","1","1","1","1"
"250002","img/neutralC/CFD-BM-253-004-N.jpg","img/neutralC/CFD-IM-645-001-N.jpg","img/neutralC/CFD-MF-333-012-N.jpg","1","1","0","1","0","0","0.388143199495971","0.358980199322104","0.424581399653107","1","1","1","1","1","1","1","1","1"
"250002","img/neutralC/CFD-MF-333-012-N.jpg","img/neutralC/CFD-BM-253-004-N.jpg","img/neutralC/CFD-BF-038-037-N.jpg","0","1","1","0","1","1","0.424581399653107","0.388143199495971","0.498059599660337","1","1","1","1","1","1","1","1","1"
"250002","img/neutralC/CFD-BF-038-037-N.jpg","img/neutralC/CFD-MF-333-012-N.jpg","img/neutralC/CFD-WM-020-001-N.jpg","1","0","1","1","0","1","0.498059599660337","0.424581399653107","0.410513199865818","1","1","1","1","1","1","1","1","1"
"250002","img/neutralC/CFD-WM-020-001-N.jpg","img/neutralC/CFD-BF-038-037-N.jpg","img/neutralC/CFD-AM-242-176-N.jpg","1","1","1","1","1","1","0.410513199865818","0.498059599660337","0.32710969960317","1","1","1","1","1","1","1","1","1"
"250002","img/neutralC/CFD-AM-242-176-N.jpg","img/neutralC/CFD-WM-020-001-N.jpg","img/neutralC/CFD-LM-237-264-N.jpg","1","1","1","1","1","0","0.32710969960317","0.410513199865818","0.397595899645239","1","1","1","1","1","1","1","1","1"
"250002","img/neutralC/CFD-LM-237-264-N.jpg","img/neutralC/CFD-AM-242-176-N.jpg","img/neutralC/CFD-IM-703-182-N.jpg","1","1","1","0","1","1","0.397595899645239","0.32710969960317","0.411482999566942","1","1","1","1","1","1","1","1","1"
"250002","img/neutralC/CFD-IM-703-182-N.jpg","img/neutralC/CFD-LM-237-264-N.jpg","img/neutralC/CFD-BF-232-187-N.jpg","1","1","1","1","0","1","0.411482999566942","0.397595899645239","0.410224699880928","1","1","1","1","1","1","1","1","1"
"250002","img/neutralC/CFD-BF-232-187-N.jpg","img/neutralC/CFD-IM-703-182-N.jpg","img/neutralC/CFD-AM-211-052-N.jpg","1","1","1","1","1","1","0.410224699880928","0.411482999566942","0.347726799547672","1","1","1","1","1","1","1","1","1"
"250002","img/neutralC/CFD-AM-211-052-N.jpg","img/neutralC/CFD-BF-232-187-N.jpg",NA,"1","1",NA,"1","1",NA,"0.347726799547672","0.410224699880928",NA,"1","1",NA,"1","1",NA,"1","1",NA
"250002","img/neutralC/CFD-BF-236-177-N.jpg",NA,"img/neutralC/CFD-BM-207-024-N.jpg","1",NA,"1","0",NA,"1","0.429285099264234",NA,"0.352837999816984","1",NA,"1","1",NA,"1","1",NA,"1"
"250002","img/neutralC/CFD-BM-207-024-N.jpg","img/neutralC/CFD-BF-236-177-N.jpg","img/neutralC/CFD-BF-036-027-N.jpg","1","1","0","1","0","0","0.352837999816984","0.429285099264234","0.333980699535459","1","1","1","1","1","1","1","1","1"
"250002","img/neutralC/CFD-BF-036-027-N.jpg","img/neutralC/CFD-BM-207-024-N.jpg","img/neutralC/CFD-IM-726-248-N.jpg","0","1","1","0","1","0","0.333980699535459","0.352837999816984","0.413573199417442","1","1","1","1","1","1","1","1","1"
"250002","img/neutralC/CFD-IM-726-248-N.jpg","img/neutralC/CFD-BF-036-027-N.jpg","img/neutralC/CFD-BF-002-001-N.jpg","1","0","1","0","0","0","0.413573199417442","0.333980699535459","0.51102039963007","1","1","1","1","1","1","1","1","1"
"250002","img/neutralC/CFD-BF-002-001-N.jpg","img/neutralC/CFD-IM-726-248-N.jpg","img/neutralC/CFD-BF-044-034-N.jpg","1","1","1","0","0","0","0.51102039963007","0.413573199417442","0.329924299847335","1","1","1","1","1","1","1","1","1"
"250002","img/neutralC/CFD-BF-044-034-N.jpg","img/neutralC/CFD-BF-002-001-N.jpg","img/neutralC/CFD-BF-214-308-N.jpg","1","1","1","0","0","1","0.329924299847335","0.51102039963007","0.369300900027156","1","1","1","1","1","1","1","1","1"
"250002","img/neutralC/CFD-BF-214-308-N.jpg","img/neutralC/CFD-BF-044-034-N.jpg","img/neutralC/CFD-BF-011-002-N.jpg","1","1","1","1","0","1","0.369300900027156","0.329924299847335","0.396610999945551","1","1","1","1","1","1","1","1","1"
"250002","img/neutralC/CFD-BF-011-002-N.jpg","img/neutralC/CFD-BF-214-308-N.jpg","img/neutralC/CFD-WM-034-030-N.jpg","1","1","1","1","1","1","0.396610999945551","0.369300900027156","0.344671699684113","1","1","1","1","1","1","1","1","1"
"250002","img/neutralC/CFD-WM-034-030-N.jpg","img/neutralC/CFD-BF-011-002-N.jpg","img/neutralC/CFD-BM-241-235-N.jpg","1","1","1","1","1","0","0.344671699684113","0.396610999945551","0.434617999941111","1","1","1","1","1","1","1","1","1"
"250002","img/neutralC/CFD-BM-241-235-N.jpg","img/neutralC/CFD-WM-034-030-N.jpg","img/neutralC/CFD-LF-204-133-N.jpg","1","1","1","0","1","1","0.434617999941111","0.344671699684113","0.372347499709576","1","1","1","1","1","1","1","1","1"
"250002","img/neutralC/CFD-LF-204-133-N.jpg","img/neutralC/CFD-BM-241-235-N.jpg","img/neutralC/CFD-BM-036-003-N.jpg","1","1","1","1","0","1","0.372347499709576","0.434617999941111","0.355943799484521","1","1","1","1","1","1","1","1","1"
"250002","img/neutralC/CFD-BM-036-003-N.jpg","img/neutralC/CFD-LF-204-133-N.jpg","img/neutralC/CFD-AM-230-150-N.jpg","1","1","1","1","1","0","0.355943799484521","0.372347499709576","0.434807799290866","1","1","1","1","1","1","1","1","1"
"250002","img/neutralC/CFD-AM-230-150-N.jpg","img/neutralC/CFD-BM-036-003-N.jpg","img/neutralC/CFD-WF-208-068-N.jpg","1","1","1","0","1","1","0.434807799290866","0.355943799484521","0.333494099788368","1","1","1","1","1","1","1","1","1"
"250002","img/neutralC/CFD-WF-208-068-N.jpg","img/neutralC/CFD-AM-230-150-N.jpg","img/neutralC/CFD-LM-213-061-N.jpg","1","1","1","1","0","0","0.333494099788368","0.434807799290866","0.463485499843955","1","1","1","1","1","1","1","1","1"
"250002","img/neutralC/CFD-LM-213-061-N.jpg","img/neutralC/CFD-WF-208-068-N.jpg","img/neutralC/CFD-BF-027-002-N.jpg","1","1","1","0","1","1","0.463485499843955","0.333494099788368","0.373460099566728","1","1","1","1","1","1","1","1","1"
"250002","img/neutralC/CFD-BF-027-002-N.jpg","img/neutralC/CFD-LM-213-061-N.jpg","img/neutralC/CFD-IM-707-105-N.jpg","1","1","1","1","0","1","0.373460099566728","0.463485499843955","0.334233799949288","1","1","1","1","1","1","1","1","1"
"250002","img/neutralC/CFD-IM-707-105-N.jpg","img/neutralC/CFD-BF-027-002-N.jpg","img/neutralC/CFD-IF-729-393-N.jpg","1","1","1","1","1","0","0.334233799949288","0.373460099566728","0.402551299426705","1","1","1","1","1","1","1","1","1"
"250002","img/neutralC/CFD-IF-729-393-N.jpg","img/neutralC/CFD-IM-707-105-N.jpg","img/neutralC/CFD-BF-006-017-N.jpg","1","1","1","0","1","0","0.402551299426705","0.334233799949288","0.437364899553359","1","1","1","1","1","1","1","1","1"
"250002","img/neutralC/CFD-BF-006-017-N.jpg","img/neutralC/CFD-IF-729-393-N.jpg","img/neutralC/CFD-IM-721-341-N.jpg","1","1","1","0","0","1","0.437364899553359","0.402551299426705","0.389194599818438","1","1","1","1","1","1","1","1","1"
"250002","img/neutralC/CFD-IM-721-341-N.jpg","img/neutralC/CFD-BF-006-017-N.jpg","img/neutralC/CFD-IF-677-452-1-N.jpg","1","1","1","1","0","1","0.389194599818438","0.437364899553359","0.345390199683607","1","1","1","1","1","1","1","1","1"
"250002","img/neutralC/CFD-IF-677-452-1-N.jpg","img/neutralC/CFD-IM-721-341-N.jpg","img/neutralC/CFD-IF-742-103-N.jpg","1","1","1","1","1","1","0.345390199683607","0.389194599818438","0.337213499471545","1","1","1","1","1","1","1","1","1"
"250002","img/neutralC/CFD-IF-742-103-N.jpg","img/neutralC/CFD-IF-677-452-1-N.jpg","img/neutralC/CFD-BF-247-179-N.jpg","1","1","1","1","1","0","0.337213499471545","0.345390199683607","0.524225899484009","1","1","1","1","1","1","1","1","1"
"250002","img/neutralC/CFD-BF-247-179-N.jpg","img/neutralC/CFD-IF-742-103-N.jpg","img/neutralC/CFD-WF-029-002-N.jpg","1","1","1","0","1","0","0.524225899484009","0.337213499471545","0.401083799544722","1","1","1","1","1","1","1","1","1"
"250002","img/neutralC/CFD-WF-029-002-N.jpg","img/neutralC/CFD-BF-247-179-N.jpg","img/neutralC/CFD-WM-248-036-N.jpg","1","1","1","0","0","1","0.401083799544722","0.524225899484009","0.336962699424475","1","1","1","1","1","1","1","1","1"
"250002","img/neutralC/CFD-WM-248-036-N.jpg","img/neutralC/CFD-WF-029-002-N.jpg","img/neutralC/CFD-WF-234-086-N.jpg","1","1","1","1","0","1","0.336962699424475","0.401083799544722","0.362173399422318","1","1","1","1","1","1","1","1","1"
"250002","img/neutralC/CFD-WF-234-086-N.jpg","img/neutralC/CFD-WM-248-036-N.jpg","img/neutralC/CFD-MF-301-024-N.jpg","1","1","1","1","1","0","0.362173399422318","0.336962699424475","0.452357599511743","1","1","1","1","1","1","1","1","1"
"250002","img/neutralC/CFD-MF-301-024-N.jpg","img/neutralC/CFD-WF-234-086-N.jpg","img/neutralC/CFD-WM-014-002-N.jpg","1","1","1","0","1","0","0.452357599511743","0.362173399422318","0.439821099862456","1","1","1","1","1","1","1","1","1"
"250002","img/neutralC/CFD-WM-014-002-N.jpg","img/neutralC/CFD-MF-301-024-N.jpg","img/neutralC/CFD-BM-238-242-N.jpg","1","1","1","0","0","0","0.439821099862456","0.452357599511743","0.389021199662238","1","1","1","1","1","1","1","1","1"
"250002","img/neutralC/CFD-BM-238-242-N.jpg","img/neutralC/CFD-WM-014-002-N.jpg","img/neutralC/CFD-WF-233-112-N.jpg","1","1","1","0","0","1","0.389021199662238","0.439821099862456","0.448268099687994","1","1","1","1","1","1","1","1","1"
"250002","img/neutralC/CFD-WF-233-112-N.jpg","img/neutralC/CFD-BM-238-242-N.jpg","img/neutralC/CFD-IM-696-001-N.jpg","1","1","0","1","0","0","0.448268099687994","0.389021199662238","0.322148699779063","1","1","1","1","1","1","1","1","1"
"250002","img/neutralC/CFD-IM-696-001-N.jpg","img/neutralC/CFD-WF-233-112-N.jpg","img/neutralC/CFD-BF-207-004-N.jpg","0","1","1","0","1","1","0.322148699779063","0.448268099687994","0.431859399657696","1","1","1","1","1","1","1","1","1"
"250002","img/neutralC/CFD-BF-207-004-N.jpg","img/neutralC/CFD-IM-696-001-N.jpg",NA,"1","0",NA,"1","0",NA,"0.431859399657696","0.322148699779063",NA,"1","1",NA,"1","1",NA,"1","1",NA
"250002","img/neutralC/CFD-WF-008-002-N.jpg",NA,"img/neutralC/CFD-IM-604-014-N.jpg","1",NA,"1","1",NA,"0","0.385484099853784",NA,"0.404730399604887","1",NA,"1","1",NA,"1","1",NA,"1"
"250002","img/neutralC/CFD-IM-604-014-N.jpg","img/neutralC/CFD-WF-008-002-N.jpg","img/neutralC/CFD-IF-608-390-N.jpg","1","1","1","0","1","1","0.404730399604887","0.385484099853784","0.358388799708337","1","1","1","1","1","1","1","1","1"
"250002","img/neutralC/CFD-IF-608-390-N.jpg","img/neutralC/CFD-IM-604-014-N.jpg","img/neutralC/CFD-IM-637-007-N.jpg","1","1","1","1","0","0","0.358388799708337","0.404730399604887","0.483814499340951","1","1","1","1","1","1","1","1","1"
"250002","img/neutralC/CFD-IM-637-007-N.jpg","img/neutralC/CFD-IF-608-390-N.jpg","img/neutralC/CFD-IM-685-004-N.jpg","1","1","1","0","1","1","0.483814499340951","0.358388799708337","0.419242299627513","1","1","1","1","1","1","1","1","1"
"250002","img/neutralC/CFD-IM-685-004-N.jpg","img/neutralC/CFD-IM-637-007-N.jpg","img/neutralC/CFD-WM-213-076-N.jpg","1","1","1","1","0","1","0.419242299627513","0.483814499340951","0.41207019938156","1","1","1","1","1","1","1","1","1"
"250002","img/neutralC/CFD-WM-213-076-N.jpg","img/neutralC/CFD-IM-685-004-N.jpg","img/neutralC/CFD-WF-012-002-N.jpg","1","1","1","1","1","1","0.41207019938156","0.419242299627513","0.365417399443686","1","1","1","1","1","1","1","1","1"
"250002","img/neutralC/CFD-WF-012-002-N.jpg","img/neutralC/CFD-WM-213-076-N.jpg","img/neutralC/CFD-IF-619-197-N.jpg","1","1","1","1","1","0","0.365417399443686","0.41207019938156","0.407112999353558","1","1","1","1","1","1","1","1","1"
"250002","img/neutralC/CFD-IF-619-197-N.jpg","img/neutralC/CFD-WF-012-002-N.jpg","img/neutralC/CFD-IM-709-103-N.jpg","1","1","1","0","1","0","0.407112999353558","0.365417399443686","0.434234099462628","1","1","1","1","1","1","1","1","1"
"250002","img/neutralC/CFD-IM-709-103-N.jpg","img/neutralC/CFD-IF-619-197-N.jpg","img/neutralC/CFD-LM-217-162-N.jpg","1","1","1","0","0","0","0.434234099462628","0.407112999353558","0.446766099426895","1","1","1","1","1","1","1","1","1"
"250002","img/neutralC/CFD-LM-217-162-N.jpg","img/neutralC/CFD-IM-709-103-N.jpg","img/neutralC/CFD-BF-224-002-N.jpg","1","1","1","0","0","1","0.446766099426895","0.434234099462628","0.379511099308729","1","1","1","1","1","1","1","1","1"
"250002","img/neutralC/CFD-BF-224-002-N.jpg","img/neutralC/CFD-LM-217-162-N.jpg","img/neutralC/CFD-MM-304-002-N.jpg","1","1","1","1","0","1","0.379511099308729","0.446766099426895","0.385251099709421","1","1","1","1","1","1","1","1","1"
"250002","img/neutralC/CFD-MM-304-002-N.jpg","img/neutralC/CFD-BF-224-002-N.jpg","img/neutralC/CFD-WM-232-070-N.jpg","1","1","1","1","1","0","0.385251099709421","0.379511099308729","0.406276199501008","1","1","1","1","1","1","1","1","1"
"250002","img/neutralC/CFD-WM-232-070-N.jpg","img/neutralC/CFD-MM-304-002-N.jpg","img/neutralC/CFD-BF-051-035-N.jpg","1","1","1","0","1","0","0.406276199501008","0.385251099709421","0.437111199833453","1","1","1","1","1","1","1","1","1"
"250002","img/neutralC/CFD-BF-051-035-N.jpg","img/neutralC/CFD-WM-232-070-N.jpg","img/neutralC/CFD-AM-236-090-N.jpg","1","1","1","0","0","1","0.437111199833453","0.406276199501008","0.428216899745166","1","1","1","1","1","1","1","1","1"
"250002","img/neutralC/CFD-AM-236-090-N.jpg","img/neutralC/CFD-BF-051-035-N.jpg","img/neutralC/CFD-LF-226-174-N.jpg","1","1","1","1","0","0","0.428216899745166","0.437111199833453","0.624754399526864","1","1","1","1","1","1","1","1","1"
"250002","img/neutralC/CFD-LF-226-174-N.jpg","img/neutralC/CFD-AM-236-090-N.jpg","img/neutralC/CFD-AF-229-160-N.jpg","1","1","1","0","1","0","0.624754399526864","0.428216899745166","0.464958399534226","1","1","1","1","1","1","1","1","1"
"250002","img/neutralC/CFD-AF-229-160-N.jpg","img/neutralC/CFD-LF-226-174-N.jpg","img/neutralC/CFD-WM-024-015-N.jpg","1","1","1","0","0","1","0.464958399534226","0.624754399526864","0.329275699798018","1","1","1","1","1","1","1","1","1"
"250002","img/neutralC/CFD-WM-024-015-N.jpg","img/neutralC/CFD-AF-229-160-N.jpg","img/neutralC/CFD-MF-340-026-N.jpg","1","1","1","1","0","1","0.329275699798018","0.464958399534226","0.303642699960619","1","1","1","1","1","1","1","1","1"
"250002","img/neutralC/CFD-MF-340-026-N.jpg","img/neutralC/CFD-WM-024-015-N.jpg","img/neutralC/CFD-MF-300-002-N.jpg","1","1","1","1","1","0","0.303642699960619","0.329275699798018","0.410493299830705","1","1","1","1","1","1","1","1","1"
"250002","img/neutralC/CFD-MF-300-002-N.jpg","img/neutralC/CFD-MF-340-026-N.jpg","img/neutralC/CFD-AF-215-70-N.jpg","1","1","1","0","1","0","0.410493299830705","0.303642699960619","0.404563999269158","1","1","1","1","1","1","1","1","1"
"250002","img/neutralC/CFD-AF-215-70-N.jpg","img/neutralC/CFD-MF-300-002-N.jpg","img/neutralC/CFD-AF-254-167-N.jpg","1","1","1","0","0","1","0.404563999269158","0.410493299830705","0.380373599939048","1","1","1","1","1","1","1","1","1"
"250002","img/neutralC/CFD-AF-254-167-N.jpg","img/neutralC/CFD-AF-215-70-N.jpg","img/neutralC/CFD-WF-217-085-N.jpg","1","1","1","1","0","1","0.380373599939048","0.404563999269158","0.332516799215227","1","1","1","1","1","1","1","1","1"
"250002","img/neutralC/CFD-WF-217-085-N.jpg","img/neutralC/CFD-AF-254-167-N.jpg","img/neutralC/CFD-WF-248-129-N.jpg","1","1","1","1","1","0","0.332516799215227","0.380373599939048","0.362839799840003","1","1","1","1","1","1","1","1","1"
"250002","img/neutralC/CFD-WF-248-129-N.jpg","img/neutralC/CFD-WF-217-085-N.jpg","img/neutralC/CFD-BM-039-029-N.jpg","1","1","1","0","1","1","0.362839799840003","0.332516799215227","0.327879699878395","1","1","1","1","1","1","1","1","1"
"250002","img/neutralC/CFD-BM-039-029-N.jpg","img/neutralC/CFD-WF-248-129-N.jpg","img/neutralC/CFD-BM-243-218-N.jpg","1","1","1","1","0","1","0.327879699878395","0.362839799840003","0.383498699869961","1","1","1","1","1","1","1","1","1"
"250002","img/neutralC/CFD-BM-243-218-N.jpg","img/neutralC/CFD-BM-039-029-N.jpg","img/neutralC/CFD-IM-675-015-N.jpg","1","1","1","1","1","1","0.383498699869961","0.327879699878395","0.375867899972946","1","1","1","1","1","1","1","1","1"
"250002","img/neutralC/CFD-IM-675-015-N.jpg","img/neutralC/CFD-BM-243-218-N.jpg","img/neutralC/CFD-BF-043-003-N.jpg","1","1","1","1","1","0","0.375867899972946","0.383498699869961","0.361298699863255","1","1","1","1","1","1","1","1","1"
"250002","img/neutralC/CFD-BF-043-003-N.jpg","img/neutralC/CFD-IM-675-015-N.jpg","img/neutralC/CFD-MF-327-002-N.jpg","1","1","1","0","1","0","0.361298699863255","0.375867899972946","0.48493649950251","1","1","1","1","1","1","1","1","1"
"250002","img/neutralC/CFD-MF-327-002-N.jpg","img/neutralC/CFD-BF-043-003-N.jpg","img/neutralC/CFD-MF-329-001-N.jpg","1","1","1","0","0","0","0.48493649950251","0.361298699863255","0.355861899908632","1","1","1","1","1","1","1","1","1"
"250002","img/neutralC/CFD-MF-329-001-N.jpg","img/neutralC/CFD-MF-327-002-N.jpg","img/neutralC/CFD-LF-201-035-N.jpg","1","1","1","0","0","1","0.355861899908632","0.48493649950251","0.342229899484664","1","1","1","1","1","1","1","1","1"
"250002","img/neutralC/CFD-LF-201-035-N.jpg","img/neutralC/CFD-MF-329-001-N.jpg","img/neutralC/CFD-WF-212-050-N.jpg","1","1","1","1","0","0","0.342229899484664","0.355861899908632","0.3692258996889","1","1","1","1","1","1","1","1","1"
"250002","img/neutralC/CFD-WF-212-050-N.jpg","img/neutralC/CFD-LF-201-035-N.jpg",NA,"1","1",NA,"0","1",NA,"0.3692258996889","0.342229899484664",NA,"1","1",NA,"1","1",NA,"1","1",NA
"250002","img/neutralC/CFD-WM-242-011-N.jpg",NA,"img/neutralC/CFD-BF-010-001-N.jpg","0",NA,"1","0",NA,"1","0.278786199633032",NA,"0.492758699227124","1",NA,"1","1",NA,"1","1",NA,"1"
"250002","img/neutralC/CFD-BF-010-001-N.jpg","img/neutralC/CFD-WM-242-011-N.jpg","img/neutralC/CFD-WM-227-099-N.jpg","1","0","1","1","0","1","0.492758699227124","0.278786199633032","0.320102399680763","1","1","1","1","1","1","1","1","1"
"250002","img/neutralC/CFD-WM-227-099-N.jpg","img/neutralC/CFD-BF-010-001-N.jpg","img/neutralC/CFD-MF-313-002-N.jpg","1","1","1","1","1","0","0.320102399680763","0.492758699227124","0.494704999960959","1","1","1","1","1","1","1","1","1"
"250002","img/neutralC/CFD-MF-313-002-N.jpg","img/neutralC/CFD-WM-227-099-N.jpg","img/neutralC/CFD-BM-005-003-N.jpg","1","1","1","0","1","1","0.494704999960959","0.320102399680763","0.330322099849582","1","1","1","1","1","1","1","1","1"
"250002","img/neutralC/CFD-BM-005-003-N.jpg","img/neutralC/CFD-MF-313-002-N.jpg","img/neutralC/CFD-IM-638-250-1-N.jpg","1","1","1","1","0","1","0.330322099849582","0.494704999960959","0.328871899750084","1","1","1","1","1","1","1","1","1"
"250002","img/neutralC/CFD-IM-638-250-1-N.jpg","img/neutralC/CFD-BM-005-003-N.jpg","img/neutralC/CFD-LM-233-171-N.jpg","1","1","1","1","1","0","0.328871899750084","0.330322099849582","0.43710559932515","1","1","1","1","1","1","1","1","1"
"250002","img/neutralC/CFD-LM-233-171-N.jpg","img/neutralC/CFD-IM-638-250-1-N.jpg","img/neutralC/CFD-LF-247-051-N.jpg","1","1","1","0","1","1","0.43710559932515","0.328871899750084","0.380829699337482","1","1","1","1","1","1","1","1","1"
"250002","img/neutralC/CFD-LF-247-051-N.jpg","img/neutralC/CFD-LM-233-171-N.jpg","img/neutralC/CFD-WM-017-002-N.jpg","1","1","1","1","0","0","0.380829699337482","0.43710559932515","0.348231500014663","1","1","1","1","1","1","1","1","1"
"250002","img/neutralC/CFD-WM-017-002-N.jpg","img/neutralC/CFD-LF-247-051-N.jpg","img/neutralC/CFD-BM-018-001-N.jpg","1","1","1","0","1","1","0.348231500014663","0.380829699337482","0.353889899328351","1","1","1","1","1","1","1","1","1"
"250002","img/neutralC/CFD-BM-018-001-N.jpg","img/neutralC/CFD-WM-017-002-N.jpg","img/neutralC/CFD-LF-242-121-N.jpg","1","1","0","1","0","0","0.353889899328351","0.348231500014663","0.316722199786454","1","1","1","1","1","1","1","1","1"
"250002","img/neutralC/CFD-LF-242-121-N.jpg","img/neutralC/CFD-BM-018-001-N.jpg","img/neutralC/CFD-WM-258-125-N.jpg","0","1","1","0","1","0","0.316722199786454","0.353889899328351","0.389423999469727","1","1","1","1","1","1","1","1","1"
"250002","img/neutralC/CFD-WM-258-125-N.jpg","img/neutralC/CFD-LF-242-121-N.jpg","img/neutralC/CFD-BM-212-117-N.jpg","1","0","1","0","0","0","0.389423999469727","0.316722199786454","0.413012799806893","1","1","1","1","1","1","1","1","1"
"250002","img/neutralC/CFD-BM-212-117-N.jpg","img/neutralC/CFD-WM-258-125-N.jpg","img/neutralC/CFD-LM-219-295-N.jpg","1","1","1","0","0","1","0.413012799806893","0.389423999469727","0.384399899747223","1","1","1","1","1","1","1","1","1"
"250002","img/neutralC/CFD-LM-219-295-N.jpg","img/neutralC/CFD-BM-212-117-N.jpg","img/neutralC/CFD-BM-231-155-N.jpg","1","1","1","1","0","1","0.384399899747223","0.413012799806893","0.371634699869901","1","1","1","1","1","1","1","1","1"
"250002","img/neutralC/CFD-BM-231-155-N.jpg","img/neutralC/CFD-LM-219-295-N.jpg","img/neutralC/CFD-BM-026-002-N.jpg","1","1","1","1","1","0","0.371634699869901","0.384399899747223","0.449134099762887","1","1","1","1","1","1","1","1","1"
"250002","img/neutralC/CFD-BM-026-002-N.jpg","img/neutralC/CFD-BM-231-155-N.jpg","img/neutralC/CFD-LF-250-169-N.jpg","1","1","1","0","1","1","0.449134099762887","0.371634699869901","0.349479099735618","1","1","1","1","1","1","1","1","1"
"250002","img/neutralC/CFD-LF-250-169-N.jpg","img/neutralC/CFD-BM-026-002-N.jpg","img/neutralC/CFD-IM-727-195-N.jpg","1","1","1","1","0","1","0.349479099735618","0.449134099762887","0.315014799591154","1","1","1","1","1","1","1","1","1"
"250002","img/neutralC/CFD-IM-727-195-N.jpg","img/neutralC/CFD-LF-250-169-N.jpg","img/neutralC/CFD-AF-241-141-N.jpg","1","1","1","1","1","1","0.315014799591154","0.349479099735618","0.44706799974665","1","1","1","1","1","1","1","1","1"
"250002","img/neutralC/CFD-AF-241-141-N.jpg","img/neutralC/CFD-IM-727-195-N.jpg","img/neutralC/CFD-AF-202-122-N.jpg","1","1","1","1","1","1","0.44706799974665","0.315014799591154","0.329740599729121","1","1","1","1","1","1","1","1","1"
"250002","img/neutralC/CFD-AF-202-122-N.jpg","img/neutralC/CFD-AF-241-141-N.jpg","img/neutralC/CFD-IM-686-097-N.jpg","1","1","1","1","1","0","0.329740599729121","0.44706799974665","0.514846099540591","1","1","1","1","1","1","1","1","1"
"250002","img/neutralC/CFD-IM-686-097-N.jpg","img/neutralC/CFD-AF-202-122-N.jpg","img/neutralC/CFD-BF-033-028-N.jpg","1","1","0","0","1","0","0.514846099540591","0.329740599729121","0.347257199697196","1","1","1","1","1","1","1","1","1"
"250002","img/neutralC/CFD-BF-033-028-N.jpg","img/neutralC/CFD-IM-686-097-N.jpg","img/neutralC/CFD-BF-238-190-N.jpg","0","1","1","0","0","1","0.347257199697196","0.514846099540591","0.396692199632525","1","1","1","1","1","1","1","1","1"
"250002","img/neutralC/CFD-BF-238-190-N.jpg","img/neutralC/CFD-BF-033-028-N.jpg","img/neutralC/CFD-IF-665-015-N.jpg","1","0","0","1","0","0","0.396692199632525","0.347257199697196","0.39513639966026","1","1","1","1","1","1","1","1","1"
"250002","img/neutralC/CFD-IF-665-015-N.jpg","img/neutralC/CFD-BF-238-190-N.jpg","img/neutralC/CFD-IM-617-174-N.jpg","0","1","1","0","1","0","0.39513639966026","0.396692199632525","0.512819499708712","1","1","1","1","1","1","1","1","1"
"250002","img/neutralC/CFD-IM-617-174-N.jpg","img/neutralC/CFD-IF-665-015-N.jpg","img/neutralC/CFD-IM-653-008-N.jpg","1","0","1","0","0","0","0.512819499708712","0.39513639966026","0.467280199751258","1","1","1","1","1","1","1","1","1"
"250002","img/neutralC/CFD-IM-653-008-N.jpg","img/neutralC/CFD-IM-617-174-N.jpg","img/neutralC/CFD-AF-206-079-N.jpg","1","1","1","0","0","1","0.467280199751258","0.512819499708712","0.356364599894732","1","1","1","1","1","1","1","1","1"
"250002","img/neutralC/CFD-AF-206-079-N.jpg","img/neutralC/CFD-IM-653-008-N.jpg","img/neutralC/CFD-IF-620-218-N.jpg","1","1","1","1","0","0","0.356364599894732","0.467280199751258","0.737940999679267","1","1","1","1","1","1","1","1","1"
"250002","img/neutralC/CFD-IF-620-218-N.jpg","img/neutralC/CFD-AF-206-079-N.jpg","img/neutralC/CFD-LF-245-166-N.jpg","1","1","1","0","1","1","0.737940999679267","0.356364599894732","0.428605699911714","1","1","1","1","1","1","1","1","1"
"250002","img/neutralC/CFD-LF-245-166-N.jpg","img/neutralC/CFD-IF-620-218-N.jpg","img/neutralC/CFD-IM-657-308-N.jpg","1","1","1","1","0","0","0.428605699911714","0.737940999679267","0.454148899298161","1","1","1","1","1","1","1","1","1"
"250002","img/neutralC/CFD-IM-657-308-N.jpg","img/neutralC/CFD-LF-245-166-N.jpg","img/neutralC/CFD-LM-226-175-N.jpg","1","1","1","0","1","0","0.454148899298161","0.428605699911714","0.428100199438632","1","1","1","1","1","1","1","1","1"
"250002","img/neutralC/CFD-LM-226-175-N.jpg","img/neutralC/CFD-IM-657-308-N.jpg","img/neutralC/CFD-WF-209-052-N.jpg","1","1","1","0","0","1","0.428100199438632","0.454148899298161","0.384482899680734","1","1","1","1","1","1","1","1","1"
"250002","img/neutralC/CFD-WF-209-052-N.jpg","img/neutralC/CFD-LM-226-175-N.jpg",NA,"1","1",NA,"1","0",NA,"0.384482899680734","0.428100199438632",NA,"1","1",NA,"1","1",NA,"1","1",NA
"250002","img/neutralC/CFD-WM-025-002-N.jpg",NA,"img/neutralC/CFD-WM-028-003-N.jpg","1",NA,"1","0",NA,"1","0.4473412996158",NA,"0.367858899291605","1",NA,"1","1",NA,"1","1",NA,"1"
"250002","img/neutralC/CFD-WM-028-003-N.jpg","img/neutralC/CFD-WM-025-002-N.jpg","img/neutralC/CFD-LM-240-013-N.jpg","1","1","1","1","0","1","0.367858899291605","0.4473412996158","0.364395499695092","1","1","1","1","1","1","1","1","1"
"250002","img/neutralC/CFD-LM-240-013-N.jpg","img/neutralC/CFD-WM-028-003-N.jpg","img/neutralC/CFD-AM-205-153-N.jpg","1","1","1","1","1","1","0.364395499695092","0.367858899291605","0.319002999458462","1","1","1","1","1","1","1","1","1"
"250002","img/neutralC/CFD-AM-205-153-N.jpg","img/neutralC/CFD-LM-240-013-N.jpg","img/neutralC/CFD-AF-237-223-N.jpg","1","1","1","1","1","0","0.319002999458462","0.364395499695092","0.470074999611825","1","1","1","1","1","1","1","1","1"
"250002","img/neutralC/CFD-AF-237-223-N.jpg","img/neutralC/CFD-AM-205-153-N.jpg","img/neutralC/CFD-AM-243-212-N.jpg","1","1","1","0","1","1","0.470074999611825","0.319002999458462","0.286228699609637","1","1","1","1","1","1","1","1","1"
"250002","img/neutralC/CFD-AM-243-212-N.jpg","img/neutralC/CFD-AF-237-223-N.jpg","img/neutralC/CFD-WF-221-005-N.jpg","1","1","1","1","0","0","0.286228699609637","0.470074999611825","0.431529899593443","1","1","1","1","1","1","1","1","1"
"250002","img/neutralC/CFD-WF-221-005-N.jpg","img/neutralC/CFD-AM-243-212-N.jpg","img/neutralC/CFD-LF-238-154-N.jpg","1","1","1","0","1","1","0.431529899593443","0.286228699609637","0.332194899674505","1","1","1","1","1","1","1","1","1"
"250002","img/neutralC/CFD-LF-238-154-N.jpg","img/neutralC/CFD-WF-221-005-N.jpg","img/neutralC/CFD-IM-606-008-N.jpg","1","1","0","1","0","0","0.332194899674505","0.431529899593443","0.334420499391854","1","1","1","1","1","1","1","1","1"
"250002","img/neutralC/CFD-IM-606-008-N.jpg","img/neutralC/CFD-LF-238-154-N.jpg","img/neutralC/CFD-BF-012-001-N.jpg","0","1","1","0","1","0","0.334420499391854","0.332194899674505","0.416173899546266","1","1","1","1","1","1","1","1","1"
"250002","img/neutralC/CFD-BF-012-001-N.jpg","img/neutralC/CFD-IM-606-008-N.jpg","img/neutralC/CFD-BM-021-021-N.jpg","1","0","1","0","0","1","0.416173899546266","0.334420499391854","0.388846199959517","1","1","1","1","1","1","1","1","1"
"250002","img/neutralC/CFD-BM-021-021-N.jpg","img/neutralC/CFD-BF-012-001-N.jpg","img/neutralC/CFD-AM-249-163-N.jpg","1","1","1","1","0","1","0.388846199959517","0.416173899546266","0.373505399562418","1","1","1","1","1","1","1","1","1"
"250002","img/neutralC/CFD-AM-249-163-N.jpg","img/neutralC/CFD-BM-021-021-N.jpg","img/neutralC/CFD-IF-676-017-N.jpg","1","1","1","1","1","1","0.373505399562418","0.388846199959517","0.359506799839437","1","1","1","1","1","1","1","1","1"
"250002","img/neutralC/CFD-IF-676-017-N.jpg","img/neutralC/CFD-AM-249-163-N.jpg","img/neutralC/CFD-MF-328-020-N.jpg","1","1","1","1","1","0","0.359506799839437","0.373505399562418","0.423314199782908","1","1","1","1","1","1","1","1","1"
"250002","img/neutralC/CFD-MF-328-020-N.jpg","img/neutralC/CFD-IF-676-017-N.jpg","img/neutralC/CFD-BM-020-001-N.jpg","1","1","1","0","1","0","0.423314199782908","0.359506799839437","0.450566999614239","1","1","1","1","1","1","1","1","1"
"250002","img/neutralC/CFD-BM-020-001-N.jpg","img/neutralC/CFD-MF-328-020-N.jpg","img/neutralC/CFD-WF-243-148-N.jpg","1","1","1","0","0","0","0.450566999614239","0.423314199782908","0.485455699730664","1","1","1","1","1","1","1","1","1"
"250002","img/neutralC/CFD-WF-243-148-N.jpg","img/neutralC/CFD-BM-020-001-N.jpg","img/neutralC/CFD-IM-697-015-N.jpg","1","1","1","0","0","1","0.485455699730664","0.450566999614239","0.320059599820524","1","1","1","1","1","1","1","1","1"
"250002","img/neutralC/CFD-IM-697-015-N.jpg","img/neutralC/CFD-WF-243-148-N.jpg","img/neutralC/CFD-WF-241-210-N.jpg","1","1","1","1","0","0","0.320059599820524","0.485455699730664","0.42594559956342","1","1","1","1","1","1","1","1","1"
"250002","img/neutralC/CFD-WF-241-210-N.jpg","img/neutralC/CFD-IM-697-015-N.jpg","img/neutralC/CFD-BF-244-231-N.jpg","1","1","1","0","1","1","0.42594559956342","0.320059599820524","0.319279599469155","1","1","1","1","1","1","1","1","1"
"250002","img/neutralC/CFD-BF-244-231-N.jpg","img/neutralC/CFD-WF-241-210-N.jpg","img/neutralC/CFD-WM-023-001-N.jpg","1","1","1","1","0","0","0.319279599469155","0.42594559956342","0.396379599813372","1","1","1","1","1","1","1","1","1"
"250002","img/neutralC/CFD-WM-023-001-N.jpg","img/neutralC/CFD-BF-244-231-N.jpg","img/neutralC/CFD-MM-306-010-N.jpg","1","1","1","0","1","0","0.396379599813372","0.319279599469155","0.409424399957061","1","1","1","1","1","1","1","1","1"
"250002","img/neutralC/CFD-MM-306-010-N.jpg","img/neutralC/CFD-WM-023-001-N.jpg","img/neutralC/CFD-BM-043-071-N.jpg","1","1","1","0","0","0","0.409424399957061","0.396379599813372","0.357742399442941","1","1","1","1","1","1","1","1","1"
"250002","img/neutralC/CFD-BM-043-071-N.jpg","img/neutralC/CFD-MM-306-010-N.jpg","img/neutralC/CFD-IM-689-263-N.jpg","1","1","1","0","0","1","0.357742399442941","0.409424399957061","0.327727299649268","1","1","1","1","1","1","1","1","1"
"250002","img/neutralC/CFD-IM-689-263-N.jpg","img/neutralC/CFD-BM-043-071-N.jpg","img/neutralC/CFD-LF-222-147-N.jpg","1","1","1","1","0","0","0.327727299649268","0.357742399442941","0.409689899533987","1","1","1","1","1","1","1","1","1"
"250002","img/neutralC/CFD-LF-222-147-N.jpg","img/neutralC/CFD-IM-689-263-N.jpg","img/neutralC/CFD-WF-009-001-N.jpg","1","1","1","0","1","1","0.409689899533987","0.327727299649268","0.318043199833483","1","1","1","1","1","1","1","1","1"
"250002","img/neutralC/CFD-WF-009-001-N.jpg","img/neutralC/CFD-LF-222-147-N.jpg","img/neutralC/CFD-LF-212-066-N.jpg","1","1","1","1","0","1","0.318043199833483","0.409689899533987","0.295228399801999","1","1","1","1","1","1","1","1","1"
"250002","img/neutralC/CFD-LF-212-066-N.jpg","img/neutralC/CFD-WF-009-001-N.jpg","img/neutralC/CFD-BM-030-003-N.jpg","1","1","0","1","1","0","0.295228399801999","0.318043199833483","0.32676689978689","1","1","1","1","1","1","1","1","1"
"250002","img/neutralC/CFD-BM-030-003-N.jpg","img/neutralC/CFD-LF-212-066-N.jpg","img/neutralC/CFD-WF-207-014-N.jpg","0","1","1","0","1","1","0.32676689978689","0.295228399801999","0.3666329998523","1","1","1","1","1","1","1","1","1"
"250002","img/neutralC/CFD-WF-207-014-N.jpg","img/neutralC/CFD-BM-030-003-N.jpg","img/neutralC/CFD-AM-219-101-N.jpg","1","0","0","1","0","0","0.3666329998523","0.32676689978689","0.352923699654639","1","1","1","1","1","1","1","1","1"
"250002","img/neutralC/CFD-AM-219-101-N.jpg","img/neutralC/CFD-WF-207-014-N.jpg","img/neutralC/CFD-IM-615-167-N.jpg","0","1","1","0","1","0","0.352923699654639","0.3666329998523","0.56780709978193","1","1","1","1","1","1","1","1","1"
"250002","img/neutralC/CFD-IM-615-167-N.jpg","img/neutralC/CFD-AM-219-101-N.jpg","img/neutralC/CFD-BM-227-191-N.jpg","1","0","1","0","0","1","0.56780709978193","0.352923699654639","0.327709199395031","1","1","1","1","1","1","1","1","1"
"250002","img/neutralC/CFD-BM-227-191-N.jpg","img/neutralC/CFD-IM-615-167-N.jpg","img/neutralC/CFD-BM-009-002-N.jpg","1","1","1","1","0","1","0.327709199395031","0.56780709978193","0.362706599757075","1","1","1","1","1","1","1","1","1"
"250002","img/neutralC/CFD-BM-009-002-N.jpg","img/neutralC/CFD-BM-227-191-N.jpg",NA,"1","1",NA,"1","1",NA,"0.362706599757075","0.327709199395031",NA,"1","1",NA,"1","1",NA,"1","1",NA
"250002","img/neutralC/CFD-IM-706-002-N.jpg",NA,"img/neutralC/CFD-WF-222-092-N.jpg","1",NA,"1","0",NA,"1","0.460281899664551",NA,"0.376470899675041","1",NA,"1","1",NA,"1","1",NA,"1"
"250002","img/neutralC/CFD-WF-222-092-N.jpg","img/neutralC/CFD-IM-706-002-N.jpg","img/neutralC/CFD-WM-015-002-N.jpg","1","1","1","1","0","0","0.376470899675041","0.460281899664551","0.304847699590027","1","1","1","1","1","1","1","1","1"
"250002","img/neutralC/CFD-WM-015-002-N.jpg","img/neutralC/CFD-WF-222-092-N.jpg","img/neutralC/CFD-BM-250-170-N.jpg","1","1","1","0","1","1","0.304847699590027","0.376470899675041","0.366785999853164","1","1","1","1","1","1","1","1","1"
"250002","img/neutralC/CFD-BM-250-170-N.jpg","img/neutralC/CFD-WM-015-002-N.jpg","img/neutralC/CFD-BM-217-082-N.jpg","1","1","1","1","0","0","0.366785999853164","0.304847699590027","0.4145133998245","1","1","1","1","1","1","1","1","1"
"250002","img/neutralC/CFD-BM-217-082-N.jpg","img/neutralC/CFD-BM-250-170-N.jpg","img/neutralC/CFD-LM-200-045-N.jpg","1","1","1","0","1","1","0.4145133998245","0.366785999853164","0.395531999878585","1","1","1","1","1","1","1","1","1"
"250002","img/neutralC/CFD-LM-200-045-N.jpg","img/neutralC/CFD-BM-217-082-N.jpg","img/neutralC/CFD-LF-206-078-N.jpg","1","1","1","1","0","1","0.395531999878585","0.4145133998245","0.333254599478096","1","1","1","1","1","1","1","1","1"
"250002","img/neutralC/CFD-LF-206-078-N.jpg","img/neutralC/CFD-LM-200-045-N.jpg","img/neutralC/CFD-WM-218-074-N.jpg","1","1","1","1","1","1","0.333254599478096","0.395531999878585","0.425469399429858","1","1","1","1","1","1","1","1","1"
"250002","img/neutralC/CFD-WM-218-074-N.jpg","img/neutralC/CFD-LF-206-078-N.jpg","img/neutralC/CFD-IF-660-464-N.jpg","1","1","1","1","1","0","0.425469399429858","0.333254599478096","0.378831399604678","1","1","1","1","1","1","1","1","1"
"250002","img/neutralC/CFD-IF-660-464-N.jpg","img/neutralC/CFD-WM-218-074-N.jpg","img/neutralC/CFD-WF-030-002-N.jpg","1","1","1","0","1","0","0.378831399604678","0.425469399429858","0.421979899518192","1","1","1","1","1","1","1","1","1"
"250002","img/neutralC/CFD-WF-030-002-N.jpg","img/neutralC/CFD-IF-660-464-N.jpg","img/neutralC/CFD-IM-702-101-N.jpg","1","1","1","0","0","1","0.421979899518192","0.378831399604678","0.337599099613726","1","1","1","1","1","1","1","1","1"
"250002","img/neutralC/CFD-IM-702-101-N.jpg","img/neutralC/CFD-WF-030-002-N.jpg","img/neutralC/CFD-AM-220-134-N.jpg","1","1","0","1","0","0","0.337599099613726","0.421979899518192","0.36072209989652","1","1","1","1","1","1","1","1","1"
"250002","img/neutralC/CFD-AM-220-134-N.jpg","img/neutralC/CFD-IM-702-101-N.jpg","img/neutralC/CFD-MF-303-013-N.jpg","0","1","1","0","1","0","0.36072209989652","0.337599099613726","0.45586929935962","1","1","1","1","1","1","1","1","1"
"250002","img/neutralC/CFD-MF-303-013-N.jpg","img/neutralC/CFD-AM-220-134-N.jpg","img/neutralC/CFD-BF-237-172-N.jpg","1","0","1","0","0","1","0.45586929935962","0.36072209989652","0.378483299631625","1","1","1","1","1","1","1","1","1"
"250002","img/neutralC/CFD-BF-237-172-N.jpg","img/neutralC/CFD-MF-303-013-N.jpg","img/neutralC/CFD-IF-626-375-N.jpg","1","1","0","1","0","0","0.378483299631625","0.45586929935962","0.319556499831378","1","1","1","1","1","1","1","1","1"
"250002","img/neutralC/CFD-IF-626-375-N.jpg","img/neutralC/CFD-BF-237-172-N.jpg","img/neutralC/CFD-LF-255-088-N.jpg","0","1","1","0","1","0","0.319556499831378","0.378483299631625","0.385233299806714","1","1","1","1","1","1","1","1","1"
"250002","img/neutralC/CFD-LF-255-088-N.jpg","img/neutralC/CFD-IF-626-375-N.jpg","img/neutralC/CFD-BF-014-002-N.jpg","1","0","1","0","0","1","0.385233299806714","0.319556499831378","0.369451099541038","1","1","1","1","1","1","1","1","1"
"250002","img/neutralC/CFD-BF-014-002-N.jpg","img/neutralC/CFD-LF-255-088-N.jpg","img/neutralC/CFD-AF-233-190-N.jpg","1","1","0","1","0","0","0.369451099541038","0.385233299806714","0.404500199481845","1","1","1","1","1","1","1","1","1"
"250002","img/neutralC/CFD-AF-233-190-N.jpg","img/neutralC/CFD-BF-014-002-N.jpg","img/neutralC/CFD-IM-680-369-N.jpg","0","1","1","0","1","1","0.404500199481845","0.369451099541038","0.365280299447477","1","1","1","1","1","1","1","1","1"
"250002","img/neutralC/CFD-IM-680-369-N.jpg","img/neutralC/CFD-AF-233-190-N.jpg","img/neutralC/CFD-MF-357-002-N.jpg","1","0","1","1","0","0","0.365280299447477","0.404500199481845","0.544548999518156","1","1","1","1","1","1","1","1","1"
"250002","img/neutralC/CFD-MF-357-002-N.jpg","img/neutralC/CFD-IM-680-369-N.jpg","img/neutralC/CFD-WM-209-038-N.jpg","1","1","1","0","1","0","0.544548999518156","0.365280299447477","0.375258399639279","1","1","1","1","1","1","1","1","1"
"250002","img/neutralC/CFD-WM-209-038-N.jpg","img/neutralC/CFD-MF-357-002-N.jpg","img/neutralC/CFD-MF-305-014-N.jpg","1","1","1","0","0","1","0.375258399639279","0.544548999518156","0.379774000030011","1","1","1","1","1","1","1","1","1"
"250002","img/neutralC/CFD-MF-305-014-N.jpg","img/neutralC/CFD-WM-209-038-N.jpg","img/neutralC/CFD-WF-244-163-N.jpg","1","1","1","1","0","1","0.379774000030011","0.375258399639279","0.350175499450415","1","1","1","1","1","1","1","1","1"
"250002","img/neutralC/CFD-WF-244-163-N.jpg","img/neutralC/CFD-MF-305-014-N.jpg","img/neutralC/CFD-IM-664-651-N.jpg","1","1","1","1","1","1","0.350175499450415","0.379774000030011","0.351627299562097","1","1","1","1","1","1","1","1","1"
"250002","img/neutralC/CFD-IM-664-651-N.jpg","img/neutralC/CFD-WF-244-163-N.jpg","img/neutralC/CFD-WF-007-001-N.jpg","1","1","1","1","1","1","0.351627299562097","0.350175499450415","0.316457899753004","1","1","1","1","1","1","1","1","1"
"250002","img/neutralC/CFD-WF-007-001-N.jpg","img/neutralC/CFD-IM-664-651-N.jpg","img/neutralC/CFD-IM-667-369-N.jpg","1","1","0","1","1","0","0.316457899753004","0.351627299562097","0.327410199679434","1","1","1","1","1","1","1","1","1"
"250002","img/neutralC/CFD-IM-667-369-N.jpg","img/neutralC/CFD-WF-007-001-N.jpg","img/neutralC/CFD-LM-225-130-N.jpg","0","1","1","0","1","0","0.327410199679434","0.316457899753004","0.485125799663365","1","1","1","1","1","1","1","1","1"
"250002","img/neutralC/CFD-LM-225-130-N.jpg","img/neutralC/CFD-IM-667-369-N.jpg","img/neutralC/CFD-MF-343-001-N.jpg","1","0","1","0","0","1","0.485125799663365","0.327410199679434","0.441872499883175","1","1","1","1","1","1","1","1","1"
"250002","img/neutralC/CFD-MF-343-001-N.jpg","img/neutralC/CFD-LM-225-130-N.jpg","img/neutralC/CFD-AF-253-130-N.jpg","1","1","1","1","0","1","0.441872499883175","0.485125799663365","0.349500499665737","1","1","1","1","1","1","1","1","1"
"250002","img/neutralC/CFD-AF-253-130-N.jpg","img/neutralC/CFD-MF-343-001-N.jpg","img/neutralC/CFD-MM-324-069-N.jpg","1","1","1","1","1","1","0.349500499665737","0.441872499883175","0.316769799683243","1","1","1","1","1","1","1","1","1"
"250002","img/neutralC/CFD-MM-324-069-N.jpg","img/neutralC/CFD-AF-253-130-N.jpg","img/neutralC/CFD-MF-316-001-N.jpg","1","1","1","1","1","0","0.316769799683243","0.349500499665737","0.572313099633902","1","1","1","1","1","1","1","1","1"
"250002","img/neutralC/CFD-MF-316-001-N.jpg","img/neutralC/CFD-MM-324-069-N.jpg","img/neutralC/CFD-BM-001-014-N.jpg","1","1","1","0","1","0","0.572313099633902","0.316769799683243","0.442638599779457","1","1","1","1","1","1","1","1","1"
"250002","img/neutralC/CFD-BM-001-014-N.jpg","img/neutralC/CFD-MF-316-001-N.jpg",NA,"1","1",NA,"0","0",NA,"0.442638599779457","0.572313099633902",NA,"1","1",NA,"1","1",NA,"1","1",NA
