"participant_id","current_trial_face","pre_trial_face","post_trial_face","current_trial_accuracy","pre_trial_accuracy","post_trial_accuracy","current_trial_congruency","pre_trial_congruency","post_trial_congruency","current_trial_rt","pre_trial_rt","post_trial_rt","current_trial_responded","pre_trial_responded","post_trial_responded","current_trial_legitResponse","pre_trial_legitResponse","post_trial_legitResponse","current_trial_resp_nums","pre_trial_resp_nums","post_trial_resp_nums"
"250017","img/neutralC/CFD-BF-011-002-N.jpg",NA,"img/neutralC/CFD-BF-214-308-N.jpg","1",NA,"1","1",NA,"1","0.518290300009539",NA,"0.445411199994851","1",NA,"1","1",NA,"1","1",NA,"1"
"250017","img/neutralC/CFD-BF-214-308-N.jpg","img/neutralC/CFD-BF-011-002-N.jpg","img/neutralC/CFD-BF-044-034-N.jpg","1","1","1","1","1","0","0.445411199994851","0.518290300009539","0.616264100011904","1","1","1","1","1","1","1","1","1"
"250017","img/neutralC/CFD-BF-044-034-N.jpg","img/neutralC/CFD-BF-214-308-N.jpg","img/neutralC/CFD-WM-034-030-N.jpg","1","1","1","0","1","1","0.616264100011904","0.445411199994851","0.381926300004125","1","1","1","1","1","1","1","1","1"
"250017","img/neutralC/CFD-WM-034-030-N.jpg","img/neutralC/CFD-BF-044-034-N.jpg","img/neutralC/CFD-IF-677-452-1-N.jpg","1","1","1","1","0","1","0.381926300004125","0.616264100011904","0.407495899999049","1","1","1","1","1","1","1","1","1"
"250017","img/neutralC/CFD-IF-677-452-1-N.jpg","img/neutralC/CFD-WM-034-030-N.jpg","img/neutralC/CFD-BF-247-179-N.jpg","1","1","1","1","1","0","0.407495899999049","0.381926300004125","0.402084600005765","1","1","1","1","1","1","1","1","1"
"250017","img/neutralC/CFD-BF-247-179-N.jpg","img/neutralC/CFD-IF-677-452-1-N.jpg","img/neutralC/CFD-BM-238-242-N.jpg","1","1","1","0","1","0","0.402084600005765","0.407495899999049","0.544340599997668","1","1","1","1","1","1","1","1","1"
"250017","img/neutralC/CFD-BM-238-242-N.jpg","img/neutralC/CFD-BF-247-179-N.jpg","img/neutralC/CFD-WF-234-086-N.jpg","1","1","1","0","0","1","0.544340599997668","0.402084600005765","0.360441400000127","1","1","1","1","1","1","1","1","1"
"250017","img/neutralC/CFD-WF-234-086-N.jpg","img/neutralC/CFD-BM-238-242-N.jpg","img/neutralC/CFD-BF-006-017-N.jpg","1","1","1","1","0","0","0.360441400000127","0.544340599997668","0.480621099995915","1","1","1","1","1","1","1","1","1"
"250017","img/neutralC/CFD-BF-006-017-N.jpg","img/neutralC/CFD-WF-234-086-N.jpg","img/neutralC/CFD-WF-233-112-N.jpg","1","1","1","0","1","1","0.480621099995915","0.360441400000127","0.385411499999464","1","1","1","1","1","1","1","1","1"
"250017","img/neutralC/CFD-WF-233-112-N.jpg","img/neutralC/CFD-BF-006-017-N.jpg","img/neutralC/CFD-IF-729-393-N.jpg","1","1","1","1","0","0","0.385411499999464","0.480621099995915","0.356640600017272","1","1","1","1","1","1","1","1","1"
"250017","img/neutralC/CFD-IF-729-393-N.jpg","img/neutralC/CFD-WF-233-112-N.jpg","img/neutralC/CFD-IF-742-103-N.jpg","1","1","1","0","1","1","0.356640600017272","0.385411499999464","0.381428299995605","1","1","1","1","1","1","1","1","1"
"250017","img/neutralC/CFD-IF-742-103-N.jpg","img/neutralC/CFD-IF-729-393-N.jpg","img/neutralC/CFD-BF-027-002-N.jpg","1","1","1","1","0","1","0.381428299995605","0.356640600017272","0.363290300010704","1","1","1","1","1","1","1","1","1"
"250017","img/neutralC/CFD-BF-027-002-N.jpg","img/neutralC/CFD-IF-742-103-N.jpg","img/neutralC/CFD-WM-014-002-N.jpg","1","1","1","1","1","0","0.363290300010704","0.381428299995605","0.465073800005484","1","1","1","1","1","1","1","1","1"
"250017","img/neutralC/CFD-WM-014-002-N.jpg","img/neutralC/CFD-BF-027-002-N.jpg","img/neutralC/CFD-BM-241-235-N.jpg","1","1","1","0","1","0","0.465073800005484","0.363290300010704","0.39097100001527","1","1","1","1","1","1","1","1","1"
"250017","img/neutralC/CFD-BM-241-235-N.jpg","img/neutralC/CFD-WM-014-002-N.jpg","img/neutralC/CFD-BF-002-001-N.jpg","1","1","1","0","0","0","0.39097100001527","0.465073800005484","0.386709200014593","1","1","1","1","1","1","1","1","1"
"250017","img/neutralC/CFD-BF-002-001-N.jpg","img/neutralC/CFD-BM-241-235-N.jpg","img/neutralC/CFD-BF-036-027-N.jpg","1","1","1","0","0","0","0.386709200014593","0.39097100001527","0.476740400015842","1","1","1","1","1","1","1","1","1"
"250017","img/neutralC/CFD-BF-036-027-N.jpg","img/neutralC/CFD-BF-002-001-N.jpg","img/neutralC/CFD-BM-036-003-N.jpg","1","1","1","0","0","1","0.476740400015842","0.386709200014593","0.438102000014624","1","1","1","1","1","1","1","1","1"
"250017","img/neutralC/CFD-BM-036-003-N.jpg","img/neutralC/CFD-BF-036-027-N.jpg","img/neutralC/CFD-MF-301-024-N.jpg","1","1","1","1","0","0","0.438102000014624","0.476740400015842","0.478422299987869","1","1","1","1","1","1","1","1","1"
"250017","img/neutralC/CFD-MF-301-024-N.jpg","img/neutralC/CFD-BM-036-003-N.jpg","img/neutralC/CFD-LF-204-133-N.jpg","1","1","1","0","1","1","0.478422299987869","0.438102000014624","0.376629300008062","1","1","1","1","1","1","1","1","1"
"250017","img/neutralC/CFD-LF-204-133-N.jpg","img/neutralC/CFD-MF-301-024-N.jpg","img/neutralC/CFD-IM-696-001-N.jpg","1","1","1","1","0","0","0.376629300008062","0.478422299987869","0.40139710000949","1","1","1","1","1","1","1","1","1"
"250017","img/neutralC/CFD-IM-696-001-N.jpg","img/neutralC/CFD-LF-204-133-N.jpg","img/neutralC/CFD-BF-207-004-N.jpg","1","1","1","0","1","1","0.40139710000949","0.376629300008062","0.334428799978923","1","1","1","1","1","1","1","1","1"
"250017","img/neutralC/CFD-BF-207-004-N.jpg","img/neutralC/CFD-IM-696-001-N.jpg","img/neutralC/CFD-AM-230-150-N.jpg","1","1","1","1","0","0","0.334428799978923","0.40139710000949","0.404906700015999","1","1","1","1","1","1","1","1","1"
"250017","img/neutralC/CFD-AM-230-150-N.jpg","img/neutralC/CFD-BF-207-004-N.jpg","img/neutralC/CFD-WF-029-002-N.jpg","1","1","1","0","1","0","0.404906700015999","0.334428799978923","0.393893900007242","1","1","1","1","1","1","1","1","1"
"250017","img/neutralC/CFD-WF-029-002-N.jpg","img/neutralC/CFD-AM-230-150-N.jpg","img/neutralC/CFD-WF-208-068-N.jpg","1","1","1","0","0","1","0.393893900007242","0.404906700015999","0.448150699987309","1","1","1","1","1","1","1","1","1"
"250017","img/neutralC/CFD-WF-208-068-N.jpg","img/neutralC/CFD-WF-029-002-N.jpg","img/neutralC/CFD-IM-721-341-N.jpg","1","1","1","1","0","1","0.448150699987309","0.393893900007242","0.390194300009171","1","1","1","1","1","1","1","1","1"
"250017","img/neutralC/CFD-IM-721-341-N.jpg","img/neutralC/CFD-WF-208-068-N.jpg","img/neutralC/CFD-BM-207-024-N.jpg","1","1","1","1","1","1","0.390194300009171","0.448150699987309","0.402331499994034","1","1","1","1","1","1","1","1","1"
"250017","img/neutralC/CFD-BM-207-024-N.jpg","img/neutralC/CFD-IM-721-341-N.jpg","img/neutralC/CFD-BF-236-177-N.jpg","1","1","1","1","1","0","0.402331499994034","0.390194300009171","0.454478899977403","1","1","1","1","1","1","1","1","1"
"250017","img/neutralC/CFD-BF-236-177-N.jpg","img/neutralC/CFD-BM-207-024-N.jpg","img/neutralC/CFD-IM-707-105-N.jpg","1","1","1","0","1","1","0.454478899977403","0.402331499994034","0.408509999979287","1","1","1","1","1","1","1","1","1"
"250017","img/neutralC/CFD-IM-707-105-N.jpg","img/neutralC/CFD-BF-236-177-N.jpg","img/neutralC/CFD-LM-213-061-N.jpg","1","1","1","1","0","0","0.408509999979287","0.454478899977403","0.399515400000382","1","1","1","1","1","1","1","1","1"
"250017","img/neutralC/CFD-LM-213-061-N.jpg","img/neutralC/CFD-IM-707-105-N.jpg","img/neutralC/CFD-WM-248-036-N.jpg","1","1","1","0","1","1","0.399515400000382","0.408509999979287","0.40275219999603","1","1","1","1","1","1","1","1","1"
"250017","img/neutralC/CFD-WM-248-036-N.jpg","img/neutralC/CFD-LM-213-061-N.jpg","img/neutralC/CFD-IM-726-248-N.jpg","1","1","1","1","0","0","0.40275219999603","0.399515400000382","0.532629600027576","1","1","1","1","1","1","1","1","1"
"250017","img/neutralC/CFD-IM-726-248-N.jpg","img/neutralC/CFD-WM-248-036-N.jpg",NA,"1","1",NA,"0","1",NA,"0.532629600027576","0.40275219999603",NA,"1","1",NA,"1","1",NA,"1","1",NA
"250017","img/neutralC/CFD-AF-227-207-N.jpg",NA,"img/neutralC/CFD-BM-003-003-N.jpg","1",NA,"1","1",NA,"0","0.591201999981422",NA,"0.412500499980524","1",NA,"1","1",NA,"1","1",NA,"1"
"250017","img/neutralC/CFD-BM-003-003-N.jpg","img/neutralC/CFD-AF-227-207-N.jpg","img/neutralC/CFD-IF-625-225-N.jpg","1","1","1","0","1","0","0.412500499980524","0.591201999981422","0.390754900028696","1","1","1","1","1","1","1","1","1"
"250017","img/neutralC/CFD-IF-625-225-N.jpg","img/neutralC/CFD-BM-003-003-N.jpg","img/neutralC/CFD-LM-247-095-N.jpg","1","1","1","0","0","0","0.390754900028696","0.412500499980524","0.420997899986105","1","1","1","1","1","1","1","1","1"
"250017","img/neutralC/CFD-LM-247-095-N.jpg","img/neutralC/CFD-IF-625-225-N.jpg","img/neutralC/CFD-LF-210-220-N.jpg","1","1","1","0","0","1","0.420997899986105","0.390754900028696","0.359030799998436","1","1","1","1","1","1","1","1","1"
"250017","img/neutralC/CFD-LF-210-220-N.jpg","img/neutralC/CFD-LM-247-095-N.jpg","img/neutralC/CFD-LF-208-127-N.jpg","1","1","1","1","0","0","0.359030799998436","0.420997899986105","0.347001299989643","1","1","1","1","1","1","1","1","1"
"250017","img/neutralC/CFD-LF-208-127-N.jpg","img/neutralC/CFD-LF-210-220-N.jpg","img/neutralC/CFD-BM-213-134-N.jpg","1","1","1","0","1","1","0.347001299989643","0.359030799998436","0.350863400002709","1","1","1","1","1","1","1","1","1"
"250017","img/neutralC/CFD-BM-213-134-N.jpg","img/neutralC/CFD-LF-208-127-N.jpg","img/neutralC/CFD-BM-010-003-N.jpg","1","1","1","1","0","0","0.350863400002709","0.347001299989643","0.453027300012764","1","1","1","1","1","1","1","1","1"
"250017","img/neutralC/CFD-BM-010-003-N.jpg","img/neutralC/CFD-BM-213-134-N.jpg","img/neutralC/CFD-IM-659-359-N.jpg","1","1","0","0","1","0","0.453027300012764","0.350863400002709","0.346391099999892","1","1","1","1","1","1","1","1","1"
"250017","img/neutralC/CFD-IM-659-359-N.jpg","img/neutralC/CFD-BM-010-003-N.jpg","img/neutralC/CFD-BF-004-014-N.jpg","0","1","1","0","0","1","0.346391099999892","0.453027300012764","0.393228700006148","1","1","1","1","1","1","1","1","1"
"250017","img/neutralC/CFD-BF-004-014-N.jpg","img/neutralC/CFD-IM-659-359-N.jpg","img/neutralC/CFD-BM-013-002-N.jpg","1","0","1","1","0","1","0.393228700006148","0.346391099999892","0.396932000003289","1","1","1","1","1","1","1","1","1"
"250017","img/neutralC/CFD-BM-013-002-N.jpg","img/neutralC/CFD-BF-004-014-N.jpg","img/neutralC/CFD-WM-254-152-N.jpg","1","1","1","1","1","1","0.396932000003289","0.393228700006148","0.367925099999411","1","1","1","1","1","1","1","1","1"
"250017","img/neutralC/CFD-WM-254-152-N.jpg","img/neutralC/CFD-BM-013-002-N.jpg","img/neutralC/CFD-IM-701-312-N.jpg","1","1","1","1","1","0","0.367925099999411","0.396932000003289","0.424941200006288","1","1","1","1","1","1","1","1","1"
"250017","img/neutralC/CFD-IM-701-312-N.jpg","img/neutralC/CFD-WM-254-152-N.jpg","img/neutralC/CFD-IF-744-114-N.jpg","1","1","1","0","1","0","0.424941200006288","0.367925099999411","0.324150899978122","1","1","1","1","1","1","1","1","1"
"250017","img/neutralC/CFD-IF-744-114-N.jpg","img/neutralC/CFD-IM-701-312-N.jpg","img/neutralC/CFD-IM-738-191-N.jpg","1","1","1","0","0","0","0.324150899978122","0.424941200006288","0.423671600001398","1","1","1","1","1","1","1","1","1"
"250017","img/neutralC/CFD-IM-738-191-N.jpg","img/neutralC/CFD-IF-744-114-N.jpg","img/neutralC/CFD-MF-336-016-N.jpg","1","1","1","0","0","1","0.423671600001398","0.324150899978122","0.396048200025689","1","1","1","1","1","1","1","1","1"
"250017","img/neutralC/CFD-MF-336-016-N.jpg","img/neutralC/CFD-IM-738-191-N.jpg","img/neutralC/CFD-IF-673-389-N.jpg","1","1","1","1","0","0","0.396048200025689","0.423671600001398","0.475461900001392","1","1","1","1","1","1","1","1","1"
"250017","img/neutralC/CFD-IF-673-389-N.jpg","img/neutralC/CFD-MF-336-016-N.jpg","img/neutralC/CFD-BF-045-003-N.jpg","1","1","1","0","1","0","0.475461900001392","0.396048200025689","0.4183421000198","1","1","1","1","1","1","1","1","1"
"250017","img/neutralC/CFD-BF-045-003-N.jpg","img/neutralC/CFD-IF-673-389-N.jpg","img/neutralC/CFD-LF-241-188-N.jpg","1","1","1","0","0","0","0.4183421000198","0.475461900001392","0.532510399993043","1","1","1","1","1","1","1","1","1"
"250017","img/neutralC/CFD-LF-241-188-N.jpg","img/neutralC/CFD-BF-045-003-N.jpg","img/neutralC/CFD-BF-222-240-N.jpg","1","1","1","0","0","0","0.532510399993043","0.4183421000198","0.39266230002977","1","1","1","1","1","1","1","1","1"
"250017","img/neutralC/CFD-BF-222-240-N.jpg","img/neutralC/CFD-LF-241-188-N.jpg","img/neutralC/CFD-AF-239-171-N.jpg","1","1","1","0","0","1","0.39266230002977","0.532510399993043","0.382818699989002","1","1","1","1","1","1","1","1","1"
"250017","img/neutralC/CFD-AF-239-171-N.jpg","img/neutralC/CFD-BF-222-240-N.jpg","img/neutralC/CFD-MF-312-002-N.jpg","1","1","1","1","0","1","0.382818699989002","0.39266230002977","0.313883499999065","1","1","1","1","1","1","1","1","1"
"250017","img/neutralC/CFD-MF-312-002-N.jpg","img/neutralC/CFD-AF-239-171-N.jpg","img/neutralC/CFD-WF-223-133-N.jpg","1","1","1","1","1","0","0.313883499999065","0.382818699989002","0.435126199998194","1","1","1","1","1","1","1","1","1"
"250017","img/neutralC/CFD-WF-223-133-N.jpg","img/neutralC/CFD-MF-312-002-N.jpg","img/neutralC/CFD-LF-225-164-N.jpg","1","1","1","0","1","1","0.435126199998194","0.313883499999065","0.388609799992992","1","1","1","1","1","1","1","1","1"
"250017","img/neutralC/CFD-LF-225-164-N.jpg","img/neutralC/CFD-WF-223-133-N.jpg","img/neutralC/CFD-WM-228-065-N.jpg","1","1","1","1","0","0","0.388609799992992","0.435126199998194","0.428724299999885","1","1","1","1","1","1","1","1","1"
"250017","img/neutralC/CFD-WM-228-065-N.jpg","img/neutralC/CFD-LF-225-164-N.jpg","img/neutralC/CFD-LM-238-129-N.jpg","1","1","1","0","1","1","0.428724299999885","0.388609799992992","0.360548400029074","1","1","1","1","1","1","1","1","1"
"250017","img/neutralC/CFD-LM-238-129-N.jpg","img/neutralC/CFD-WM-228-065-N.jpg","img/neutralC/CFD-AF-210-050-N.jpg","1","1","1","1","0","1","0.360548400029074","0.428724299999885","0.363069300015923","1","1","1","1","1","1","1","1","1"
"250017","img/neutralC/CFD-AF-210-050-N.jpg","img/neutralC/CFD-LM-238-129-N.jpg","img/neutralC/CFD-BM-028-002-N.jpg","1","1","1","1","1","1","0.363069300015923","0.360548400029074","0.393765300017549","1","1","1","1","1","1","1","1","1"
"250017","img/neutralC/CFD-BM-028-002-N.jpg","img/neutralC/CFD-AF-210-050-N.jpg","img/neutralC/CFD-WF-006-002-N.jpg","1","1","1","1","1","0","0.393765300017549","0.363069300015923","0.507353799999692","1","1","1","1","1","1","1","1","1"
"250017","img/neutralC/CFD-WF-006-002-N.jpg","img/neutralC/CFD-BM-028-002-N.jpg","img/neutralC/CFD-AM-221-184-N.jpg","1","1","1","0","1","1","0.507353799999692","0.393765300017549","0.361067200021353","1","1","1","1","1","1","1","1","1"
"250017","img/neutralC/CFD-AM-221-184-N.jpg","img/neutralC/CFD-WF-006-002-N.jpg","img/neutralC/CFD-WF-033-002-N.jpg","1","1","1","1","0","1","0.361067200021353","0.507353799999692","0.410145000001648","1","1","1","1","1","1","1","1","1"
"250017","img/neutralC/CFD-WF-033-002-N.jpg","img/neutralC/CFD-AM-221-184-N.jpg","img/neutralC/CFD-WM-202-107-N.jpg","1","1","1","1","1","1","0.410145000001648","0.361067200021353","0.357690000004368","1","1","1","1","1","1","1","1","1"
"250017","img/neutralC/CFD-WM-202-107-N.jpg","img/neutralC/CFD-WF-033-002-N.jpg",NA,"1","1",NA,"1","1",NA,"0.357690000004368","0.410145000001648",NA,"1","1",NA,"1","1",NA,"1","1",NA
"250017","img/neutralC/CFD-IM-604-014-N.jpg",NA,"img/neutralC/CFD-BF-224-002-N.jpg","1",NA,"1","0",NA,"1","0.510490500018932",NA,"0.340496599994367","1",NA,"1","1",NA,"1","1",NA,"1"
"250017","img/neutralC/CFD-BF-224-002-N.jpg","img/neutralC/CFD-IM-604-014-N.jpg","img/neutralC/CFD-WF-217-085-N.jpg","1","1","1","1","0","1","0.340496599994367","0.510490500018932","0.350653399975272","1","1","1","1","1","1","1","1","1"
"250017","img/neutralC/CFD-WF-217-085-N.jpg","img/neutralC/CFD-BF-224-002-N.jpg","img/neutralC/CFD-AF-229-160-N.jpg","1","1","1","1","1","0","0.350653399975272","0.340496599994367","0.357229800021742","1","1","1","1","1","1","1","1","1"
"250017","img/neutralC/CFD-AF-229-160-N.jpg","img/neutralC/CFD-WF-217-085-N.jpg","img/neutralC/CFD-WM-232-070-N.jpg","1","1","1","0","1","0","0.357229800021742","0.350653399975272","0.344290800014278","1","1","1","1","1","1","1","1","1"
"250017","img/neutralC/CFD-WM-232-070-N.jpg","img/neutralC/CFD-AF-229-160-N.jpg","img/neutralC/CFD-MF-300-002-N.jpg","1","1","1","0","0","0","0.344290800014278","0.357229800021742","0.386716599983629","1","1","1","1","1","1","1","1","1"
"250017","img/neutralC/CFD-MF-300-002-N.jpg","img/neutralC/CFD-WM-232-070-N.jpg","img/neutralC/CFD-LF-201-035-N.jpg","1","1","1","0","0","1","0.386716599983629","0.344290800014278","0.38134250001167","1","1","1","1","1","1","1","1","1"
"250017","img/neutralC/CFD-LF-201-035-N.jpg","img/neutralC/CFD-MF-300-002-N.jpg","img/neutralC/CFD-MF-340-026-N.jpg","1","1","1","1","0","1","0.38134250001167","0.386716599983629","0.357546399987768","1","1","1","1","1","1","1","1","1"
"250017","img/neutralC/CFD-MF-340-026-N.jpg","img/neutralC/CFD-LF-201-035-N.jpg","img/neutralC/CFD-LM-217-162-N.jpg","1","1","1","1","1","0","0.357546399987768","0.38134250001167","0.278699400019832","1","1","1","1","1","1","1","1","1"
"250017","img/neutralC/CFD-LM-217-162-N.jpg","img/neutralC/CFD-MF-340-026-N.jpg","img/neutralC/CFD-IM-675-015-N.jpg","1","1","1","0","1","1","0.278699400019832","0.357546399987768","0.594046799989883","1","1","1","1","1","1","1","1","1"
"250017","img/neutralC/CFD-IM-675-015-N.jpg","img/neutralC/CFD-LM-217-162-N.jpg","img/neutralC/CFD-WF-008-002-N.jpg","1","1","1","1","0","1","0.594046799989883","0.278699400019832","0.328275000007125","1","1","1","1","1","1","1","1","1"
"250017","img/neutralC/CFD-WF-008-002-N.jpg","img/neutralC/CFD-IM-675-015-N.jpg","img/neutralC/CFD-WF-012-002-N.jpg","1","1","1","1","1","1","0.328275000007125","0.594046799989883","0.352643300022464","1","1","1","1","1","1","1","1","1"
"250017","img/neutralC/CFD-WF-012-002-N.jpg","img/neutralC/CFD-WF-008-002-N.jpg","img/neutralC/CFD-WM-213-076-N.jpg","1","1","1","1","1","1","0.352643300022464","0.328275000007125","0.393199700018158","1","1","1","1","1","1","1","1","1"
"250017","img/neutralC/CFD-WM-213-076-N.jpg","img/neutralC/CFD-WF-012-002-N.jpg","img/neutralC/CFD-BM-039-029-N.jpg","1","1","1","1","1","1","0.393199700018158","0.352643300022464","0.39343630001531","1","1","1","1","1","1","1","1","1"
"250017","img/neutralC/CFD-BM-039-029-N.jpg","img/neutralC/CFD-WM-213-076-N.jpg","img/neutralC/CFD-WM-024-015-N.jpg","1","1","1","1","1","1","0.39343630001531","0.393199700018158","0.36364210001193","1","1","1","1","1","1","1","1","1"
"250017","img/neutralC/CFD-WM-024-015-N.jpg","img/neutralC/CFD-BM-039-029-N.jpg","img/neutralC/CFD-WF-248-129-N.jpg","1","1","1","1","1","0","0.36364210001193","0.39343630001531","0.473778099985793","1","1","1","1","1","1","1","1","1"
"250017","img/neutralC/CFD-WF-248-129-N.jpg","img/neutralC/CFD-WM-024-015-N.jpg","img/neutralC/CFD-IM-685-004-N.jpg","1","1","1","0","1","1","0.473778099985793","0.36364210001193","0.39142329999595","1","1","1","1","1","1","1","1","1"
"250017","img/neutralC/CFD-IM-685-004-N.jpg","img/neutralC/CFD-WF-248-129-N.jpg","img/neutralC/CFD-AF-215-70-N.jpg","1","1","1","1","0","0","0.39142329999595","0.473778099985793","0.41434049999225","1","1","1","1","1","1","1","1","1"
"250017","img/neutralC/CFD-AF-215-70-N.jpg","img/neutralC/CFD-IM-685-004-N.jpg","img/neutralC/CFD-AM-236-090-N.jpg","1","1","1","0","1","1","0.41434049999225","0.39142329999595","0.361843899998348","1","1","1","1","1","1","1","1","1"
"250017","img/neutralC/CFD-AM-236-090-N.jpg","img/neutralC/CFD-AF-215-70-N.jpg","img/neutralC/CFD-LF-226-174-N.jpg","1","1","0","1","0","0","0.361843899998348","0.41434049999225","0.340752900025109","1","1","1","1","1","1","1","1","2"
"250017","img/neutralC/CFD-LF-226-174-N.jpg","img/neutralC/CFD-AM-236-090-N.jpg","img/neutralC/CFD-IM-709-103-N.jpg","0","1","1","0","1","0","0.340752900025109","0.361843899998348","0.529335800005356","1","1","1","1","1","1","2","1","1"
"250017","img/neutralC/CFD-IM-709-103-N.jpg","img/neutralC/CFD-LF-226-174-N.jpg","img/neutralC/CFD-IF-608-390-N.jpg","1","0","1","0","0","1","0.529335800005356","0.340752900025109","0.373182500014082","1","1","1","1","1","1","1","2","1"
"250017","img/neutralC/CFD-IF-608-390-N.jpg","img/neutralC/CFD-IM-709-103-N.jpg","img/neutralC/CFD-IM-637-007-N.jpg","1","1","1","1","0","0","0.373182500014082","0.529335800005356","0.419508699997095","1","1","1","1","1","1","1","1","1"
"250017","img/neutralC/CFD-IM-637-007-N.jpg","img/neutralC/CFD-IF-608-390-N.jpg","img/neutralC/CFD-MF-329-001-N.jpg","1","1","1","0","1","0","0.419508699997095","0.373182500014082","0.372134000004735","1","1","1","1","1","1","1","1","1"
"250017","img/neutralC/CFD-MF-329-001-N.jpg","img/neutralC/CFD-IM-637-007-N.jpg","img/neutralC/CFD-IF-619-197-N.jpg","1","1","1","0","0","0","0.372134000004735","0.419508699997095","0.483084000006784","1","1","1","1","1","1","1","1","1"
"250017","img/neutralC/CFD-IF-619-197-N.jpg","img/neutralC/CFD-MF-329-001-N.jpg","img/neutralC/CFD-MF-327-002-N.jpg","1","1","0","0","0","0","0.483084000006784","0.372134000004735","0.357400900014909","1","1","1","1","1","1","1","1","1"
"250017","img/neutralC/CFD-MF-327-002-N.jpg","img/neutralC/CFD-IF-619-197-N.jpg","img/neutralC/CFD-WF-212-050-N.jpg","0","1","1","0","0","0","0.357400900014909","0.483084000006784","0.508665699977428","1","1","1","1","1","1","1","1","1"
"250017","img/neutralC/CFD-WF-212-050-N.jpg","img/neutralC/CFD-MF-327-002-N.jpg","img/neutralC/CFD-AF-254-167-N.jpg","1","0","1","0","0","1","0.508665699977428","0.357400900014909","0.335979200026486","1","1","1","1","1","1","1","1","1"
"250017","img/neutralC/CFD-AF-254-167-N.jpg","img/neutralC/CFD-WF-212-050-N.jpg","img/neutralC/CFD-BM-243-218-N.jpg","1","1","1","1","0","1","0.335979200026486","0.508665699977428","0.348584799998207","1","1","1","1","1","1","1","1","1"
"250017","img/neutralC/CFD-BM-243-218-N.jpg","img/neutralC/CFD-AF-254-167-N.jpg","img/neutralC/CFD-BF-043-003-N.jpg","1","1","1","1","1","0","0.348584799998207","0.335979200026486","0.44797410001047","1","1","1","1","1","1","1","1","1"
"250017","img/neutralC/CFD-BF-043-003-N.jpg","img/neutralC/CFD-BM-243-218-N.jpg","img/neutralC/CFD-BF-051-035-N.jpg","1","1","1","0","1","0","0.44797410001047","0.348584799998207","0.425945100025274","1","1","1","1","1","1","1","1","1"
"250017","img/neutralC/CFD-BF-051-035-N.jpg","img/neutralC/CFD-BF-043-003-N.jpg","img/neutralC/CFD-MM-304-002-N.jpg","1","1","1","0","0","1","0.425945100025274","0.44797410001047","0.392841599998064","1","1","1","1","1","1","1","1","1"
"250017","img/neutralC/CFD-MM-304-002-N.jpg","img/neutralC/CFD-BF-051-035-N.jpg",NA,"1","1",NA,"1","0",NA,"0.392841599998064","0.425945100025274",NA,"1","1",NA,"1","1",NA,"1","1",NA
"250017","img/neutralC/CFD-BF-244-231-N.jpg",NA,"img/neutralC/CFD-WM-025-002-N.jpg","1",NA,"1","1",NA,"0","0.566665299993474",NA,"0.56652579997899","1",NA,"1","1",NA,"1","1",NA,"1"
"250017","img/neutralC/CFD-WM-025-002-N.jpg","img/neutralC/CFD-BF-244-231-N.jpg","img/neutralC/CFD-LM-240-013-N.jpg","1","1","1","0","1","1","0.56652579997899","0.566665299993474","0.346885399980238","1","1","1","1","1","1","1","1","1"
"250017","img/neutralC/CFD-LM-240-013-N.jpg","img/neutralC/CFD-WM-025-002-N.jpg","img/neutralC/CFD-BM-021-021-N.jpg","1","1","1","1","0","1","0.346885399980238","0.56652579997899","0.36542489999556","1","1","1","1","1","1","1","1","1"
"250017","img/neutralC/CFD-BM-021-021-N.jpg","img/neutralC/CFD-LM-240-013-N.jpg","img/neutralC/CFD-WF-241-210-N.jpg","1","1","1","1","1","0","0.36542489999556","0.346885399980238","0.371076599985827","1","1","1","1","1","1","1","1","1"
"250017","img/neutralC/CFD-WF-241-210-N.jpg","img/neutralC/CFD-BM-021-021-N.jpg","img/neutralC/CFD-LF-222-147-N.jpg","1","1","0","0","1","0","0.371076599985827","0.36542489999556","0.458561799983727","1","1","1","1","1","1","1","1","2"
"250017","img/neutralC/CFD-LF-222-147-N.jpg","img/neutralC/CFD-WF-241-210-N.jpg","img/neutralC/CFD-BM-009-002-N.jpg","0","1","1","0","0","1","0.458561799983727","0.371076599985827","0.387867200013716","1","1","1","1","1","1","2","1","1"
"250017","img/neutralC/CFD-BM-009-002-N.jpg","img/neutralC/CFD-LF-222-147-N.jpg","img/neutralC/CFD-WF-243-148-N.jpg","1","0","1","1","0","0","0.387867200013716","0.458561799983727","0.455007200012915","1","1","1","1","1","1","1","2","1"
"250017","img/neutralC/CFD-WF-243-148-N.jpg","img/neutralC/CFD-BM-009-002-N.jpg","img/neutralC/CFD-IM-697-015-N.jpg","1","1","1","0","1","1","0.455007200012915","0.387867200013716","0.381256799999392","1","1","1","1","1","1","1","1","1"
"250017","img/neutralC/CFD-IM-697-015-N.jpg","img/neutralC/CFD-WF-243-148-N.jpg","img/neutralC/CFD-LF-212-066-N.jpg","1","1","1","1","0","1","0.381256799999392","0.455007200012915","0.2943131000211","1","1","1","1","1","1","1","1","1"
"250017","img/neutralC/CFD-LF-212-066-N.jpg","img/neutralC/CFD-IM-697-015-N.jpg","img/neutralC/CFD-BM-043-071-N.jpg","1","1","1","1","1","0","0.2943131000211","0.381256799999392","0.455047900002683","1","1","1","1","1","1","1","1","1"
"250017","img/neutralC/CFD-BM-043-071-N.jpg","img/neutralC/CFD-LF-212-066-N.jpg","img/neutralC/CFD-AM-243-212-N.jpg","1","1","1","0","1","1","0.455047900002683","0.2943131000211","0.31730319999042","1","1","1","1","1","1","1","1","1"
"250017","img/neutralC/CFD-AM-243-212-N.jpg","img/neutralC/CFD-BM-043-071-N.jpg","img/neutralC/CFD-AM-219-101-N.jpg","1","1","1","1","0","0","0.31730319999042","0.455047900002683","0.393852300010622","1","1","1","1","1","1","1","1","1"
"250017","img/neutralC/CFD-AM-219-101-N.jpg","img/neutralC/CFD-AM-243-212-N.jpg","img/neutralC/CFD-MF-328-020-N.jpg","1","1","1","0","1","0","0.393852300010622","0.31730319999042","0.38034860001062","1","1","1","1","1","1","1","1","1"
"250017","img/neutralC/CFD-MF-328-020-N.jpg","img/neutralC/CFD-AM-219-101-N.jpg","img/neutralC/CFD-AF-237-223-N.jpg","1","1","1","0","0","0","0.38034860001062","0.393852300010622","0.556694300001254","1","1","1","1","1","1","1","1","1"
"250017","img/neutralC/CFD-AF-237-223-N.jpg","img/neutralC/CFD-MF-328-020-N.jpg","img/neutralC/CFD-WF-207-014-N.jpg","1","1","1","0","0","1","0.556694300001254","0.38034860001062","0.360171799984528","1","1","1","1","1","1","1","1","1"
"250017","img/neutralC/CFD-WF-207-014-N.jpg","img/neutralC/CFD-AF-237-223-N.jpg","img/neutralC/CFD-LF-238-154-N.jpg","1","1","1","1","0","1","0.360171799984528","0.556694300001254","0.347148300003028","1","1","1","1","1","1","1","1","1"
"250017","img/neutralC/CFD-LF-238-154-N.jpg","img/neutralC/CFD-WF-207-014-N.jpg","img/neutralC/CFD-IM-606-008-N.jpg","1","1","1","1","1","0","0.347148300003028","0.360171799984528","0.394137700001011","1","1","1","1","1","1","1","1","1"
"250017","img/neutralC/CFD-IM-606-008-N.jpg","img/neutralC/CFD-LF-238-154-N.jpg","img/neutralC/CFD-WF-009-001-N.jpg","1","1","1","0","1","1","0.394137700001011","0.347148300003028","0.341373400005978","1","1","1","1","1","1","1","1","1"
"250017","img/neutralC/CFD-WF-009-001-N.jpg","img/neutralC/CFD-IM-606-008-N.jpg","img/neutralC/CFD-WM-028-003-N.jpg","1","1","1","1","0","1","0.341373400005978","0.394137700001011","0.392461200011894","1","1","1","1","1","1","1","1","1"
"250017","img/neutralC/CFD-WM-028-003-N.jpg","img/neutralC/CFD-WF-009-001-N.jpg","img/neutralC/CFD-BM-227-191-N.jpg","1","1","1","1","1","1","0.392461200011894","0.341373400005978","0.389758899982553","1","1","1","1","1","1","1","1","1"
"250017","img/neutralC/CFD-BM-227-191-N.jpg","img/neutralC/CFD-WM-028-003-N.jpg","img/neutralC/CFD-WF-221-005-N.jpg","1","1","1","1","1","0","0.389758899982553","0.392461200011894","0.456906200008234","1","1","1","1","1","1","1","1","1"
"250017","img/neutralC/CFD-WF-221-005-N.jpg","img/neutralC/CFD-BM-227-191-N.jpg","img/neutralC/CFD-BM-030-003-N.jpg","1","1","1","0","1","0","0.456906200008234","0.389758899982553","0.36165350000374","1","1","1","1","1","1","1","1","1"
"250017","img/neutralC/CFD-BM-030-003-N.jpg","img/neutralC/CFD-WF-221-005-N.jpg","img/neutralC/CFD-BF-012-001-N.jpg","1","1","1","0","0","0","0.36165350000374","0.456906200008234","0.392283799999859","1","1","1","1","1","1","1","1","1"
"250017","img/neutralC/CFD-BF-012-001-N.jpg","img/neutralC/CFD-BM-030-003-N.jpg","img/neutralC/CFD-WM-023-001-N.jpg","1","1","1","0","0","0","0.392283799999859","0.36165350000374","0.372697999991942","1","1","1","1","1","1","1","1","1"
"250017","img/neutralC/CFD-WM-023-001-N.jpg","img/neutralC/CFD-BF-012-001-N.jpg","img/neutralC/CFD-IM-615-167-N.jpg","1","1","1","0","0","0","0.372697999991942","0.392283799999859","0.349658000021009","1","1","1","1","1","1","1","1","1"
"250017","img/neutralC/CFD-IM-615-167-N.jpg","img/neutralC/CFD-WM-023-001-N.jpg","img/neutralC/CFD-MM-306-010-N.jpg","1","1","1","0","0","0","0.349658000021009","0.372697999991942","0.284368900000118","1","1","1","1","1","1","1","1","1"
"250017","img/neutralC/CFD-MM-306-010-N.jpg","img/neutralC/CFD-IM-615-167-N.jpg","img/neutralC/CFD-BM-020-001-N.jpg","1","1","1","0","0","0","0.284368900000118","0.349658000021009","0.457566299999598","1","1","1","1","1","1","1","1","1"
"250017","img/neutralC/CFD-BM-020-001-N.jpg","img/neutralC/CFD-MM-306-010-N.jpg","img/neutralC/CFD-IM-689-263-N.jpg","1","1","1","0","0","1","0.457566299999598","0.284368900000118","0.325812299997779","1","1","1","1","1","1","1","1","1"
"250017","img/neutralC/CFD-IM-689-263-N.jpg","img/neutralC/CFD-BM-020-001-N.jpg","img/neutralC/CFD-AM-249-163-N.jpg","1","1","1","1","0","1","0.325812299997779","0.457566299999598","0.31628530001035","1","1","1","1","1","1","1","1","1"
"250017","img/neutralC/CFD-AM-249-163-N.jpg","img/neutralC/CFD-IM-689-263-N.jpg","img/neutralC/CFD-IF-676-017-N.jpg","1","1","1","1","1","1","0.31628530001035","0.325812299997779","0.343388400011463","1","1","1","1","1","1","1","1","1"
"250017","img/neutralC/CFD-IF-676-017-N.jpg","img/neutralC/CFD-AM-249-163-N.jpg","img/neutralC/CFD-AM-205-153-N.jpg","1","1","1","1","1","1","0.343388400011463","0.31628530001035","0.416095199994743","1","1","1","1","1","1","1","1","1"
"250017","img/neutralC/CFD-AM-205-153-N.jpg","img/neutralC/CFD-IF-676-017-N.jpg",NA,"1","1",NA,"1","1",NA,"0.416095199994743","0.343388400011463",NA,"1","1",NA,"1","1",NA,"1","1",NA
"250017","img/neutralC/CFD-WM-013-001-N.jpg",NA,"img/neutralC/CFD-IF-629-234-N.jpg","1",NA,"0","1",NA,"0","0.40123930000118",NA,"0.331805299996631","1",NA,"1","1",NA,"1","1",NA,"1"
"250017","img/neutralC/CFD-IF-629-234-N.jpg","img/neutralC/CFD-WM-013-001-N.jpg","img/neutralC/CFD-MF-321-003-N.jpg","0","1","1","0","1","0","0.331805299996631","0.40123930000118","0.460419500013813","1","1","1","1","1","1","1","1","1"
"250017","img/neutralC/CFD-MF-321-003-N.jpg","img/neutralC/CFD-IF-629-234-N.jpg","img/neutralC/CFD-WM-009-002-N.jpg","1","0","0","0","0","0","0.460419500013813","0.331805299996631","0.418236199999228","1","1","1","1","1","1","1","1","2"
"250017","img/neutralC/CFD-WM-009-002-N.jpg","img/neutralC/CFD-MF-321-003-N.jpg","img/neutralC/CFD-IM-700-009-N.jpg","0","1","1","0","0","1","0.418236199999228","0.460419500013813","0.382434700004524","1","1","1","1","1","1","2","1","1"
"250017","img/neutralC/CFD-IM-700-009-N.jpg","img/neutralC/CFD-WM-009-002-N.jpg","img/neutralC/CFD-IM-719-221-N.jpg","1","0","1","1","0","0","0.382434700004524","0.418236199999228","0.393944699986605","1","1","1","1","1","1","1","2","1"
"250017","img/neutralC/CFD-IM-719-221-N.jpg","img/neutralC/CFD-IM-700-009-N.jpg","img/neutralC/CFD-BF-218-207-N.jpg","1","1","1","0","1","1","0.393944699986605","0.382434700004524","0.373734599997988","1","1","1","1","1","1","1","1","1"
"250017","img/neutralC/CFD-BF-218-207-N.jpg","img/neutralC/CFD-IM-719-221-N.jpg","img/neutralC/CFD-WF-245-084-N.jpg","1","1","1","1","0","1","0.373734599997988","0.393944699986605","0.340217699995264","1","1","1","1","1","1","1","1","1"
"250017","img/neutralC/CFD-WF-245-084-N.jpg","img/neutralC/CFD-BF-218-207-N.jpg","img/neutralC/CFD-AF-232-078-N.jpg","1","1","1","1","1","1","0.340217699995264","0.373734599997988","0.312985399999889","1","1","1","1","1","1","1","1","1"
"250017","img/neutralC/CFD-AF-232-078-N.jpg","img/neutralC/CFD-WF-245-084-N.jpg","img/neutralC/CFD-BF-254-201-N.jpg","1","1","1","1","1","0","0.312985399999889","0.340217699995264","0.403230700001586","1","1","1","1","1","1","1","1","1"
"250017","img/neutralC/CFD-BF-254-201-N.jpg","img/neutralC/CFD-AF-232-078-N.jpg","img/neutralC/CFD-WM-255-219-N.jpg","1","1","1","0","1","0","0.403230700001586","0.312985399999889","0.357850700005656","1","1","1","1","1","1","1","1","1"
"250017","img/neutralC/CFD-WM-255-219-N.jpg","img/neutralC/CFD-BF-254-201-N.jpg","img/neutralC/CFD-LF-215-157-N.jpg","1","1","1","0","0","0","0.357850700005656","0.403230700001586","0.40601889998652","1","1","1","1","1","1","1","1","1"
"250017","img/neutralC/CFD-LF-215-157-N.jpg","img/neutralC/CFD-WM-255-219-N.jpg","img/neutralC/CFD-BM-023-029-N.jpg","1","1","1","0","0","1","0.40601889998652","0.357850700005656","0.40562969999155","1","1","1","1","1","1","1","1","1"
"250017","img/neutralC/CFD-BM-023-029-N.jpg","img/neutralC/CFD-LF-215-157-N.jpg","img/neutralC/CFD-WF-238-023-N.jpg","1","1","1","1","0","0","0.40562969999155","0.40601889998652","0.428995800000848","1","1","1","1","1","1","1","1","1"
"250017","img/neutralC/CFD-WF-238-023-N.jpg","img/neutralC/CFD-BM-023-029-N.jpg","img/neutralC/CFD-WF-226-095-N.jpg","1","1","1","0","1","1","0.428995800000848","0.40562969999155","0.385049000004074","1","1","1","1","1","1","1","1","1"
"250017","img/neutralC/CFD-WF-226-095-N.jpg","img/neutralC/CFD-WF-238-023-N.jpg","img/neutralC/CFD-WM-201-063-N.jpg","1","1","1","1","0","1","0.385049000004074","0.428995800000848","0.360410699999193","1","1","1","1","1","1","1","1","1"
"250017","img/neutralC/CFD-WM-201-063-N.jpg","img/neutralC/CFD-WF-226-095-N.jpg","img/neutralC/CFD-WF-027-003-N.jpg","1","1","1","1","1","1","0.360410699999193","0.385049000004074","0.344897400005721","1","1","1","1","1","1","1","1","1"
"250017","img/neutralC/CFD-WF-027-003-N.jpg","img/neutralC/CFD-WM-201-063-N.jpg","img/neutralC/CFD-IM-627-178-N.jpg","1","1","1","1","1","1","0.344897400005721","0.360410699999193","0.370207500003744","1","1","1","1","1","1","1","1","1"
"250017","img/neutralC/CFD-IM-627-178-N.jpg","img/neutralC/CFD-WF-027-003-N.jpg","img/neutralC/CFD-MF-342-022-N.jpg","1","1","1","1","1","1","0.370207500003744","0.344897400005721","0.326621299987892","1","1","1","1","1","1","1","1","1"
"250017","img/neutralC/CFD-MF-342-022-N.jpg","img/neutralC/CFD-IM-627-178-N.jpg","img/neutralC/CFD-LF-211-003-N.jpg","1","1","0","1","1","0","0.326621299987892","0.370207500003744","0.383925799978897","1","1","1","1","1","1","1","1","2"
"250017","img/neutralC/CFD-LF-211-003-N.jpg","img/neutralC/CFD-MF-342-022-N.jpg","img/neutralC/CFD-AF-221-147-N.jpg","0","1","1","0","1","0","0.383925799978897","0.326621299987892","0.442931500001578","1","1","1","1","1","1","2","1","1"
"250017","img/neutralC/CFD-AF-221-147-N.jpg","img/neutralC/CFD-LF-211-003-N.jpg","img/neutralC/CFD-WF-018-017-N.jpg","1","0","1","0","0","1","0.442931500001578","0.383925799978897","0.341066699998919","1","1","1","1","1","1","1","2","1"
"250017","img/neutralC/CFD-WF-018-017-N.jpg","img/neutralC/CFD-AF-221-147-N.jpg","img/neutralC/CFD-LM-253-075-N.jpg","1","1","1","1","0","0","0.341066699998919","0.442931500001578","0.437269699992612","1","1","1","1","1","1","1","1","1"
"250017","img/neutralC/CFD-LM-253-075-N.jpg","img/neutralC/CFD-WF-018-017-N.jpg","img/neutralC/CFD-AM-244-222-N.jpg","1","1","1","0","1","0","0.437269699992612","0.341066699998919","0.331553700001677","1","1","1","1","1","1","1","1","1"
"250017","img/neutralC/CFD-AM-244-222-N.jpg","img/neutralC/CFD-LM-253-075-N.jpg","img/neutralC/CFD-BM-204-003-N.jpg","1","1","0","0","0","0","0.331553700001677","0.437269699992612","0.390263599983882","1","1","1","1","1","1","1","1","1"
"250017","img/neutralC/CFD-BM-204-003-N.jpg","img/neutralC/CFD-AM-244-222-N.jpg","img/neutralC/CFD-MF-318-022-N.jpg","0","1","1","0","0","1","0.390263599983882","0.331553700001677","0.342376899992814","1","1","1","1","1","1","1","1","1"
"250017","img/neutralC/CFD-MF-318-022-N.jpg","img/neutralC/CFD-BM-204-003-N.jpg","img/neutralC/CFD-WF-023-003-N.jpg","1","0","1","1","0","1","0.342376899992814","0.390263599983882","0.353429600014351","1","1","1","1","1","1","1","1","1"
"250017","img/neutralC/CFD-WF-023-003-N.jpg","img/neutralC/CFD-MF-318-022-N.jpg","img/neutralC/CFD-MM-321-021-N.jpg","1","1","0","1","1","0","0.353429600014351","0.342376899992814","0.377937600016594","1","1","1","1","1","1","1","1","1"
"250017","img/neutralC/CFD-MM-321-021-N.jpg","img/neutralC/CFD-WF-023-003-N.jpg","img/neutralC/CFD-WM-237-052-N.jpg","0","1","1","0","1","1","0.377937600016594","0.353429600014351","0.371488100005081","1","1","1","1","1","1","1","1","1"
"250017","img/neutralC/CFD-WM-237-052-N.jpg","img/neutralC/CFD-MM-321-021-N.jpg","img/neutralC/CFD-WM-221-091-N.jpg","1","0","1","1","0","0","0.371488100005081","0.377937600016594","0.369767900003353","1","1","1","1","1","1","1","1","1"
"250017","img/neutralC/CFD-WM-221-091-N.jpg","img/neutralC/CFD-WM-237-052-N.jpg","img/neutralC/CFD-BM-200-046-N.jpg","1","1","0","0","1","0","0.369767900003353","0.371488100005081","0.334144899999956","1","1","1","1","1","1","1","1","1"
"250017","img/neutralC/CFD-BM-200-046-N.jpg","img/neutralC/CFD-WM-221-091-N.jpg","img/neutralC/CFD-BF-018-039-N.jpg","0","1","1","0","0","1","0.334144899999956","0.369767900003353","0.410971600009361","1","1","1","1","1","1","1","1","1"
"250017","img/neutralC/CFD-BF-018-039-N.jpg","img/neutralC/CFD-BM-200-046-N.jpg",NA,"1","0",NA,"1","0",NA,"0.410971600009361","0.334144899999956",NA,"1","1",NA,"1","1",NA,"1","1",NA
"250017","img/neutralC/CFD-BM-215-155-N.jpg",NA,"img/neutralC/CFD-MF-302-027-N.jpg","0",NA,"1","0",NA,"0","0.46933409999474",NA,"0.420720800000709","1",NA,"1","1",NA,"1","2",NA,"1"
"250017","img/neutralC/CFD-MF-302-027-N.jpg","img/neutralC/CFD-BM-215-155-N.jpg","img/neutralC/CFD-LF-239-148-N.jpg","1","0","1","0","0","0","0.420720800000709","0.46933409999474","0.397457599989139","1","1","1","1","1","1","1","2","1"
"250017","img/neutralC/CFD-LF-239-148-N.jpg","img/neutralC/CFD-MF-302-027-N.jpg","img/neutralC/CFD-BF-206-143-N.jpg","1","1","1","0","0","1","0.397457599989139","0.420720800000709","0.368576300010318","1","1","1","1","1","1","1","1","1"
"250017","img/neutralC/CFD-BF-206-143-N.jpg","img/neutralC/CFD-LF-239-148-N.jpg","img/neutralC/CFD-WM-018-002-N.jpg","1","1","1","1","0","0","0.368576300010318","0.397457599989139","0.518723299988778","1","1","1","1","1","1","1","1","1"
"250017","img/neutralC/CFD-WM-018-002-N.jpg","img/neutralC/CFD-BF-206-143-N.jpg","img/neutralC/CFD-IF-732-260-N.jpg","1","1","1","0","1","0","0.518723299988778","0.368576300010318","0.434051000018371","1","1","1","1","1","1","1","1","1"
"250017","img/neutralC/CFD-IF-732-260-N.jpg","img/neutralC/CFD-WM-018-002-N.jpg","img/neutralC/CFD-AF-213-126-N.jpg","1","1","1","0","0","1","0.434051000018371","0.518723299988778","0.376465500012273","1","1","1","1","1","1","1","1","1"
"250017","img/neutralC/CFD-AF-213-126-N.jpg","img/neutralC/CFD-IF-732-260-N.jpg","img/neutralC/CFD-IM-678-482-N.jpg","1","1","0","1","0","0","0.376465500012273","0.434051000018371","0.41251709999051","1","1","1","1","1","1","1","1","2"
"250017","img/neutralC/CFD-IM-678-482-N.jpg","img/neutralC/CFD-AF-213-126-N.jpg","img/neutralC/CFD-LM-241-125-N.jpg","0","1","1","0","1","1","0.41251709999051","0.376465500012273","0.433960299997125","1","1","1","1","1","1","2","1","1"
"250017","img/neutralC/CFD-LM-241-125-N.jpg","img/neutralC/CFD-IM-678-482-N.jpg","img/neutralC/CFD-WM-253-119-N.jpg","1","0","1","1","0","1","0.433960299997125","0.41251709999051","0.382183900015661","1","1","1","1","1","1","1","2","1"
"250017","img/neutralC/CFD-WM-253-119-N.jpg","img/neutralC/CFD-LM-241-125-N.jpg","img/neutralC/CFD-AF-234-208-N.jpg","1","1","1","1","1","1","0.382183900015661","0.433960299997125","0.390649800014216","1","1","1","1","1","1","1","1","1"
"250017","img/neutralC/CFD-AF-234-208-N.jpg","img/neutralC/CFD-WM-253-119-N.jpg","img/neutralC/CFD-AM-225-102-N.jpg","1","1","0","1","1","0","0.390649800014216","0.382183900015661","0.419311100005871","1","1","1","1","1","1","1","1","1"
"250017","img/neutralC/CFD-AM-225-102-N.jpg","img/neutralC/CFD-AF-234-208-N.jpg","img/neutralC/CFD-AF-246-242-N.jpg","0","1","1","0","1","0","0.419311100005871","0.390649800014216","0.431985100003658","1","1","1","1","1","1","1","1","1"
"250017","img/neutralC/CFD-AF-246-242-N.jpg","img/neutralC/CFD-AM-225-102-N.jpg","img/neutralC/CFD-IM-669-111-N.jpg","1","0","1","0","0","1","0.431985100003658","0.419311100005871","0.369076500006486","1","1","1","1","1","1","1","1","1"
"250017","img/neutralC/CFD-IM-669-111-N.jpg","img/neutralC/CFD-AF-246-242-N.jpg","img/neutralC/CFD-BM-004-002-N.jpg","1","1","1","1","0","0","0.369076500006486","0.431985100003658","0.357073500024853","1","1","1","1","1","1","1","1","1"
"250017","img/neutralC/CFD-BM-004-002-N.jpg","img/neutralC/CFD-IM-669-111-N.jpg","img/neutralC/CFD-AF-244-168-N.jpg","1","1","1","0","1","0","0.357073500024853","0.369076500006486","0.402114199998323","1","1","1","1","1","1","1","1","1"
"250017","img/neutralC/CFD-AF-244-168-N.jpg","img/neutralC/CFD-BM-004-002-N.jpg","img/neutralC/CFD-IF-636-011-N.jpg","1","1","1","0","0","1","0.402114199998323","0.357073500024853","0.320056600001408","1","1","1","1","1","1","1","1","1"
"250017","img/neutralC/CFD-IF-636-011-N.jpg","img/neutralC/CFD-AF-244-168-N.jpg","img/neutralC/CFD-MF-307-002-N.jpg","1","1","1","1","0","1","0.320056600001408","0.402114199998323","0.383025599992834","1","1","1","1","1","1","1","1","1"
"250017","img/neutralC/CFD-MF-307-002-N.jpg","img/neutralC/CFD-IF-636-011-N.jpg","img/neutralC/CFD-BF-042-026-N.jpg","1","1","1","1","1","1","0.383025599992834","0.320056600001408","0.494545699999435","1","1","1","1","1","1","1","1","1"
"250017","img/neutralC/CFD-BF-042-026-N.jpg","img/neutralC/CFD-MF-307-002-N.jpg","img/neutralC/CFD-LM-204-001-N.jpg","1","1","1","1","1","0","0.494545699999435","0.383025599992834","0.391133299999638","1","1","1","1","1","1","1","1","1"
"250017","img/neutralC/CFD-LM-204-001-N.jpg","img/neutralC/CFD-BF-042-026-N.jpg","img/neutralC/CFD-BF-040-003-N.jpg","1","1","1","0","1","1","0.391133299999638","0.494545699999435","0.317872600018745","1","1","1","1","1","1","1","1","1"
"250017","img/neutralC/CFD-BF-040-003-N.jpg","img/neutralC/CFD-LM-204-001-N.jpg","img/neutralC/CFD-WF-210-086-N.jpg","1","1","1","1","0","0","0.317872600018745","0.391133299999638","0.301941199984867","1","1","1","1","1","1","1","1","1"
"250017","img/neutralC/CFD-WF-210-086-N.jpg","img/neutralC/CFD-BF-040-003-N.jpg","img/neutralC/CFD-IM-635-010-N.jpg","1","1","1","0","1","1","0.301941199984867","0.317872600018745","0.387097099999664","1","1","1","1","1","1","1","1","1"
"250017","img/neutralC/CFD-IM-635-010-N.jpg","img/neutralC/CFD-WF-210-086-N.jpg","img/neutralC/CFD-WF-235-121-N.jpg","1","1","1","1","0","0","0.387097099999664","0.301941199984867","0.373986699996749","1","1","1","1","1","1","1","1","1"
"250017","img/neutralC/CFD-WF-235-121-N.jpg","img/neutralC/CFD-IM-635-010-N.jpg","img/neutralC/CFD-AM-245-111-N.jpg","1","1","1","0","1","1","0.373986699996749","0.387097099999664","0.487970199988922","1","1","1","1","1","1","1","1","1"
"250017","img/neutralC/CFD-AM-245-111-N.jpg","img/neutralC/CFD-WF-235-121-N.jpg","img/neutralC/CFD-IM-632-097-N.jpg","1","1","1","1","0","0","0.487970199988922","0.373986699996749","0.463055700005498","1","1","1","1","1","1","1","1","1"
"250017","img/neutralC/CFD-IM-632-097-N.jpg","img/neutralC/CFD-AM-245-111-N.jpg","img/neutralC/CFD-AM-233-236-N.jpg","1","1","1","0","1","1","0.463055700005498","0.487970199988922","0.390809300006367","1","1","1","1","1","1","1","1","1"
"250017","img/neutralC/CFD-AM-233-236-N.jpg","img/neutralC/CFD-IM-632-097-N.jpg","img/neutralC/CFD-BF-217-189-N.jpg","1","1","0","1","0","0","0.390809300006367","0.463055700005498","0.39597730000969","1","1","1","1","1","1","1","1","2"
"250017","img/neutralC/CFD-BF-217-189-N.jpg","img/neutralC/CFD-AM-233-236-N.jpg","img/neutralC/CFD-BF-235-168-N.jpg","0","1","1","0","1","1","0.39597730000969","0.390809300006367","0.434584300004644","1","1","1","1","1","1","2","1","1"
"250017","img/neutralC/CFD-BF-235-168-N.jpg","img/neutralC/CFD-BF-217-189-N.jpg","img/neutralC/CFD-AF-250-200-N.jpg","1","0","1","1","0","1","0.434584300004644","0.39597730000969","0.350534199998947","1","1","1","1","1","1","1","2","1"
"250017","img/neutralC/CFD-AF-250-200-N.jpg","img/neutralC/CFD-BF-235-168-N.jpg","img/neutralC/CFD-BF-020-002-N.jpg","1","1","1","1","1","1","0.350534199998947","0.434584300004644","0.374694800004363","1","1","1","1","1","1","1","1","1"
"250017","img/neutralC/CFD-BF-020-002-N.jpg","img/neutralC/CFD-AF-250-200-N.jpg","img/neutralC/CFD-AF-205-155-N.jpg","1","1","1","1","1","0","0.374694800004363","0.350534199998947","0.373076299991226","1","1","1","1","1","1","1","1","1"
"250017","img/neutralC/CFD-AF-205-155-N.jpg","img/neutralC/CFD-BF-020-002-N.jpg",NA,"1","1",NA,"0","1",NA,"0.373076299991226","0.374694800004363",NA,"1","1",NA,"1","1",NA,"1","1",NA
"250017","img/neutralC/CFD-MM-316-156-N.jpg",NA,"img/neutralC/CFD-LM-218-183-N.jpg","1",NA,"1","1",NA,"1","0.447091500012903",NA,"0.351643400004832","1",NA,"1","1",NA,"1","1",NA,"1"
"250017","img/neutralC/CFD-LM-218-183-N.jpg","img/neutralC/CFD-MM-316-156-N.jpg","img/neutralC/CFD-BM-239-136-N.jpg","1","1","1","1","1","1","0.351643400004832","0.447091500012903","0.360671800008276","1","1","1","1","1","1","1","1","1"
"250017","img/neutralC/CFD-BM-239-136-N.jpg","img/neutralC/CFD-LM-218-183-N.jpg","img/neutralC/CFD-LF-205-100-N.jpg","1","1","1","1","1","1","0.360671800008276","0.351643400004832","0.397653799998807","1","1","1","1","1","1","1","1","1"
"250017","img/neutralC/CFD-LF-205-100-N.jpg","img/neutralC/CFD-BM-239-136-N.jpg","img/neutralC/CFD-WM-041-021-N.jpg","1","1","1","1","1","0","0.397653799998807","0.360671800008276","0.518275900016306","1","1","1","1","1","1","1","1","1"
"250017","img/neutralC/CFD-WM-041-021-N.jpg","img/neutralC/CFD-LF-205-100-N.jpg","img/neutralC/CFD-LF-214-090-N.jpg","1","1","1","0","1","0","0.518275900016306","0.397653799998807","0.390255000005709","1","1","1","1","1","1","1","1","1"
"250017","img/neutralC/CFD-LF-214-090-N.jpg","img/neutralC/CFD-WM-041-021-N.jpg","img/neutralC/CFD-LF-224-176-N.jpg","1","1","1","0","0","0","0.390255000005709","0.518275900016306","0.416883800004143","1","1","1","1","1","1","1","1","1"
"250017","img/neutralC/CFD-LF-224-176-N.jpg","img/neutralC/CFD-LF-214-090-N.jpg","img/neutralC/CFD-BF-213-188-N.jpg","1","1","1","0","0","1","0.416883800004143","0.390255000005709","0.390402999997605","1","1","1","1","1","1","1","1","1"
"250017","img/neutralC/CFD-BF-213-188-N.jpg","img/neutralC/CFD-LF-224-176-N.jpg","img/neutralC/CFD-AF-231-357-N.jpg","1","1","1","1","0","1","0.390402999997605","0.416883800004143","0.390870000002906","1","1","1","1","1","1","1","1","1"
"250017","img/neutralC/CFD-AF-231-357-N.jpg","img/neutralC/CFD-BF-213-188-N.jpg","img/neutralC/CFD-BM-041-035-N.jpg","1","1","1","1","1","0","0.390870000002906","0.390402999997605","0.425362300011329","1","1","1","1","1","1","1","1","1"
"250017","img/neutralC/CFD-BM-041-035-N.jpg","img/neutralC/CFD-AF-231-357-N.jpg","img/neutralC/CFD-IF-634-382-N.jpg","1","1","1","0","1","1","0.425362300011329","0.390870000002906","0.425036500004353","1","1","1","1","1","1","1","1","1"
"250017","img/neutralC/CFD-IF-634-382-N.jpg","img/neutralC/CFD-BM-041-035-N.jpg","img/neutralC/CFD-LM-215-247-N.jpg","1","1","1","1","0","0","0.425036500004353","0.425362300011329","0.449924599990482","1","1","1","1","1","1","1","1","1"
"250017","img/neutralC/CFD-LM-215-247-N.jpg","img/neutralC/CFD-IF-634-382-N.jpg","img/neutralC/CFD-AM-201-076-N.jpg","1","1","1","0","1","1","0.449924599990482","0.425036500004353","0.386272100004135","1","1","1","1","1","1","1","1","1"
"250017","img/neutralC/CFD-AM-201-076-N.jpg","img/neutralC/CFD-LM-215-247-N.jpg","img/neutralC/CFD-MF-337-026-N.jpg","1","1","1","1","0","1","0.386272100004135","0.449924599990482","0.368223800003761","1","1","1","1","1","1","1","1","1"
"250017","img/neutralC/CFD-MF-337-026-N.jpg","img/neutralC/CFD-AM-201-076-N.jpg","img/neutralC/CFD-WM-021-001-N.jpg","1","1","1","1","1","1","0.368223800003761","0.386272100004135","0.403187299991259","1","1","1","1","1","1","1","1","1"
"250017","img/neutralC/CFD-WM-021-001-N.jpg","img/neutralC/CFD-MF-337-026-N.jpg","img/neutralC/CFD-IF-693-172-N.jpg","1","1","1","1","1","0","0.403187299991259","0.368223800003761","0.381986299995333","1","1","1","1","1","1","1","1","1"
"250017","img/neutralC/CFD-IF-693-172-N.jpg","img/neutralC/CFD-WM-021-001-N.jpg","img/neutralC/CFD-IM-684-008-N.jpg","1","1","1","0","1","1","0.381986299995333","0.403187299991259","0.37305219998234","1","1","1","1","1","1","1","1","1"
"250017","img/neutralC/CFD-IM-684-008-N.jpg","img/neutralC/CFD-IF-693-172-N.jpg","img/neutralC/CFD-WF-224-099-N.jpg","1","1","0","1","0","0","0.37305219998234","0.381986299995333","0.424278399994364","1","1","1","1","1","1","1","1","1"
"250017","img/neutralC/CFD-WF-224-099-N.jpg","img/neutralC/CFD-IM-684-008-N.jpg","img/neutralC/CFD-BF-253-202-N.jpg","0","1","1","0","1","0","0.424278399994364","0.37305219998234","0.418945299985353","1","1","1","1","1","1","1","1","1"
"250017","img/neutralC/CFD-BF-253-202-N.jpg","img/neutralC/CFD-WF-224-099-N.jpg","img/neutralC/CFD-IM-651-308-N.jpg","1","0","1","0","0","0","0.418945299985353","0.424278399994364","0.405374900001334","1","1","1","1","1","1","1","1","1"
"250017","img/neutralC/CFD-IM-651-308-N.jpg","img/neutralC/CFD-BF-253-202-N.jpg","img/neutralC/CFD-BF-205-141-N.jpg","1","1","1","0","0","0","0.405374900001334","0.418945299985353","0.38537550001638","1","1","1","1","1","1","1","1","1"
"250017","img/neutralC/CFD-BF-205-141-N.jpg","img/neutralC/CFD-IM-651-308-N.jpg","img/neutralC/CFD-IF-710-016-N.jpg","1","1","1","0","0","0","0.38537550001638","0.405374900001334","0.389555500005372","1","1","1","1","1","1","1","1","1"
"250017","img/neutralC/CFD-IF-710-016-N.jpg","img/neutralC/CFD-BF-205-141-N.jpg","img/neutralC/CFD-BF-029-031-N.jpg","1","1","1","0","0","1","0.389555500005372","0.38537550001638","0.567094700003508","1","1","1","1","1","1","1","1","1"
"250017","img/neutralC/CFD-BF-029-031-N.jpg","img/neutralC/CFD-IF-710-016-N.jpg","img/neutralC/CFD-LF-230-203-N.jpg","1","1","1","1","0","0","0.567094700003508","0.389555500005372","0.403373400011333","1","1","1","1","1","1","1","1","1"
"250017","img/neutralC/CFD-LF-230-203-N.jpg","img/neutralC/CFD-BF-029-031-N.jpg","img/neutralC/CFD-WM-011-002-N.jpg","1","1","1","0","1","0","0.403373400011333","0.567094700003508","0.425816600007238","1","1","1","1","1","1","1","1","1"
"250017","img/neutralC/CFD-WM-011-002-N.jpg","img/neutralC/CFD-LF-230-203-N.jpg","img/neutralC/CFD-BF-039-031-N.jpg","1","1","1","0","0","1","0.425816600007238","0.403373400011333","0.371109500003513","1","1","1","1","1","1","1","1","1"
"250017","img/neutralC/CFD-BF-039-031-N.jpg","img/neutralC/CFD-WM-011-002-N.jpg","img/neutralC/CFD-WF-250-167-N.jpg","1","1","1","1","0","1","0.371109500003513","0.425816600007238","0.395656299981056","1","1","1","1","1","1","1","1","1"
"250017","img/neutralC/CFD-WF-250-167-N.jpg","img/neutralC/CFD-BF-039-031-N.jpg","img/neutralC/CFD-AM-212-050-N.jpg","1","1","1","1","1","1","0.395656299981056","0.371109500003513","0.3830556999892","1","1","1","1","1","1","1","1","1"
"250017","img/neutralC/CFD-AM-212-050-N.jpg","img/neutralC/CFD-WF-250-167-N.jpg","img/neutralC/CFD-WF-213-031-N.jpg","1","1","1","1","1","1","0.3830556999892","0.395656299981056","0.3752639000013","1","1","1","1","1","1","1","1","1"
"250017","img/neutralC/CFD-WF-213-031-N.jpg","img/neutralC/CFD-AM-212-050-N.jpg","img/neutralC/CFD-BM-019-002-N.jpg","1","1","1","1","1","0","0.3752639000013","0.3830556999892","0.482683700014604","1","1","1","1","1","1","1","1","1"
"250017","img/neutralC/CFD-BM-019-002-N.jpg","img/neutralC/CFD-WF-213-031-N.jpg","img/neutralC/CFD-LF-203-066-N.jpg","1","1","1","0","1","0","0.482683700014604","0.3752639000013","0.371069299988449","1","1","1","1","1","1","1","1","1"
"250017","img/neutralC/CFD-LF-203-066-N.jpg","img/neutralC/CFD-BM-019-002-N.jpg","img/neutralC/CFD-BM-033-003-N.jpg","1","1","1","0","0","0","0.371069299988449","0.482683700014604","0.430628400004935","1","1","1","1","1","1","1","1","1"
"250017","img/neutralC/CFD-BM-033-003-N.jpg","img/neutralC/CFD-LF-203-066-N.jpg",NA,"1","1",NA,"0","0",NA,"0.430628400004935","0.371069299988449",NA,"1","1",NA,"1","1",NA,"1","1",NA
"250017","img/neutralC/CFD-BM-005-003-N.jpg",NA,"img/neutralC/CFD-IM-686-097-N.jpg","1",NA,"0","1",NA,"0","0.416134300001431",NA,"0.328715100011323","1",NA,"1","1",NA,"1","1",NA,"1"
"250017","img/neutralC/CFD-IM-686-097-N.jpg","img/neutralC/CFD-BM-005-003-N.jpg","img/neutralC/CFD-BM-231-155-N.jpg","0","1","1","0","1","1","0.328715100011323","0.416134300001431","0.351880999980494","1","1","1","1","1","1","1","1","1"
"250017","img/neutralC/CFD-BM-231-155-N.jpg","img/neutralC/CFD-IM-686-097-N.jpg","img/neutralC/CFD-IM-653-008-N.jpg","1","0","1","1","0","0","0.351880999980494","0.328715100011323","0.401350100000855","1","1","1","1","1","1","1","1","1"
"250017","img/neutralC/CFD-IM-653-008-N.jpg","img/neutralC/CFD-BM-231-155-N.jpg","img/neutralC/CFD-BF-238-190-N.jpg","1","1","1","0","1","1","0.401350100000855","0.351880999980494","0.364627299975837","1","1","1","1","1","1","1","1","1"
"250017","img/neutralC/CFD-BF-238-190-N.jpg","img/neutralC/CFD-IM-653-008-N.jpg","img/neutralC/CFD-BM-212-117-N.jpg","1","1","1","1","0","0","0.364627299975837","0.401350100000855","0.394612100004451","1","1","1","1","1","1","1","1","1"
"250017","img/neutralC/CFD-BM-212-117-N.jpg","img/neutralC/CFD-BF-238-190-N.jpg","img/neutralC/CFD-WM-258-125-N.jpg","1","1","1","0","1","0","0.394612100004451","0.364627299975837","0.592212799994741","1","1","1","1","1","1","1","1","1"
"250017","img/neutralC/CFD-WM-258-125-N.jpg","img/neutralC/CFD-BM-212-117-N.jpg","img/neutralC/CFD-LF-242-121-N.jpg","1","1","1","0","0","0","0.592212799994741","0.394612100004451","0.431161100015743","1","1","1","1","1","1","1","1","1"
"250017","img/neutralC/CFD-LF-242-121-N.jpg","img/neutralC/CFD-WM-258-125-N.jpg","img/neutralC/CFD-AF-202-122-N.jpg","1","1","1","0","0","1","0.431161100015743","0.592212799994741","0.358307299989974","1","1","1","1","1","1","1","1","1"
"250017","img/neutralC/CFD-AF-202-122-N.jpg","img/neutralC/CFD-LF-242-121-N.jpg","img/neutralC/CFD-WF-209-052-N.jpg","1","1","1","1","0","1","0.358307299989974","0.431161100015743","0.377378600009251","1","1","1","1","1","1","1","1","1"
"250017","img/neutralC/CFD-WF-209-052-N.jpg","img/neutralC/CFD-AF-202-122-N.jpg","img/neutralC/CFD-IM-727-195-N.jpg","1","1","1","1","1","1","0.377378600009251","0.358307299989974","0.386097800015705","1","1","1","1","1","1","1","1","1"
"250017","img/neutralC/CFD-IM-727-195-N.jpg","img/neutralC/CFD-WF-209-052-N.jpg","img/neutralC/CFD-LF-247-051-N.jpg","1","1","1","1","1","1","0.386097800015705","0.377378600009251","0.362574300001143","1","1","1","1","1","1","1","1","1"
"250017","img/neutralC/CFD-LF-247-051-N.jpg","img/neutralC/CFD-IM-727-195-N.jpg","img/neutralC/CFD-LM-233-171-N.jpg","1","1","0","1","1","0","0.362574300001143","0.386097800015705","0.400786099984543","1","1","1","1","1","1","1","1","1"
"250017","img/neutralC/CFD-LM-233-171-N.jpg","img/neutralC/CFD-LF-247-051-N.jpg","img/neutralC/CFD-IF-665-015-N.jpg","0","1","1","0","1","0","0.400786099984543","0.362574300001143","0.398098400008166","1","1","1","1","1","1","1","1","1"
"250017","img/neutralC/CFD-IF-665-015-N.jpg","img/neutralC/CFD-LM-233-171-N.jpg","img/neutralC/CFD-BF-033-028-N.jpg","1","0","1","0","0","0","0.398098400008166","0.400786099984543","0.662240800011205","1","1","1","1","1","1","1","1","1"
"250017","img/neutralC/CFD-BF-033-028-N.jpg","img/neutralC/CFD-IF-665-015-N.jpg","img/neutralC/CFD-AF-206-079-N.jpg","1","1","1","0","0","1","0.662240800011205","0.398098400008166","0.408409800002119","1","1","1","1","1","1","1","1","1"
"250017","img/neutralC/CFD-AF-206-079-N.jpg","img/neutralC/CFD-BF-033-028-N.jpg","img/neutralC/CFD-IM-638-250-1-N.jpg","1","1","1","1","0","1","0.408409800002119","0.662240800011205","0.391501599980984","1","1","1","1","1","1","1","1","1"
"250017","img/neutralC/CFD-IM-638-250-1-N.jpg","img/neutralC/CFD-AF-206-079-N.jpg","img/neutralC/CFD-WM-242-011-N.jpg","1","1","1","1","1","0","0.391501599980984","0.408409800002119","0.398347400012426","1","1","1","1","1","1","1","1","1"
"250017","img/neutralC/CFD-WM-242-011-N.jpg","img/neutralC/CFD-IM-638-250-1-N.jpg","img/neutralC/CFD-IF-620-218-N.jpg","1","1","1","0","1","0","0.398347400012426","0.391501599980984","0.426966200000606","1","1","1","1","1","1","1","1","1"
"250017","img/neutralC/CFD-IF-620-218-N.jpg","img/neutralC/CFD-WM-242-011-N.jpg","img/neutralC/CFD-IM-617-174-N.jpg","1","1","1","0","0","0","0.426966200000606","0.398347400012426","0.444004400022095","1","1","1","1","1","1","1","1","1"
"250017","img/neutralC/CFD-IM-617-174-N.jpg","img/neutralC/CFD-IF-620-218-N.jpg","img/neutralC/CFD-BM-026-002-N.jpg","1","1","1","0","0","0","0.444004400022095","0.426966200000606","0.444054500025231","1","1","1","1","1","1","1","1","1"
"250017","img/neutralC/CFD-BM-026-002-N.jpg","img/neutralC/CFD-IM-617-174-N.jpg","img/neutralC/CFD-LF-245-166-N.jpg","1","1","1","0","0","1","0.444054500025231","0.444004400022095","0.378815400006715","1","1","1","1","1","1","1","1","1"
"250017","img/neutralC/CFD-LF-245-166-N.jpg","img/neutralC/CFD-BM-026-002-N.jpg","img/neutralC/CFD-AF-241-141-N.jpg","1","1","1","1","0","1","0.378815400006715","0.444054500025231","0.391135599988047","1","1","1","1","1","1","1","1","1"
"250017","img/neutralC/CFD-AF-241-141-N.jpg","img/neutralC/CFD-LF-245-166-N.jpg","img/neutralC/CFD-MF-313-002-N.jpg","1","1","1","1","1","0","0.391135599988047","0.378815400006715","0.363195999991149","1","1","1","1","1","1","1","1","1"
"250017","img/neutralC/CFD-MF-313-002-N.jpg","img/neutralC/CFD-AF-241-141-N.jpg","img/neutralC/CFD-BM-018-001-N.jpg","1","1","1","0","1","1","0.363195999991149","0.391135599988047","0.498837599996477","1","1","1","1","1","1","1","1","1"
"250017","img/neutralC/CFD-BM-018-001-N.jpg","img/neutralC/CFD-MF-313-002-N.jpg","img/neutralC/CFD-LM-226-175-N.jpg","1","1","1","1","0","0","0.498837599996477","0.363195999991149","0.485706400009803","1","1","1","1","1","1","1","1","1"
"250017","img/neutralC/CFD-LM-226-175-N.jpg","img/neutralC/CFD-BM-018-001-N.jpg","img/neutralC/CFD-WM-227-099-N.jpg","1","1","1","0","1","1","0.485706400009803","0.498837599996477","0.389697100006742","1","1","1","1","1","1","1","1","1"
"250017","img/neutralC/CFD-WM-227-099-N.jpg","img/neutralC/CFD-LM-226-175-N.jpg","img/neutralC/CFD-LM-219-295-N.jpg","1","1","1","1","0","1","0.389697100006742","0.485706400009803","0.381368300004397","1","1","1","1","1","1","1","1","1"
"250017","img/neutralC/CFD-LM-219-295-N.jpg","img/neutralC/CFD-WM-227-099-N.jpg","img/neutralC/CFD-IM-657-308-N.jpg","1","1","1","1","1","0","0.381368300004397","0.389697100006742","0.40549319999991","1","1","1","1","1","1","1","1","1"
"250017","img/neutralC/CFD-IM-657-308-N.jpg","img/neutralC/CFD-LM-219-295-N.jpg","img/neutralC/CFD-WM-017-002-N.jpg","1","1","1","0","1","0","0.40549319999991","0.381368300004397","0.435820000013336","1","1","1","1","1","1","1","1","1"
"250017","img/neutralC/CFD-WM-017-002-N.jpg","img/neutralC/CFD-IM-657-308-N.jpg","img/neutralC/CFD-LF-250-169-N.jpg","1","1","1","0","0","1","0.435820000013336","0.40549319999991","0.367529699986335","1","1","1","1","1","1","1","1","1"
"250017","img/neutralC/CFD-LF-250-169-N.jpg","img/neutralC/CFD-WM-017-002-N.jpg","img/neutralC/CFD-BF-010-001-N.jpg","1","1","1","1","0","1","0.367529699986335","0.435820000013336","0.379453000001376","1","1","1","1","1","1","1","1","1"
"250017","img/neutralC/CFD-BF-010-001-N.jpg","img/neutralC/CFD-LF-250-169-N.jpg",NA,"1","1",NA,"1","1",NA,"0.379453000001376","0.367529699986335",NA,"1","1",NA,"1","1",NA,"1","1",NA
"250017","img/neutralC/CFD-LF-216-121-N.jpg",NA,"img/neutralC/CFD-WM-038-003-N.jpg","1",NA,"0","1",NA,"0","0.445762999996077",NA,"0.417897100007394","1",NA,"1","1",NA,"1","1",NA,"1"
"250017","img/neutralC/CFD-WM-038-003-N.jpg","img/neutralC/CFD-LF-216-121-N.jpg","img/neutralC/CFD-WF-026-002-N.jpg","0","1","1","0","1","1","0.417897100007394","0.445762999996077","0.390810400014743","1","1","1","1","1","1","1","1","1"
"250017","img/neutralC/CFD-WF-026-002-N.jpg","img/neutralC/CFD-WM-038-003-N.jpg","img/neutralC/CFD-WM-257-161-N.jpg","1","0","1","1","0","1","0.390810400014743","0.417897100007394","0.402937200007727","1","1","1","1","1","1","1","1","1"
"250017","img/neutralC/CFD-WM-257-161-N.jpg","img/neutralC/CFD-WF-026-002-N.jpg","img/neutralC/CFD-BF-208-266-N.jpg","1","1","1","1","1","0","0.402937200007727","0.390810400014743","0.388603300001705","1","1","1","1","1","1","1","1","1"
"250017","img/neutralC/CFD-BF-208-266-N.jpg","img/neutralC/CFD-WM-257-161-N.jpg","img/neutralC/CFD-BF-201-080-N.jpg","1","1","1","0","1","1","0.388603300001705","0.402937200007727","0.34464160000789","1","1","1","1","1","1","1","1","1"
"250017","img/neutralC/CFD-BF-201-080-N.jpg","img/neutralC/CFD-BF-208-266-N.jpg","img/neutralC/CFD-BF-255-140-N.jpg","1","1","1","1","0","1","0.34464160000789","0.388603300001705","0.397866200015415","1","1","1","1","1","1","1","1","1"
"250017","img/neutralC/CFD-BF-255-140-N.jpg","img/neutralC/CFD-BF-201-080-N.jpg","img/neutralC/CFD-LM-252-076-N.jpg","1","1","1","1","1","1","0.397866200015415","0.34464160000789","0.39086449999013","1","1","1","1","1","1","1","1","1"
"250017","img/neutralC/CFD-LM-252-076-N.jpg","img/neutralC/CFD-BF-255-140-N.jpg","img/neutralC/CFD-BF-028-001-N.jpg","1","1","1","1","1","1","0.39086449999013","0.397866200015415","0.404706600005738","1","1","1","1","1","1","1","1","1"
"250017","img/neutralC/CFD-BF-028-001-N.jpg","img/neutralC/CFD-LM-252-076-N.jpg","img/neutralC/CFD-IF-672-305-N.jpg","1","1","1","1","1","0","0.404706600005738","0.39086449999013","0.449352700001327","1","1","1","1","1","1","1","1","1"
"250017","img/neutralC/CFD-IF-672-305-N.jpg","img/neutralC/CFD-BF-028-001-N.jpg","img/neutralC/CFD-BM-029-024-N.jpg","1","1","1","0","1","1","0.449352700001327","0.404706600005738","0.458009900001343","1","1","1","1","1","1","1","1","1"
"250017","img/neutralC/CFD-BM-029-024-N.jpg","img/neutralC/CFD-IF-672-305-N.jpg","img/neutralC/CFD-BM-027-001-N.jpg","1","1","1","1","0","0","0.458009900001343","0.449352700001327","0.361295899987454","1","1","1","1","1","1","1","1","1"
"250017","img/neutralC/CFD-BM-027-001-N.jpg","img/neutralC/CFD-BM-029-024-N.jpg","img/neutralC/CFD-WF-002-004-N.jpg","1","1","1","0","1","0","0.361295899987454","0.458009900001343","0.538079899997683","1","1","1","1","1","1","1","1","1"
"250017","img/neutralC/CFD-WF-002-004-N.jpg","img/neutralC/CFD-BM-027-001-N.jpg","img/neutralC/CFD-BF-023-010-N.jpg","1","1","1","0","0","1","0.538079899997683","0.361295899987454","0.372877199988579","1","1","1","1","1","1","1","1","1"
"250017","img/neutralC/CFD-BF-023-010-N.jpg","img/neutralC/CFD-WF-002-004-N.jpg","img/neutralC/CFD-BM-211-174-N.jpg","1","1","1","1","0","0","0.372877199988579","0.538079899997683","0.378322500007926","1","1","1","1","1","1","1","1","1"
"250017","img/neutralC/CFD-BM-211-174-N.jpg","img/neutralC/CFD-BF-023-010-N.jpg","img/neutralC/CFD-WM-225-127-N.jpg","1","1","1","0","1","0","0.378322500007926","0.372877199988579","0.415230899991002","1","1","1","1","1","1","1","1","1"
"250017","img/neutralC/CFD-WM-225-127-N.jpg","img/neutralC/CFD-BM-211-174-N.jpg","img/neutralC/CFD-BF-204-189-N.jpg","1","1","1","0","0","1","0.415230899991002","0.378322500007926","0.393674499995541","1","1","1","1","1","1","1","1","1"
"250017","img/neutralC/CFD-BF-204-189-N.jpg","img/neutralC/CFD-WM-225-127-N.jpg","img/neutralC/CFD-IM-674-281-N.jpg","1","1","1","1","0","1","0.393674499995541","0.415230899991002","0.401594800001476","1","1","1","1","1","1","1","1","1"
"250017","img/neutralC/CFD-IM-674-281-N.jpg","img/neutralC/CFD-BF-204-189-N.jpg","img/neutralC/CFD-IM-728-041-N.jpg","1","1","1","1","1","0","0.401594800001476","0.393674499995541","0.418017599993618","1","1","1","1","1","1","1","1","1"
"250017","img/neutralC/CFD-IM-728-041-N.jpg","img/neutralC/CFD-IM-674-281-N.jpg","img/neutralC/CFD-BM-247-240-N.jpg","1","1","1","0","1","0","0.418017599993618","0.401594800001476","0.505740200023865","1","1","1","1","1","1","1","1","1"
"250017","img/neutralC/CFD-BM-247-240-N.jpg","img/neutralC/CFD-IM-728-041-N.jpg","img/neutralC/CFD-WM-040-022-N.jpg","1","1","0","0","0","0","0.505740200023865","0.418017599993618","0.469706600008067","1","1","1","1","1","1","1","1","2"
"250017","img/neutralC/CFD-WM-040-022-N.jpg","img/neutralC/CFD-BM-247-240-N.jpg","img/neutralC/CFD-AM-217-085-N.jpg","0","1","1","0","0","0","0.469706600008067","0.505740200023865","0.439660800009733","1","1","1","1","1","1","2","1","1"
"250017","img/neutralC/CFD-AM-217-085-N.jpg","img/neutralC/CFD-WM-040-022-N.jpg","img/neutralC/CFD-WF-022-017-N.jpg","1","0","1","0","0","0","0.439660800009733","0.469706600008067","0.426529599993955","1","1","1","1","1","1","1","2","1"
"250017","img/neutralC/CFD-WF-022-017-N.jpg","img/neutralC/CFD-AM-217-085-N.jpg","img/neutralC/CFD-LF-236-221-N.jpg","1","1","1","0","0","1","0.426529599993955","0.439660800009733","0.372921900008805","1","1","1","1","1","1","1","1","1"
"250017","img/neutralC/CFD-LF-236-221-N.jpg","img/neutralC/CFD-WF-022-017-N.jpg","img/neutralC/CFD-WM-002-009-N.jpg","1","1","1","1","0","0","0.372921900008805","0.426529599993955","0.382696799992118","1","1","1","1","1","1","1","1","1"
"250017","img/neutralC/CFD-WM-002-009-N.jpg","img/neutralC/CFD-LF-236-221-N.jpg","img/neutralC/CFD-BM-015-015-N.jpg","1","1","1","0","1","0","0.382696799992118","0.372921900008805","0.379169699997874","1","1","1","1","1","1","1","1","1"
"250017","img/neutralC/CFD-BM-015-015-N.jpg","img/neutralC/CFD-WM-002-009-N.jpg","img/neutralC/CFD-IF-718-001-N.jpg","1","1","1","0","0","1","0.379169699997874","0.382696799992118","0.358564199996181","1","1","1","1","1","1","1","1","1"
"250017","img/neutralC/CFD-IF-718-001-N.jpg","img/neutralC/CFD-BM-015-015-N.jpg","img/neutralC/CFD-AM-215-120-N.jpg","1","1","1","1","0","1","0.358564199996181","0.379169699997874","0.307853800011799","1","1","1","1","1","1","1","1","1"
"250017","img/neutralC/CFD-AM-215-120-N.jpg","img/neutralC/CFD-IF-718-001-N.jpg","img/neutralC/CFD-IM-639-263-N.jpg","1","1","1","1","1","1","0.307853800011799","0.358564199996181","0.325957399996696","1","1","1","1","1","1","1","1","1"
"250017","img/neutralC/CFD-IM-639-263-N.jpg","img/neutralC/CFD-AM-215-120-N.jpg","img/neutralC/CFD-AM-235-241-N.jpg","1","1","1","1","1","0","0.325957399996696","0.307853800011799","0.383945600013249","1","1","1","1","1","1","1","1","1"
"250017","img/neutralC/CFD-AM-235-241-N.jpg","img/neutralC/CFD-IM-639-263-N.jpg","img/neutralC/CFD-BF-003-003-N.jpg","1","1","1","0","1","0","0.383945600013249","0.325957399996696","0.395433199999388","1","1","1","1","1","1","1","1","1"
"250017","img/neutralC/CFD-BF-003-003-N.jpg","img/neutralC/CFD-AM-235-241-N.jpg","img/neutralC/CFD-MM-319-052-N.jpg","1","1","1","0","0","1","0.395433199999388","0.383945600013249","0.400422000006074","1","1","1","1","1","1","1","1","1"
"250017","img/neutralC/CFD-MM-319-052-N.jpg","img/neutralC/CFD-BF-003-003-N.jpg",NA,"1","1",NA,"1","0",NA,"0.400422000006074","0.395433199999388",NA,"1","1",NA,"1","1",NA,"1","1",NA
"250017","img/neutralC/CFD-AM-220-134-N.jpg",NA,"img/neutralC/CFD-MF-343-001-N.jpg","0",NA,"1","0",NA,"1","0.435607799998252",NA,"0.359564500016859","1",NA,"1","1",NA,"1","2",NA,"1"
"250017","img/neutralC/CFD-MF-343-001-N.jpg","img/neutralC/CFD-AM-220-134-N.jpg","img/neutralC/CFD-WF-244-163-N.jpg","1","0","1","1","0","1","0.359564500016859","0.435607799998252","0.3691947000043","1","1","1","1","1","1","1","2","1"
"250017","img/neutralC/CFD-WF-244-163-N.jpg","img/neutralC/CFD-MF-343-001-N.jpg","img/neutralC/CFD-WF-030-002-N.jpg","1","1","1","1","1","0","0.3691947000043","0.359564500016859","0.395331700012321","1","1","1","1","1","1","1","1","1"
"250017","img/neutralC/CFD-WF-030-002-N.jpg","img/neutralC/CFD-WF-244-163-N.jpg","img/neutralC/CFD-LF-206-078-N.jpg","1","1","1","0","1","1","0.395331700012321","0.3691947000043","0.409982100012712","1","1","1","1","1","1","1","1","1"
"250017","img/neutralC/CFD-LF-206-078-N.jpg","img/neutralC/CFD-WF-030-002-N.jpg","img/neutralC/CFD-WM-015-002-N.jpg","1","1","1","1","0","0","0.409982100012712","0.395331700012321","0.404215999995358","1","1","1","1","1","1","1","1","1"
"250017","img/neutralC/CFD-WM-015-002-N.jpg","img/neutralC/CFD-LF-206-078-N.jpg","img/neutralC/CFD-BM-217-082-N.jpg","1","1","1","0","1","0","0.404215999995358","0.409982100012712","0.443985100020654","1","1","1","1","1","1","1","1","1"
"250017","img/neutralC/CFD-BM-217-082-N.jpg","img/neutralC/CFD-WM-015-002-N.jpg","img/neutralC/CFD-WM-218-074-N.jpg","1","1","1","0","0","1","0.443985100020654","0.404215999995358","0.364904099988053","1","1","1","1","1","1","1","1","1"
"250017","img/neutralC/CFD-WM-218-074-N.jpg","img/neutralC/CFD-BM-217-082-N.jpg","img/neutralC/CFD-AF-233-190-N.jpg","1","1","0","1","0","0","0.364904099988053","0.443985100020654","0.390825899987249","1","1","1","1","1","1","1","1","2"
"250017","img/neutralC/CFD-AF-233-190-N.jpg","img/neutralC/CFD-WM-218-074-N.jpg","img/neutralC/CFD-IM-706-002-N.jpg","0","1","1","0","1","0","0.390825899987249","0.364904099988053","0.370926600007806","1","1","1","1","1","1","2","1","1"
"250017","img/neutralC/CFD-IM-706-002-N.jpg","img/neutralC/CFD-AF-233-190-N.jpg","img/neutralC/CFD-BM-001-014-N.jpg","1","0","1","0","0","0","0.370926600007806","0.390825899987249","0.368054599995958","1","1","1","1","1","1","1","2","1"
"250017","img/neutralC/CFD-BM-001-014-N.jpg","img/neutralC/CFD-IM-706-002-N.jpg","img/neutralC/CFD-BF-014-002-N.jpg","1","1","1","0","0","1","0.368054599995958","0.370926600007806","0.356007800000953","1","1","1","1","1","1","1","1","1"
"250017","img/neutralC/CFD-BF-014-002-N.jpg","img/neutralC/CFD-BM-001-014-N.jpg","img/neutralC/CFD-MM-324-069-N.jpg","1","1","1","1","0","1","0.356007800000953","0.368054599995958","0.356451200001175","1","1","1","1","1","1","1","1","1"
"250017","img/neutralC/CFD-MM-324-069-N.jpg","img/neutralC/CFD-BF-014-002-N.jpg","img/neutralC/CFD-WF-007-001-N.jpg","1","1","1","1","1","1","0.356451200001175","0.356007800000953","0.364043900015531","1","1","1","1","1","1","1","1","1"
"250017","img/neutralC/CFD-WF-007-001-N.jpg","img/neutralC/CFD-MM-324-069-N.jpg","img/neutralC/CFD-LM-200-045-N.jpg","1","1","1","1","1","1","0.364043900015531","0.356451200001175","0.355830299988156","1","1","1","1","1","1","1","1","1"
"250017","img/neutralC/CFD-LM-200-045-N.jpg","img/neutralC/CFD-WF-007-001-N.jpg","img/neutralC/CFD-MF-357-002-N.jpg","1","1","1","1","1","0","0.355830299988156","0.364043900015531","0.498267100017983","1","1","1","1","1","1","1","1","1"
"250017","img/neutralC/CFD-MF-357-002-N.jpg","img/neutralC/CFD-LM-200-045-N.jpg","img/neutralC/CFD-IF-626-375-N.jpg","1","1","0","0","1","0","0.498267100017983","0.355830299988156","0.46723340000608","1","1","1","1","1","1","1","1","1"
"250017","img/neutralC/CFD-IF-626-375-N.jpg","img/neutralC/CFD-MF-357-002-N.jpg","img/neutralC/CFD-IM-702-101-N.jpg","0","1","1","0","0","1","0.46723340000608","0.498267100017983","0.405069100001128","1","1","1","1","1","1","1","1","1"
"250017","img/neutralC/CFD-IM-702-101-N.jpg","img/neutralC/CFD-IF-626-375-N.jpg","img/neutralC/CFD-IF-660-464-N.jpg","1","0","1","1","0","0","0.405069100001128","0.46723340000608","0.500558500003535","1","1","1","1","1","1","1","1","1"
"250017","img/neutralC/CFD-IF-660-464-N.jpg","img/neutralC/CFD-IM-702-101-N.jpg","img/neutralC/CFD-MF-305-014-N.jpg","1","1","1","0","1","1","0.500558500003535","0.405069100001128","0.38287470000796","1","1","1","1","1","1","1","1","1"
"250017","img/neutralC/CFD-MF-305-014-N.jpg","img/neutralC/CFD-IF-660-464-N.jpg","img/neutralC/CFD-LM-225-130-N.jpg","1","1","1","1","0","0","0.38287470000796","0.500558500003535","0.447843100002501","1","1","1","1","1","1","1","1","1"
"250017","img/neutralC/CFD-LM-225-130-N.jpg","img/neutralC/CFD-MF-305-014-N.jpg","img/neutralC/CFD-BM-250-170-N.jpg","1","1","1","0","1","1","0.447843100002501","0.38287470000796","0.396981599973515","1","1","1","1","1","1","1","1","1"
"250017","img/neutralC/CFD-BM-250-170-N.jpg","img/neutralC/CFD-LM-225-130-N.jpg","img/neutralC/CFD-LF-255-088-N.jpg","1","1","1","1","0","0","0.396981599973515","0.447843100002501","0.402322499983711","1","1","1","1","1","1","1","1","1"
"250017","img/neutralC/CFD-LF-255-088-N.jpg","img/neutralC/CFD-BM-250-170-N.jpg","img/neutralC/CFD-AF-253-130-N.jpg","1","1","1","0","1","1","0.402322499983711","0.396981599973515","0.41791399999056","1","1","1","1","1","1","1","1","1"
"250017","img/neutralC/CFD-AF-253-130-N.jpg","img/neutralC/CFD-LF-255-088-N.jpg","img/neutralC/CFD-IM-667-369-N.jpg","1","1","1","1","0","0","0.41791399999056","0.402322499983711","0.498769700003322","1","1","1","1","1","1","1","1","1"
"250017","img/neutralC/CFD-IM-667-369-N.jpg","img/neutralC/CFD-AF-253-130-N.jpg","img/neutralC/CFD-MF-316-001-N.jpg","1","1","1","0","1","0","0.498769700003322","0.41791399999056","0.500070800015237","1","1","1","1","1","1","1","1","1"
"250017","img/neutralC/CFD-MF-316-001-N.jpg","img/neutralC/CFD-IM-667-369-N.jpg","img/neutralC/CFD-IM-680-369-N.jpg","1","1","1","0","0","1","0.500070800015237","0.498769700003322","0.413497800007463","1","1","1","1","1","1","1","1","1"
"250017","img/neutralC/CFD-IM-680-369-N.jpg","img/neutralC/CFD-MF-316-001-N.jpg","img/neutralC/CFD-WM-209-038-N.jpg","1","1","1","1","0","0","0.413497800007463","0.500070800015237","0.372818200004986","1","1","1","1","1","1","1","1","1"
"250017","img/neutralC/CFD-WM-209-038-N.jpg","img/neutralC/CFD-IM-680-369-N.jpg","img/neutralC/CFD-MF-303-013-N.jpg","1","1","1","0","1","0","0.372818200004986","0.413497800007463","0.48311480000848","1","1","1","1","1","1","1","1","1"
"250017","img/neutralC/CFD-MF-303-013-N.jpg","img/neutralC/CFD-WM-209-038-N.jpg","img/neutralC/CFD-IM-664-651-N.jpg","1","1","1","0","0","1","0.48311480000848","0.372818200004986","0.368493700021645","1","1","1","1","1","1","1","1","1"
"250017","img/neutralC/CFD-IM-664-651-N.jpg","img/neutralC/CFD-MF-303-013-N.jpg","img/neutralC/CFD-WF-222-092-N.jpg","1","1","1","1","0","1","0.368493700021645","0.48311480000848","0.35508259999915","1","1","1","1","1","1","1","1","1"
"250017","img/neutralC/CFD-WF-222-092-N.jpg","img/neutralC/CFD-IM-664-651-N.jpg","img/neutralC/CFD-BF-237-172-N.jpg","1","1","1","1","1","1","0.35508259999915","0.368493700021645","0.365710699988995","1","1","1","1","1","1","1","1","1"
"250017","img/neutralC/CFD-BF-237-172-N.jpg","img/neutralC/CFD-WF-222-092-N.jpg",NA,"1","1",NA,"1","1",NA,"0.365710699988995","0.35508259999915",NA,"1","1",NA,"1","1",NA,"1","1",NA
"250017","img/neutralC/CFD-WM-019-003-N.jpg",NA,"img/neutralC/CFD-IM-646-023-N.jpg","1",NA,"1","1",NA,"1","0.423103300010553",NA,"0.355993200006196","1",NA,"1","1",NA,"1","1",NA,"1"
"250017","img/neutralC/CFD-IM-646-023-N.jpg","img/neutralC/CFD-WM-019-003-N.jpg","img/neutralC/CFD-LM-244-068-N.jpg","1","1","1","1","1","1","0.355993200006196","0.423103300010553","0.357060800015461","1","1","1","1","1","1","1","1","1"
"250017","img/neutralC/CFD-LM-244-068-N.jpg","img/neutralC/CFD-IM-646-023-N.jpg","img/neutralC/CFD-LM-201-057-N.jpg","1","1","1","1","1","1","0.357060800015461","0.355993200006196","0.315336200001184","1","1","1","1","1","1","1","1","1"
"250017","img/neutralC/CFD-LM-201-057-N.jpg","img/neutralC/CFD-LM-244-068-N.jpg","img/neutralC/CFD-WM-215-041-N.jpg","1","1","1","1","1","0","0.315336200001184","0.357060800015461","0.494559099985054","1","1","1","1","1","1","1","1","1"
"250017","img/neutralC/CFD-WM-215-041-N.jpg","img/neutralC/CFD-LM-201-057-N.jpg","img/neutralC/CFD-WM-212-097-N.jpg","1","1","1","0","1","0","0.494559099985054","0.315336200001184","0.413106199994218","1","1","1","1","1","1","1","1","1"
"250017","img/neutralC/CFD-WM-212-097-N.jpg","img/neutralC/CFD-WM-215-041-N.jpg","img/neutralC/CFD-MF-309-002-N.jpg","1","1","1","0","0","0","0.413106199994218","0.494559099985054","0.385702800005674","1","1","1","1","1","1","1","1","1"
"250017","img/neutralC/CFD-MF-309-002-N.jpg","img/neutralC/CFD-WM-212-097-N.jpg","img/neutralC/CFD-WF-228-196-N.jpg","1","1","0","0","0","0","0.385702800005674","0.413106199994218","0.281901200010907","1","1","1","1","1","1","1","1","1"
"250017","img/neutralC/CFD-WF-228-196-N.jpg","img/neutralC/CFD-MF-309-002-N.jpg","img/neutralC/CFD-WF-005-010-N.jpg","0","1","1","0","0","0","0.281901200010907","0.385702800005674","0.446307100006379","1","1","1","1","1","1","1","1","1"
"250017","img/neutralC/CFD-WF-005-010-N.jpg","img/neutralC/CFD-WF-228-196-N.jpg","img/neutralC/CFD-LM-216-082-N.jpg","1","0","1","0","0","0","0.446307100006379","0.281901200010907","0.353696500009391","1","1","1","1","1","1","1","1","1"
"250017","img/neutralC/CFD-LM-216-082-N.jpg","img/neutralC/CFD-WF-005-010-N.jpg","img/neutralC/CFD-WF-017-003-N.jpg","1","1","1","0","0","1","0.353696500009391","0.446307100006379","0.386435499996878","1","1","1","1","1","1","1","1","1"
"250017","img/neutralC/CFD-WF-017-003-N.jpg","img/neutralC/CFD-LM-216-082-N.jpg","img/neutralC/CFD-LM-214-165-N.jpg","1","1","1","1","0","1","0.386435499996878","0.353696500009391","0.377428100007819","1","1","1","1","1","1","1","1","1"
"250017","img/neutralC/CFD-LM-214-165-N.jpg","img/neutralC/CFD-WF-017-003-N.jpg","img/neutralC/CFD-BF-212-315-N.jpg","1","1","1","1","1","1","0.377428100007819","0.386435499996878","0.383651300013298","1","1","1","1","1","1","1","1","1"
"250017","img/neutralC/CFD-BF-212-315-N.jpg","img/neutralC/CFD-LM-214-165-N.jpg","img/neutralC/CFD-WM-249-239-N.jpg","1","1","1","1","1","1","0.383651300013298","0.377428100007819","0.389008099999046","1","1","1","1","1","1","1","1","1"
"250017","img/neutralC/CFD-WM-249-239-N.jpg","img/neutralC/CFD-BF-212-315-N.jpg","img/neutralC/CFD-MM-317-061-N.jpg","1","1","1","1","1","1","0.389008099999046","0.383651300013298","0.375243599992245","1","1","1","1","1","1","1","1","1"
"250017","img/neutralC/CFD-MM-317-061-N.jpg","img/neutralC/CFD-WM-249-239-N.jpg","img/neutralC/CFD-BF-202-109-N.jpg","1","1","1","1","1","1","0.375243599992245","0.389008099999046","0.361122400005115","1","1","1","1","1","1","1","1","1"
"250017","img/neutralC/CFD-BF-202-109-N.jpg","img/neutralC/CFD-MM-317-061-N.jpg","img/neutralC/CFD-IM-648-337-N.jpg","1","1","1","1","1","0","0.361122400005115","0.375243599992245","0.504516799992416","1","1","1","1","1","1","1","1","1"
"250017","img/neutralC/CFD-IM-648-337-N.jpg","img/neutralC/CFD-BF-202-109-N.jpg","img/neutralC/CFD-BF-041-001-N.jpg","1","1","1","0","1","1","0.504516799992416","0.361122400005115","0.398345800000243","1","1","1","1","1","1","1","1","1"
"250017","img/neutralC/CFD-BF-041-001-N.jpg","img/neutralC/CFD-IM-648-337-N.jpg","img/neutralC/CFD-WM-012-001-N.jpg","1","1","1","1","0","1","0.398345800000243","0.504516799992416","0.334988199989311","1","1","1","1","1","1","1","1","1"
"250017","img/neutralC/CFD-WM-012-001-N.jpg","img/neutralC/CFD-BF-041-001-N.jpg","img/neutralC/CFD-BM-205-001-N.jpg","1","1","1","1","1","0","0.334988199989311","0.398345800000243","0.432345000008354","1","1","1","1","1","1","1","1","1"
"250017","img/neutralC/CFD-BM-205-001-N.jpg","img/neutralC/CFD-WM-012-001-N.jpg","img/neutralC/CFD-WM-006-002-N.jpg","1","1","0","0","1","0","0.432345000008354","0.334988199989311","0.412809900008142","1","1","1","1","1","1","1","1","2"
"250017","img/neutralC/CFD-WM-006-002-N.jpg","img/neutralC/CFD-BM-205-001-N.jpg","img/neutralC/CFD-WF-240-083-N.jpg","0","1","1","0","0","0","0.412809900008142","0.432345000008354","0.389380700013135","1","1","1","1","1","1","2","1","1"
"250017","img/neutralC/CFD-WF-240-083-N.jpg","img/neutralC/CFD-WM-006-002-N.jpg","img/neutralC/CFD-BM-251-013-N.jpg","1","0","1","0","0","1","0.389380700013135","0.412809900008142","0.338958000007551","1","1","1","1","1","1","1","2","1"
"250017","img/neutralC/CFD-BM-251-013-N.jpg","img/neutralC/CFD-WF-240-083-N.jpg","img/neutralC/CFD-IF-642-295-N.jpg","1","1","1","1","0","1","0.338958000007551","0.389380700013135","0.387709599977825","1","1","1","1","1","1","1","1","1"
"250017","img/neutralC/CFD-IF-642-295-N.jpg","img/neutralC/CFD-BM-251-013-N.jpg","img/neutralC/CFD-LM-243-075-N.jpg","1","1","0","1","1","0","0.387709599977825","0.338958000007551","0.55657909999718","1","1","1","1","1","1","1","1","1"
"250017","img/neutralC/CFD-LM-243-075-N.jpg","img/neutralC/CFD-IF-642-295-N.jpg","img/neutralC/CFD-MF-335-002-N.jpg","0","1","1","0","1","0","0.55657909999718","0.387709599977825","0.375800100009656","1","1","1","1","1","1","1","1","1"
"250017","img/neutralC/CFD-MF-335-002-N.jpg","img/neutralC/CFD-LM-243-075-N.jpg","img/neutralC/CFD-AF-240-206-N.jpg","1","0","1","0","0","0","0.375800100009656","0.55657909999718","0.379751700005727","1","1","1","1","1","1","1","1","1"
"250017","img/neutralC/CFD-AF-240-206-N.jpg","img/neutralC/CFD-MF-335-002-N.jpg","img/neutralC/CFD-BM-248-128-N.jpg","1","1","1","0","0","0","0.379751700005727","0.375800100009656","0.40294040000299","1","1","1","1","1","1","1","1","1"
"250017","img/neutralC/CFD-BM-248-128-N.jpg","img/neutralC/CFD-AF-240-206-N.jpg","img/neutralC/CFD-WM-026-001-N.jpg","1","1","1","0","0","1","0.40294040000299","0.379751700005727","0.322081300022546","1","1","1","1","1","1","1","1","1"
"250017","img/neutralC/CFD-WM-026-001-N.jpg","img/neutralC/CFD-BM-248-128-N.jpg","img/neutralC/CFD-BF-228-212-N.jpg","1","1","1","1","0","0","0.322081300022546","0.40294040000299","0.392225600022357","1","1","1","1","1","1","1","1","1"
"250017","img/neutralC/CFD-BF-228-212-N.jpg","img/neutralC/CFD-WM-026-001-N.jpg","img/neutralC/CFD-AM-247-165-N.jpg","1","1","1","0","1","1","0.392225600022357","0.322081300022546","0.360581699991599","1","1","1","1","1","1","1","1","1"
"250017","img/neutralC/CFD-AM-247-165-N.jpg","img/neutralC/CFD-BF-228-212-N.jpg","img/neutralC/CFD-BF-025-002-N.jpg","1","1","1","1","0","0","0.360581699991599","0.392225600022357","0.442411099997116","1","1","1","1","1","1","1","1","1"
"250017","img/neutralC/CFD-BF-025-002-N.jpg","img/neutralC/CFD-AM-247-165-N.jpg",NA,"1","1",NA,"0","1",NA,"0.442411099997116","0.360581699991599",NA,"1","1",NA,"1","1",NA,"1","1",NA
"250017","img/neutralC/CFD-BM-225-154-N.jpg",NA,"img/neutralC/CFD-AM-251-124-N.jpg","1",NA,"0","1",NA,"0","0.381787499994971",NA,"0.331864600011613","1",NA,"1","1",NA,"1","1",NA,"1"
"250017","img/neutralC/CFD-AM-251-124-N.jpg","img/neutralC/CFD-BM-225-154-N.jpg","img/neutralC/CFD-IF-623-129-N.jpg","0","1","1","0","1","1","0.331864600011613","0.381787499994971","0.364405300002545","1","1","1","1","1","1","1","1","1"
"250017","img/neutralC/CFD-IF-623-129-N.jpg","img/neutralC/CFD-AM-251-124-N.jpg","img/neutralC/CFD-LM-237-264-N.jpg","1","0","1","1","0","0","0.364405300002545","0.331864600011613","0.427501400001347","1","1","1","1","1","1","1","1","1"
"250017","img/neutralC/CFD-LM-237-264-N.jpg","img/neutralC/CFD-IF-623-129-N.jpg","img/neutralC/CFD-IM-703-182-N.jpg","1","1","1","0","1","1","0.427501400001347","0.364405300002545","0.346798600017792","1","1","1","1","1","1","1","1","1"
"250017","img/neutralC/CFD-IM-703-182-N.jpg","img/neutralC/CFD-LM-237-264-N.jpg","img/neutralC/CFD-BF-229-179-N.jpg","1","1","0","1","0","0","0.346798600017792","0.427501400001347","0.394614500022726","1","1","1","1","1","1","1","1","1"
"250017","img/neutralC/CFD-BF-229-179-N.jpg","img/neutralC/CFD-IM-703-182-N.jpg","img/neutralC/CFD-WM-219-008-N.jpg","0","1","1","0","1","0","0.394614500022726","0.346798600017792","0.490909399988595","1","1","1","1","1","1","1","1","1"
"250017","img/neutralC/CFD-WM-219-008-N.jpg","img/neutralC/CFD-BF-229-179-N.jpg","img/neutralC/CFD-IF-650-315-N.jpg","1","0","1","0","0","0","0.490909399988595","0.394614500022726","0.418911899992963","1","1","1","1","1","1","1","1","1"
"250017","img/neutralC/CFD-IF-650-315-N.jpg","img/neutralC/CFD-WM-219-008-N.jpg","img/neutralC/CFD-MF-359-019-N.jpg","1","1","1","0","0","0","0.418911899992963","0.490909399988595","0.408330200007185","1","1","1","1","1","1","1","1","1"
"250017","img/neutralC/CFD-MF-359-019-N.jpg","img/neutralC/CFD-IF-650-315-N.jpg","img/neutralC/CFD-AM-211-052-N.jpg","1","1","1","0","0","1","0.408330200007185","0.418911899992963","0.333657999988645","1","1","1","1","1","1","1","1","1"
"250017","img/neutralC/CFD-AM-211-052-N.jpg","img/neutralC/CFD-MF-359-019-N.jpg","img/neutralC/CFD-WM-004-010-N.jpg","1","1","1","1","0","0","0.333657999988645","0.408330200007185","0.48631349997595","1","1","1","1","1","1","1","1","1"
"250017","img/neutralC/CFD-WM-004-010-N.jpg","img/neutralC/CFD-AM-211-052-N.jpg","img/neutralC/CFD-WF-214-122-N.jpg","1","1","1","0","1","1","0.48631349997595","0.333657999988645","0.340820400015218","1","1","1","1","1","1","1","1","1"
"250017","img/neutralC/CFD-WF-214-122-N.jpg","img/neutralC/CFD-WM-004-010-N.jpg","img/neutralC/CFD-IM-671-601-N.jpg","1","1","1","1","0","0","0.340820400015218","0.48631349997595","0.434400600002846","1","1","1","1","1","1","1","1","1"
"250017","img/neutralC/CFD-IM-671-601-N.jpg","img/neutralC/CFD-WF-214-122-N.jpg","img/neutralC/CFD-LM-228-188-N.jpg","1","1","1","0","1","1","0.434400600002846","0.340820400015218","0.364645699999528","1","1","1","1","1","1","1","1","1"
"250017","img/neutralC/CFD-LM-228-188-N.jpg","img/neutralC/CFD-IM-671-601-N.jpg","img/neutralC/CFD-WF-001-003-N.jpg","1","1","1","1","0","1","0.364645699999528","0.434400600002846","0.359548899985384","1","1","1","1","1","1","1","1","1"
"250017","img/neutralC/CFD-WF-001-003-N.jpg","img/neutralC/CFD-LM-228-188-N.jpg","img/neutralC/CFD-MF-333-012-N.jpg","1","1","1","1","1","0","0.359548899985384","0.364645699999528","0.407181100017624","1","1","1","1","1","1","1","1","1"
"250017","img/neutralC/CFD-MF-333-012-N.jpg","img/neutralC/CFD-WF-001-003-N.jpg","img/neutralC/CFD-BF-226-119-N.jpg","1","1","1","0","1","1","0.407181100017624","0.359548899985384","0.418942599993898","1","1","1","1","1","1","1","1","1"
"250017","img/neutralC/CFD-BF-226-119-N.jpg","img/neutralC/CFD-MF-333-012-N.jpg","img/neutralC/CFD-IM-616-214-N.jpg","1","1","1","1","0","0","0.418942599993898","0.407181100017624","0.42397410000558","1","1","1","1","1","1","1","1","1"
"250017","img/neutralC/CFD-IM-616-214-N.jpg","img/neutralC/CFD-BF-226-119-N.jpg","img/neutralC/CFD-IM-645-001-N.jpg","1","1","1","0","1","0","0.42397410000558","0.418942599993898","0.346719799999846","1","1","1","1","1","1","1","1","1"
"250017","img/neutralC/CFD-IM-645-001-N.jpg","img/neutralC/CFD-IM-616-214-N.jpg","img/neutralC/CFD-WM-235-147-N.jpg","1","1","1","0","0","0","0.346719799999846","0.42397410000558","0.400361800013343","1","1","1","1","1","1","1","1","1"
"250017","img/neutralC/CFD-WM-235-147-N.jpg","img/neutralC/CFD-IM-645-001-N.jpg","img/neutralC/CFD-WM-020-001-N.jpg","1","1","1","0","0","1","0.400361800013343","0.346719799999846","0.322445199999493","1","1","1","1","1","1","1","1","1"
"250017","img/neutralC/CFD-WM-020-001-N.jpg","img/neutralC/CFD-WM-235-147-N.jpg","img/neutralC/CFD-WF-036-023-N.jpg","1","1","0","1","0","0","0.322445199999493","0.400361800013343","0.384985300013795","1","1","1","1","1","1","1","1","2"
"250017","img/neutralC/CFD-WF-036-023-N.jpg","img/neutralC/CFD-WM-020-001-N.jpg","img/neutralC/CFD-LF-218-072-N.jpg","0","1","1","0","1","0","0.384985300013795","0.322445199999493","0.503165399975842","1","1","1","1","1","1","2","1","1"
"250017","img/neutralC/CFD-LF-218-072-N.jpg","img/neutralC/CFD-WF-036-023-N.jpg","img/neutralC/CFD-WM-033-025-N.jpg","1","0","1","0","0","1","0.503165399975842","0.384985300013795","0.357221899990691","1","1","1","1","1","1","1","2","1"
"250017","img/neutralC/CFD-WM-033-025-N.jpg","img/neutralC/CFD-LF-218-072-N.jpg","img/neutralC/CFD-BF-038-037-N.jpg","1","1","1","1","0","1","0.357221899990691","0.503165399975842","0.383186200022465","1","1","1","1","1","1","1","1","1"
"250017","img/neutralC/CFD-BF-038-037-N.jpg","img/neutralC/CFD-WM-033-025-N.jpg","img/neutralC/CFD-WF-200-099-N.jpg","1","1","1","1","1","0","0.383186200022465","0.357221899990691","0.371366000006674","1","1","1","1","1","1","1","1","1"
"250017","img/neutralC/CFD-WF-200-099-N.jpg","img/neutralC/CFD-BF-038-037-N.jpg","img/neutralC/CFD-IM-743-006-N.jpg","1","1","1","0","1","1","0.371366000006674","0.383186200022465","0.381516499997815","1","1","1","1","1","1","1","1","1"
"250017","img/neutralC/CFD-IM-743-006-N.jpg","img/neutralC/CFD-WF-200-099-N.jpg","img/neutralC/CFD-BM-253-004-N.jpg","1","1","1","1","0","1","0.381516499997815","0.371366000006674","0.375014699995518","1","1","1","1","1","1","1","1","1"
"250017","img/neutralC/CFD-BM-253-004-N.jpg","img/neutralC/CFD-IM-743-006-N.jpg","img/neutralC/CFD-AM-242-176-N.jpg","1","1","1","1","1","1","0.375014699995518","0.381516499997815","0.388817099999869","1","1","1","1","1","1","1","1","1"
"250017","img/neutralC/CFD-AM-242-176-N.jpg","img/neutralC/CFD-BM-253-004-N.jpg","img/neutralC/CFD-LF-220-120-N.jpg","1","1","1","1","1","1","0.388817099999869","0.375014699995518","0.342515700001968","1","1","1","1","1","1","1","1","1"
"250017","img/neutralC/CFD-LF-220-120-N.jpg","img/neutralC/CFD-AM-242-176-N.jpg","img/neutralC/CFD-MF-352-054-N.jpg","1","1","1","1","1","0","0.342515700001968","0.388817099999869","0.360089500027243","1","1","1","1","1","1","1","1","1"
"250017","img/neutralC/CFD-MF-352-054-N.jpg","img/neutralC/CFD-LF-220-120-N.jpg","img/neutralC/CFD-BF-232-187-N.jpg","1","1","1","0","1","1","0.360089500027243","0.342515700001968","0.351756199990632","1","1","1","1","1","1","1","1","1"
"250017","img/neutralC/CFD-BF-232-187-N.jpg","img/neutralC/CFD-MF-352-054-N.jpg",NA,"1","1",NA,"1","0",NA,"0.351756199990632","0.360089500027243",NA,"1","1",NA,"1","1",NA,"1","1",NA
