"participant_id","face","surpAcc","memory_surp_responses","memory_surp_rt","keep_surp_memory_trial_based_on_rt","surp_block_num","exclude_block","number_of_surp_resp_items_used","num_blocks_excluded"
"250036","img/neutralC/CFD-WF-250-167-N.jpg","1","s","2.10444539994933",1,1,0,2,0
"250036","img/neutralC/CFD-WF-030-002-N.jpg","1","k","0.990858300006948",1,1,0,2,0
"250036","img/neutralC/CFD-LM-247-095-N.jpg","1","s","1.71473090001382",1,1,0,2,0
"250036","img/neutralC/CFD-WM-033-025-N.jpg","1","s","1.65415499999654",1,1,0,2,0
"250036","img/neutralC/CFD-BM-009-002-N.jpg","1","k","1.49444499996025",1,1,0,2,0
"250036","img/neutralC/CFD-LF-245-166-N.jpg","1","k","1.09711170010269",1,1,0,2,0
"250036","img/neutralC/CFD-IF-744-114-N.jpg","1","s","1.62277370004449",1,1,0,2,0
"250036","img/neutralC/CFD-AM-219-101-N.jpg","0","s","1.19647460000124",1,1,0,2,0
"250036","img/neutralC/CFD-MF-300-002-N.jpg","0","s","1.67747879994567",1,1,0,2,0
"250036","img/neutralC/CFD-IM-707-105-N.jpg","1","s","1.31799340003636",1,1,0,2,0
"250036","img/neutralC/CFD-AM-233-236-N.jpg","1","k","1.6196859999327",1,1,0,2,0
"250036","img/neutralC/CFD-WM-212-097-N.jpg","1","s","1.68571739993058",1,1,0,2,0
"250036","img/neutralC/CFD-AF-253-130-N.jpg","0","k","1.5373275000602",1,1,0,2,0
"250036","img/neutralC/CFD-IM-674-281-N.jpg","1","s","1.08076749998145",1,1,0,2,0
"250036","img/neutralC/CFD-WF-234-086-N.jpg","1","s","0.953985799918882",1,1,0,2,0
"250036","img/neutralC/CFD-BF-205-141-N.jpg","0","k","0.989077999955043",1,1,0,2,0
"250036","img/neutralC/CFD-BF-012-001-N.jpg","0","k","1.11648800002877",1,1,0,2,0
"250036","img/neutralC/CFD-BM-238-242-N.jpg","1","s","1.27968859998509",1,1,0,2,0
"250036","img/neutralC/CFD-IM-632-097-N.jpg","1","s","1.15878300007898",1,1,0,2,0
"250036","img/neutralC/CFD-LF-204-133-N.jpg","1","s","2.08416760002729",1,1,0,2,0
"250036","img/neutralC/CFD-WF-244-163-N.jpg","0","s","1.21791660005692",1,1,0,2,0
"250036","img/neutralC/CFD-WM-004-010-N.jpg","1","k","1.00833600002807",1,1,0,2,0
"250036","img/neutralC/CFD-BM-020-001-N.jpg","1","k","1.42137510003522",1,1,0,2,0
"250036","img/neutralC/CFD-WM-020-001-N.jpg","1","s","1.25508440006524",1,1,0,2,0
"250036","img/neutralC/CFD-LF-225-164-N.jpg","1","s","1.1316692000255",1,1,0,2,0
"250036","img/neutralC/CFD-IM-617-174-N.jpg","1","s","3.05236650002189",1,1,0,2,0
"250036","img/neutralC/CFD-BM-227-191-N.jpg","1","k","3.50270979991183",1,1,0,2,0
"250036","img/neutralC/CFD-IM-700-009-N.jpg","1","s","0.875879499944858",1,1,0,2,0
"250036","img/neutralC/CFD-WM-034-030-N.jpg","1","k","2.25570270000026",1,1,0,2,0
"250036","img/neutralC/CFD-BM-239-136-N.jpg","1","s","0.861276699928567",1,1,0,2,0
"250036","img/neutralC/CFD-WM-028-003-N.jpg","1","k","1.25159160001203",1,1,0,2,0
"250036","img/neutralC/CFD-IF-660-464-N.jpg","0","k","1.39402719994541",1,1,0,2,0
"250036","img/neutralC/CFD-BM-253-004-N.jpg","0","s","1.23233230004553",1,1,0,2,0
"250036","img/neutralC/CFD-WF-233-112-N.jpg","0","k","1.05990590003785",1,1,0,2,0
"250036","img/neutralC/CFD-MF-305-014-N.jpg","1","k","1.44662740000058",1,1,0,2,0
"250036","img/neutralC/CFD-IM-671-601-N.jpg","1","s","1.25820889999159",1,1,0,2,0
"250036","img/neutralC/CFD-AF-246-242-N.jpg","0","s","3.72802060004324",1,1,0,2,0
"250036","img/neutralC/CFD-BM-004-002-N.jpg","0","k","1.57733759994153",1,1,0,2,0
"250036","img/neutralC/CFD-WF-213-031-N.jpg","1","k","1.44895809993614",1,1,0,2,0
"250036","img/neutralC/CFD-WM-227-099-N.jpg","1","s","1.78686679992825",1,1,0,2,0
"250036","img/neutralC/CFD-WM-023-001-N.jpg","1","k","1.77907199994661",1,1,0,2,0
"250036","img/neutralC/CFD-IM-657-308-N.jpg","1","s","0.841042599990033",1,1,0,2,0
"250036","img/neutralC/CFD-MF-307-002-N.jpg","1","s","1.28184399998281",1,1,0,2,0
"250036","img/neutralC/CFD-WM-215-041-N.jpg","0","s","1.46432570007164",1,1,0,2,0
"250036","img/neutralC/CFD-MM-304-002-N.jpg","0","s","1.23395060002804",1,1,0,2,0
"250036","img/neutralC/CFD-BM-213-134-N.jpg","0","k","0.962440099916421",1,1,0,2,0
"250036","img/neutralC/CFD-WM-012-001-N.jpg","1","k","1.6193858999759",1,1,0,2,0
"250036","img/neutralC/CFD-WF-001-003-N.jpg","1","s","1.4765408000676",1,1,0,2,0
"250036","img/neutralC/CFD-IF-672-305-N.jpg","1","k","2.0807062999811",1,2,0,2,0
"250036","img/neutralC/CFD-IM-664-651-N.jpg","1","s","0.732907700003125",1,2,0,2,0
"250036","img/neutralC/CFD-IM-669-111-N.jpg","0","k","1.84794419992249",1,2,0,2,0
"250036","img/neutralC/CFD-IM-651-308-N.jpg","1","k","1.35153510002419",1,2,0,2,0
"250036","img/neutralC/CFD-WM-015-002-N.jpg","1","k","1.74851299996953",1,2,0,2,0
"250036","img/neutralC/CFD-MF-313-002-N.jpg","0","k","1.55110469995998",1,2,0,2,0
"250036","img/neutralC/CFD-BM-030-003-N.jpg","0","k","1.77029189991299",1,2,0,2,0
"250036","img/neutralC/CFD-IF-693-172-N.jpg","1","k","1.34116720000748",1,2,0,2,0
"250036","img/neutralC/CFD-IF-634-382-N.jpg","1","k","1.08974460000172",1,2,0,2,0
"250036","img/neutralC/CFD-WM-228-065-N.jpg","0","k","1.60187110002153",1,2,0,2,0
"250036","img/neutralC/CFD-MM-306-010-N.jpg","1","s","1.230280400021",1,2,0,2,0
"250036","img/neutralC/CFD-WM-009-002-N.jpg","1","s","1.08866169990506",1,2,0,2,0
"250036","img/neutralC/CFD-LM-213-061-N.jpg","1","k","1.8243894999614",1,2,0,2,0
"250036","img/neutralC/CFD-IF-710-016-N.jpg","1","k","2.08035779988859",1,2,0,2,0
"250036","img/neutralC/CFD-MF-321-003-N.jpg","0","k","1.3584075999679",1,2,0,2,0
"250036","img/neutralC/CFD-BM-023-029-N.jpg","1","s","0.814209099975415",1,2,0,2,0
"250036","img/neutralC/CFD-WM-017-002-N.jpg","0","k","1.22304710000753",1,2,0,2,0
"250036","img/neutralC/CFD-LF-224-176-N.jpg","1","s","3.15050490002614",1,2,0,2,0
"250036","img/neutralC/CFD-WF-033-002-N.jpg","1","s","0.95373099995777",1,2,0,2,0
"250036","img/neutralC/CFD-BM-026-002-N.jpg","1","s","1.19265450001694",1,2,0,2,0
"250036","img/neutralC/CFD-BF-218-207-N.jpg","1","s","1.51874079997651",1,2,0,2,0
"250036","img/neutralC/CFD-IM-627-178-N.jpg","1","s","2.32814350002445",1,2,0,2,0
"250036","img/neutralC/CFD-BM-207-024-N.jpg","0","s","1.38731429993641",1,2,0,2,0
"250036","img/neutralC/CFD-AM-211-052-N.jpg","1","k","1.27722409996204",1,2,0,2,0
"250036","img/neutralC/CFD-MM-319-052-N.jpg","1","k","1.87824529991485",1,2,0,2,0
"250036","img/neutralC/CFD-LM-237-264-N.jpg","0","s","1.33555590000469",1,2,0,2,0
"250036","img/neutralC/CFD-WF-200-099-N.jpg","0","s","1.58878210000694",1,2,0,2,0
"250036","img/neutralC/CFD-BM-036-003-N.jpg","1","k","1.20425449998584",1,2,0,2,0
"250036","img/neutralC/CFD-BM-003-003-N.jpg","1","s","0.867369099985808",1,2,0,2,0
"250036","img/neutralC/CFD-IM-667-369-N.jpg","1","s","1.13356940005906",1,2,0,2,0
"250036","img/neutralC/CFD-IF-665-015-N.jpg","1","s","0.895165900001302",1,2,0,2,0
"250036","img/neutralC/CFD-WF-208-068-N.jpg","0","k","0.834984899964184",1,2,0,2,0
"250036","img/neutralC/CFD-BF-043-003-N.jpg","1","s","2.95826869993471",1,2,0,2,0
"250036","img/neutralC/CFD-IM-689-263-N.jpg","1","k","1.12623739999253",1,2,0,2,0
"250036","img/neutralC/CFD-WM-242-011-N.jpg","0","k","2.17536669992842",1,2,0,2,0
"250036","img/neutralC/CFD-WF-023-003-N.jpg","0","k","1.93836889998056",1,2,0,2,0
"250036","img/neutralC/CFD-AF-239-171-N.jpg","1","k","1.5737770999549",1,2,0,2,0
"250036","img/neutralC/CFD-WM-219-008-N.jpg","0","k","3.8571788999252",1,2,0,2,0
"250036","img/neutralC/CFD-BM-217-082-N.jpg","1","k","1.52720759995282",1,2,0,2,0
"250036","img/neutralC/CFD-WM-248-036-N.jpg","0","s","4.01142209989484",1,2,0,2,0
"250036","img/neutralC/CFD-AF-250-200-N.jpg","0","s","2.6956561000552",1,2,0,2,0
"250036","img/neutralC/CFD-BM-015-015-N.jpg","1","k","1.43922679999378",1,2,0,2,0
"250036","img/neutralC/CFD-IF-718-001-N.jpg","0","k","1.39769080001861",1,2,0,2,0
"250036","img/neutralC/CFD-BF-044-034-N.jpg","1","k","3.26812480005901",1,2,0,2,0
"250036","img/neutralC/CFD-LM-241-125-N.jpg","1","k","1.71607059997041",1,2,0,2,0
"250036","img/neutralC/CFD-WM-019-003-N.jpg","1","s","1.97157639998477",1,2,0,2,0
"250036","img/neutralC/CFD-WF-240-083-N.jpg","0","s","2.44703519996256",1,2,0,2,0
"250036","img/neutralC/CFD-BF-051-035-N.jpg","1","s","1.67478499992285",1,2,0,2,0
"250036","img/neutralC/CFD-AM-212-050-N.jpg","0","s","1.29056300001685",1,3,0,2,0
"250036","img/neutralC/CFD-IM-659-359-N.jpg","1","s","1.82530919997953",1,3,0,2,0
"250036","img/neutralC/CFD-WF-026-002-N.jpg","0","k","1.33179140009452",1,3,0,2,0
"250036","img/neutralC/CFD-BF-045-003-N.jpg","0","k","2.99852879997343",1,3,0,2,0
"250036","img/neutralC/CFD-BF-025-002-N.jpg","1","k","1.36175589996856",1,3,0,2,0
"250036","img/neutralC/CFD-WM-258-125-N.jpg","1","s","1.11752239998896",1,3,0,2,0
"250036","img/neutralC/CFD-WM-213-076-N.jpg","1","k","1.9213691999903",1,3,0,2,0
"250036","img/neutralC/CFD-WM-254-152-N.jpg","0","k","1.89404529996682",1,3,0,2,0
"250036","img/neutralC/CFD-WM-202-107-N.jpg","0","s","2.30459289997816",1,3,0,2,0
"250036","img/neutralC/CFD-BM-251-013-N.jpg","0","s","1.96652080002241",1,3,0,2,0
"250036","img/neutralC/CFD-BF-038-037-N.jpg","1","k","3.14834920002613",1,3,0,2,0
"250036","img/neutralC/CFD-IM-738-191-N.jpg","1","s","1.03445340006147",1,3,0,2,0
"250036","img/neutralC/CFD-WM-209-038-N.jpg","1","k","2.16327779996209",1,3,0,2,0
"250036","img/neutralC/CFD-LM-204-001-N.jpg","0","s","2.27566140005365",1,3,0,2,0
"250036","img/neutralC/CFD-AF-213-126-N.jpg","0","k","1.39007129997481",1,3,0,2,0
"250036","img/neutralC/CFD-AM-242-176-N.jpg","1","s","0.959993400028907",1,3,0,2,0
"250036","img/neutralC/CFD-IM-680-369-N.jpg","1","k","5.2531112000579",1,3,0,2,0
"250036","img/neutralC/CFD-WM-038-003-N.jpg","1","s","3.07721240003593",1,3,0,2,0
"250036","img/neutralC/CFD-BF-033-028-N.jpg","0","k","1.33789179997984",1,3,0,2,0
"250036","img/neutralC/CFD-LM-217-162-N.jpg","1","k","3.57821509998757",1,3,0,2,0
"250036","img/neutralC/CFD-BF-238-190-N.jpg","0","k","2.20842099993024",1,3,0,2,0
"250036","img/neutralC/CFD-BF-004-014-N.jpg","1","k","1.76967039995361",1,3,0,2,0
"250036","img/neutralC/CFD-IM-639-263-N.jpg","0","s","1.31192779995035",1,3,0,2,0
"250036","img/neutralC/CFD-BM-039-029-N.jpg","1","s","1.13755440001842",1,3,0,2,0
"250036","img/neutralC/CFD-LF-206-078-N.jpg","1","s","1.86470619996544",1,3,0,2,0
"250036","img/neutralC/CFD-IF-677-452-1-N.jpg","0","s","2.26217890006956",1,3,0,2,0
"250036","img/neutralC/CFD-AM-251-124-N.jpg","1","k","1.17797689989675",1,3,0,2,0
"250036","img/neutralC/CFD-WF-008-002-N.jpg","1","s","3.05242680001538",1,3,0,2,0
"250036","img/neutralC/CFD-MM-321-021-N.jpg","1","k","1.41645620006602",1,3,0,2,0
"250036","img/neutralC/CFD-AM-225-102-N.jpg","1","s","1.64412970002741",1,3,0,2,0
"250036","img/neutralC/CFD-IM-701-312-N.jpg","1","s","1.64700200001244",1,3,0,2,0
"250036","img/neutralC/CFD-MM-316-156-N.jpg","1","s","2.37703049997799",1,3,0,2,0
"250036","img/neutralC/CFD-BF-018-039-N.jpg","1","s","1.63820919999853",1,3,0,2,0
"250036","img/neutralC/CFD-AF-244-168-N.jpg","1","s","2.05975250003394",1,3,0,2,0
"250036","img/neutralC/CFD-BF-255-140-N.jpg","0","s","1.84065080003347",1,3,0,2,0
"250036","img/neutralC/CFD-LM-216-082-N.jpg","1","k","2.01820829999633",1,3,0,2,0
"250036","img/neutralC/CFD-AF-227-207-N.jpg","1","s","1.6400791000342",1,3,0,2,0
"250036","img/neutralC/CFD-IF-673-389-N.jpg","0","k","1.35216610005591",1,3,0,2,0
"250036","img/neutralC/CFD-WM-014-002-N.jpg","0","s","1.47236669994891",1,3,0,2,0
"250036","img/neutralC/CFD-BF-027-002-N.jpg","0","s","1.10668540000916",1,3,0,2,0
"250036","img/neutralC/CFD-AF-232-078-N.jpg","1","k","4.15781370003242",1,3,0,2,0
"250036","img/neutralC/CFD-WF-036-023-N.jpg","0","s","2.71950819995254",1,3,0,2,0
"250036","img/neutralC/CFD-BF-003-003-N.jpg","1","k","1.72169289994054",1,3,0,2,0
"250036","img/neutralC/CFD-BF-208-266-N.jpg","1","s","1.74990649998654",1,3,0,2,0
"250036","img/neutralC/CFD-LF-255-088-N.jpg","1","k","0.84038460010197",1,3,0,2,0
"250036","img/neutralC/CFD-WM-255-219-N.jpg","1","s","1.15152620000299",1,3,0,2,0
"250036","img/neutralC/CFD-LF-241-188-N.jpg","1","k","2.15082360000815",1,3,0,2,0
"250036","img/neutralC/CFD-BM-005-003-N.jpg","1","s","1.48325799999293",1,3,0,2,0
"250036","img/neutralC/CFD-BF-028-001-N.jpg","0","s","1.37490749999415",1,4,0,2,0
"250036","img/neutralC/CFD-MF-301-024-N.jpg","0","s","1.07256469991989",1,4,0,2,0
"250036","img/neutralC/CFD-LM-218-183-N.jpg","0","s","1.51807799993549",1,4,0,2,0
"250036","img/neutralC/CFD-LF-208-127-N.jpg","0","k","0.878062000032514",1,4,0,2,0
"250036","img/neutralC/CFD-BM-013-002-N.jpg","1","s","1.20129740005359",1,4,0,2,0
"250036","img/neutralC/CFD-IM-696-001-N.jpg","1","s","0.933478499995545",1,4,0,2,0
"250036","img/neutralC/CFD-BF-039-031-N.jpg","0","s","1.4157991000684",1,4,0,2,0
"250036","img/neutralC/CFD-IM-703-182-N.jpg","1","s","1.03711460006889",1,4,0,2,0
"250036","img/neutralC/CFD-LF-214-090-N.jpg","1","k","1.16638000006787",1,4,0,2,0
"250036","img/neutralC/CFD-WF-238-023-N.jpg","0","s","2.4008095000172",1,4,0,2,0
"250036","img/neutralC/CFD-BF-002-001-N.jpg","1","s","1.97943810001016",1,4,0,2,0
"250036","img/neutralC/CFD-BF-020-002-N.jpg","0","s","1.77956140006427",1,4,0,2,0
"250036","img/neutralC/CFD-LF-212-066-N.jpg","1","s","1.24537520005833",1,4,0,2,0
"250036","img/neutralC/CFD-AM-245-111-N.jpg","0","k","3.59712789999321",1,4,0,2,0
"250036","img/neutralC/CFD-WM-253-119-N.jpg","0","s","3.29604859999381",1,4,0,2,0
"250036","img/neutralC/CFD-AM-247-165-N.jpg","1","s","1.45210890006274",1,4,0,2,0
"250036","img/neutralC/CFD-WF-006-002-N.jpg","0","s","1.00084470002912",1,4,0,2,0
"250036","img/neutralC/CFD-BF-212-315-N.jpg","0","s","3.63690909999423",1,4,0,2,0
"250036","img/neutralC/CFD-AF-215-70-N.jpg","0","k","1.70753709995188",1,4,0,2,0
"250036","img/neutralC/CFD-BF-226-119-N.jpg","0","s","1.42846229998395",1,4,0,2,0
"250036","img/neutralC/CFD-WM-024-015-N.jpg","0","s","4.62814190005884",1,4,0,2,0
"250036","img/neutralC/CFD-WF-209-052-N.jpg","0","k","2.62904350005556",1,4,0,2,0
"250036","img/neutralC/CFD-AF-229-160-N.jpg","1","k","1.65928180003539",1,4,0,2,0
"250036","img/neutralC/CFD-MF-309-002-N.jpg","0","s","2.21710909996182",1,4,0,2,0
"250036","img/neutralC/CFD-LF-222-147-N.jpg","0","s","2.94394570006989",1,4,0,2,0
"250036","img/neutralC/CFD-AM-235-241-N.jpg","0","k","0.937573299976066",1,4,0,2,0
"250036","img/neutralC/CFD-WM-018-002-N.jpg","1","s","1.61996209993958",1,4,0,2,0
"250036","img/neutralC/CFD-MF-318-022-N.jpg","1","s","1.6858161999844",1,4,0,2,0
"250036","img/neutralC/CFD-LM-200-045-N.jpg","0","s","2.10662199999206",1,4,0,2,0
"250036","img/neutralC/CFD-BF-010-001-N.jpg","0","k","1.13550050009508",1,4,0,2,0
"250036","img/neutralC/CFD-WF-007-001-N.jpg","0","s","4.80120809993241",1,4,0,2,0
"250036","img/neutralC/CFD-LM-219-295-N.jpg","1","s","1.86348559998441",1,4,0,2,0
"250036","img/neutralC/CFD-BM-247-240-N.jpg","0","s","1.86188779992517",1,4,0,2,0
"250036","img/neutralC/CFD-WM-006-002-N.jpg","1","s","1.56021840008907",1,4,0,2,0
"250036","img/neutralC/CFD-WF-235-121-N.jpg","0","k","0.975160100031644",1,4,0,2,0
"250036","img/neutralC/CFD-WF-226-095-N.jpg","0","s","1.20207620004658",1,4,0,2,0
"250036","img/neutralC/CFD-MF-335-002-N.jpg","1","s","1.41225819999818",1,4,0,2,0
"250036","img/neutralC/CFD-LM-226-175-N.jpg","0","k","1.24069120001514",1,4,0,2,0
"250036","img/neutralC/CFD-AM-230-150-N.jpg","0","s","2.33096460008528",1,4,0,2,0
"250036","img/neutralC/CFD-AF-237-223-N.jpg","1","s","2.29064969997853",1,4,0,2,0
"250036","img/neutralC/CFD-BM-018-001-N.jpg","1","k","3.21067569998559",1,4,0,2,0
"250036","img/neutralC/CFD-LM-243-075-N.jpg","0","s","0.92984090000391",1,4,0,2,0
"250036","img/neutralC/CFD-BM-001-014-N.jpg","1","s","1.21827940002549",1,4,0,2,0
"250036","img/neutralC/CFD-BF-232-187-N.jpg","1","k","1.6071299999021",1,4,0,2,0
"250036","img/neutralC/CFD-AF-221-147-N.jpg","1","s","1.77461139997467",1,4,0,2,0
"250036","img/neutralC/CFD-LM-238-129-N.jpg","0","s","1.43530760006979",1,4,0,2,0
"250036","img/neutralC/CFD-IM-675-015-N.jpg","1","s","1.01687759999186",1,4,0,2,0
"250036","img/neutralC/CFD-BM-250-170-N.jpg","1","s","1.44220969988964",1,4,0,2,0
"250036","img/neutralC/CFD-WF-005-010-N.jpg","1","s","1.52284119999968",1,5,0,2,0
"250036","img/neutralC/CFD-AF-240-206-N.jpg","0","s","0.964090300025418",1,5,0,2,0
"250036","img/neutralC/CFD-AF-233-190-N.jpg","1","k","1.92227840004489",1,5,0,2,0
"250036","img/neutralC/CFD-BF-201-080-N.jpg","1","k","0.926384999998845",1,5,0,2,0
"250036","img/neutralC/CFD-MF-328-020-N.jpg","1","s","1.0247520999983",1,5,0,2,0
"250036","img/neutralC/CFD-BF-207-004-N.jpg","0","s","1.43694669997785",1,5,0,2,0
"250036","img/neutralC/CFD-IM-743-006-N.jpg","0","k","1.57528090011328",1,5,0,2,0
"250036","img/neutralC/CFD-WF-027-003-N.jpg","1","s","0.895462299929932",1,5,0,2,0
"250036","img/neutralC/CFD-BF-202-109-N.jpg","0","k","2.09892930008937",1,5,0,2,0
"250036","img/neutralC/CFD-WM-021-001-N.jpg","0","s","1.67220600007568",1,5,0,2,0
"250036","img/neutralC/CFD-WF-029-002-N.jpg","1","k","1.421821200056",1,5,0,2,0
"250036","img/neutralC/CFD-IM-684-008-N.jpg","1","k","1.38512360001914",1,5,0,2,0
"250036","img/neutralC/CFD-BF-014-002-N.jpg","1","k","2.5627828000579",1,5,0,2,0
"250036","img/neutralC/CFD-MF-336-016-N.jpg","0","k","1.68224110000301",1,5,0,2,0
"250036","img/neutralC/CFD-LM-244-068-N.jpg","0","k","1.76522130006924",1,5,0,2,0
"250036","img/neutralC/CFD-LF-242-121-N.jpg","0","s","1.50540779996663",1,5,0,2,0
"250036","img/neutralC/CFD-AM-221-184-N.jpg","0","s","0.96644870005548",1,5,0,2,0
"250036","img/neutralC/CFD-AF-205-155-N.jpg","1","s","1.04452900006436",1,5,0,2,0
"250036","img/neutralC/CFD-IM-606-008-N.jpg","0","s","1.51023210003041",1,5,0,2,0
"250036","img/neutralC/CFD-AM-220-134-N.jpg","1","k","2.2788388999179",1,5,0,2,0
"250036","img/neutralC/CFD-LF-211-003-N.jpg","1","s","1.88007389998529",1,5,0,2,0
"250036","img/neutralC/CFD-BM-029-024-N.jpg","0","s","1.43012740008999",1,5,0,2,0
"250036","img/neutralC/CFD-WF-243-148-N.jpg","0","k","1.33456089999527",1,5,0,2,0
"250036","img/neutralC/CFD-BF-041-001-N.jpg","0","k","1.66782629990485",1,5,0,2,0
"250036","img/neutralC/CFD-IM-635-010-N.jpg","1","s","2.59172940009739",1,5,0,2,0
"250036","img/neutralC/CFD-LM-252-076-N.jpg","0","s","1.19523940002546",1,5,0,2,0
"250036","img/neutralC/CFD-LF-239-148-N.jpg","0","k","1.37681489996612",1,5,0,2,0
"250036","img/neutralC/CFD-IF-625-225-N.jpg","1","s","2.65000070002861",1,5,0,2,0
"250036","img/neutralC/CFD-AM-236-090-N.jpg","1","s","1.33854190004058",1,5,0,2,0
"250036","img/neutralC/CFD-BM-027-001-N.jpg","0","s","1.12713379994966",1,5,0,2,0
"250036","img/neutralC/CFD-WM-225-127-N.jpg","0","s","1.26724770001601",1,5,0,2,0
"250036","img/neutralC/CFD-IF-642-295-N.jpg","1","s","1.38347490003798",1,5,0,2,0
"250036","img/neutralC/CFD-MF-340-026-N.jpg","1","k","1.59096060006414",1,5,0,2,0
"250036","img/neutralC/CFD-LF-203-066-N.jpg","1","s","1.45459610002581",1,5,0,2,0
"250036","img/neutralC/CFD-WM-249-239-N.jpg","0","s","1.84541379997972",1,5,0,2,0
"250036","img/neutralC/CFD-BF-217-189-N.jpg","1","s","1.41457629995421",1,5,0,2,0
"250036","img/neutralC/CFD-BM-010-003-N.jpg","1","s","1.34493979997933",1,5,0,2,0
"250036","img/neutralC/CFD-WF-245-084-N.jpg","0","s","1.53073180001229",1,5,0,2,0
"250036","img/neutralC/CFD-BF-237-172-N.jpg","1","k","1.36352060001809",1,5,0,2,0
"250036","img/neutralC/CFD-BF-236-177-N.jpg","0","s","1.17730300000403",1,5,0,2,0
"250036","img/neutralC/CFD-WF-002-004-N.jpg","0","s","1.35429909999948",1,5,0,2,0
"250036","img/neutralC/CFD-WM-221-091-N.jpg","0","k","1.79409410001244",1,5,0,2,0
"250036","img/neutralC/CFD-AF-254-167-N.jpg","1","k","1.99952199996915",1,5,0,2,0
"250036","img/neutralC/CFD-WF-221-005-N.jpg","1","s","1.77638600009959",1,5,0,2,0
"250036","img/neutralC/CFD-WF-207-014-N.jpg","1","s","4.10371710010804",1,5,0,2,0
"250036","img/neutralC/CFD-IM-638-250-1-N.jpg","1","s","0.856902900035493",1,5,0,2,0
"250036","img/neutralC/CFD-WF-224-099-N.jpg","0","k","2.76218429999426",1,5,0,2,0
"250036","img/neutralC/CFD-WF-228-196-N.jpg","1","s","1.08601299999282",1,5,0,2,0
"250036","img/neutralC/CFD-LF-210-220-N.jpg","0","s","2.73613039997872",1,6,0,2,0
"250036","img/neutralC/CFD-MF-302-027-N.jpg","1","k","1.37619630002882",1,6,0,2,0
"250036","img/neutralC/CFD-MF-337-026-N.jpg","1","s","1.62177290010732",1,6,0,2,0
"250036","img/neutralC/CFD-BF-042-026-N.jpg","0","k","1.17012120003346",1,6,0,2,0
"250036","img/neutralC/CFD-BF-253-202-N.jpg","1","k","2.22372249991167",1,6,0,2,0
"250036","img/neutralC/CFD-AM-244-222-N.jpg","1","s","0.77258690004237",1,6,0,2,0
"250036","img/neutralC/CFD-AF-202-122-N.jpg","1","s","1.60584319999907",1,6,0,2,0
"250036","img/neutralC/CFD-LM-214-165-N.jpg","1","k","1.86819479998667",1,6,0,2,0
"250036","img/neutralC/CFD-WM-237-052-N.jpg","1","s","1.37187600007746",1,6,0,2,0
"250036","img/neutralC/CFD-IF-620-218-N.jpg","0","k","1.488804899971",1,6,0,2,0
"250036","img/neutralC/CFD-LF-218-072-N.jpg","1","s","1.13682159991004",1,6,0,2,0
"250036","img/neutralC/CFD-IM-719-221-N.jpg","1","s","0.674041999969631",1,6,0,2,0
"250036","img/neutralC/CFD-IM-646-023-N.jpg","1","k","1.11684930010233",1,6,0,2,0
"250036","img/neutralC/CFD-IF-608-390-N.jpg","0","s","1.56116699997801",1,6,0,2,0
"250036","img/neutralC/CFD-LF-230-203-N.jpg","0","s","2.44568450003862",1,6,0,2,0
"250036","img/neutralC/CFD-WF-222-092-N.jpg","0","k","2.27182869997341",1,6,0,2,0
"250036","img/neutralC/CFD-IM-604-014-N.jpg","1","k","1.35326290002558",1,6,0,2,0
"250036","img/neutralC/CFD-IM-616-214-N.jpg","1","s","1.59554439992644",1,6,0,2,0
"250036","img/neutralC/CFD-BF-214-308-N.jpg","1","s","2.31677779997699",1,6,0,2,0
"250036","img/neutralC/CFD-BM-243-218-N.jpg","1","k","1.93793320003897",1,6,0,2,0
"250036","img/neutralC/CFD-BM-241-235-N.jpg","1","s","1.12316790001933",1,6,0,2,0
"250036","img/neutralC/CFD-LM-215-247-N.jpg","1","s","1.83285040000919",1,6,0,2,0
"250036","img/neutralC/CFD-BF-222-240-N.jpg","0","s","1.53588490001857",1,6,0,2,0
"250036","img/neutralC/CFD-IF-629-234-N.jpg","1","k","1.53572459996212",1,6,0,2,0
"250036","img/neutralC/CFD-LF-238-154-N.jpg","1","k","1.72492980002426",1,6,0,2,0
"250036","img/neutralC/CFD-WM-041-021-N.jpg","1","k","3.57249000004958",1,6,0,2,0
"250036","img/neutralC/CFD-BF-254-201-N.jpg","1","s","1.43602969998028",1,6,0,2,0
"250036","img/neutralC/CFD-LF-247-051-N.jpg","1","k","2.03010730003007",1,6,0,2,0
"250036","img/neutralC/CFD-WF-241-210-N.jpg","1","k","1.48311490006745",1,6,0,2,0
"250036","img/neutralC/CFD-WM-002-009-N.jpg","0","k","1.81180929997936",1,6,0,2,0
"250036","img/neutralC/CFD-LM-233-171-N.jpg","0","k","1.41796079999767",1,6,0,2,0
"250036","img/neutralC/CFD-IM-615-167-N.jpg","1","k","4.38997320004273",1,6,0,2,0
"250036","img/neutralC/CFD-BM-215-155-N.jpg","1","k","0.936123099992983",1,6,0,2,0
"250036","img/neutralC/CFD-WF-018-017-N.jpg","0","k","0.787810100009665",1,6,0,2,0
"250036","img/neutralC/CFD-BM-021-021-N.jpg","1","s","1.16782630002126",1,6,0,2,0
"250036","img/neutralC/CFD-BM-019-002-N.jpg","1","k","1.15158060006797",1,6,0,2,0
"250036","img/neutralC/CFD-IM-637-007-N.jpg","0","k","1.66528339998331",1,6,0,2,0
"250036","img/neutralC/CFD-AF-206-079-N.jpg","0","s","1.43543300009333",1,6,0,2,0
"250036","img/neutralC/CFD-LF-236-221-N.jpg","1","k","2.35281129996292",1,6,0,2,0
"250036","img/neutralC/CFD-WF-223-133-N.jpg","1","k","1.79226220003329",1,6,0,2,0
"250036","img/neutralC/CFD-IM-702-101-N.jpg","0","s","2.0361538999714",1,6,0,2,0
"250036","img/neutralC/CFD-LM-253-075-N.jpg","0","k","1.52997490006965",1,6,0,2,0
"250036","img/neutralC/CFD-IM-697-015-N.jpg","1","k","0.982855799957178",1,6,0,2,0
"250036","img/neutralC/CFD-BM-225-154-N.jpg","0","k","3.04581600008532",1,6,0,2,0
"250036","img/neutralC/CFD-IF-676-017-N.jpg","0","s","0.914363599964418",1,6,0,2,0
"250036","img/neutralC/CFD-MF-343-001-N.jpg","0","k","1.83140149991959",1,6,0,2,0
"250036","img/neutralC/CFD-BF-006-017-N.jpg","0","s","2.34709389996715",1,6,0,2,0
"250036","img/neutralC/CFD-LF-250-169-N.jpg","1","k","1.16491540009156",1,6,0,2,0
"250036","img/neutralC/CFD-IF-729-393-N.jpg","0","s","2.10049520002212",1,7,0,2,0
"250036","img/neutralC/CFD-AM-249-163-N.jpg","0","s","1.46092209999915",1,7,0,2,0
"250036","img/neutralC/CFD-AM-243-212-N.jpg","1","s","0.967135699931532",1,7,0,2,0
"250036","img/neutralC/CFD-IF-732-260-N.jpg","0","k","1.03978069999721",1,7,0,2,0
"250036","img/neutralC/CFD-WF-012-002-N.jpg","0","k","1.63438289996702",1,7,0,2,0
"250036","img/neutralC/CFD-IM-648-337-N.jpg","0","s","0.900857100030407",1,7,0,2,0
"250036","img/neutralC/CFD-IM-709-103-N.jpg","1","k","1.10889899998438",1,7,0,2,0
"250036","img/neutralC/CFD-WM-026-001-N.jpg","0","k","1.2584570000181",1,7,0,2,0
"250036","img/neutralC/CFD-LF-220-120-N.jpg","1","k","1.11855479993392",1,7,0,2,0
"250036","img/neutralC/CFD-BF-029-031-N.jpg","0","k","2.64218629989773",1,7,0,2,0
"250036","img/neutralC/CFD-LF-226-174-N.jpg","1","s","0.930398099939339",1,7,0,2,0
"250036","img/neutralC/CFD-AM-205-153-N.jpg","1","k","1.18526030005887",1,7,0,2,0
"250036","img/neutralC/CFD-IM-727-195-N.jpg","1","k","0.994554999982938",1,7,0,2,0
"250036","img/neutralC/CFD-WM-025-002-N.jpg","1","s","1.6307405999396",1,7,0,2,0
"250036","img/neutralC/CFD-BM-200-046-N.jpg","0","s","1.73589999997057",1,7,0,2,0
"250036","img/neutralC/CFD-MF-327-002-N.jpg","0","s","0.817282099975273",1,7,0,2,0
"250036","img/neutralC/CFD-BF-206-143-N.jpg","0","k","2.61602610000409",1,7,0,2,0
"250036","img/neutralC/CFD-WM-232-070-N.jpg","1","k","3.04045209998731",1,7,0,2,0
"250036","img/neutralC/CFD-BM-211-174-N.jpg","1","k","1.45336140005384",1,7,0,2,0
"250036","img/neutralC/CFD-MF-342-022-N.jpg","1","k","1.13882039999589",1,7,0,2,0
"250036","img/neutralC/CFD-IM-706-002-N.jpg","1","s","0.968897999962792",1,7,0,2,0
"250036","img/neutralC/CFD-MF-303-013-N.jpg","0","s","1.65971699997317",1,7,0,2,0
"250036","img/neutralC/CFD-IM-653-008-N.jpg","1","k","1.09228630003054",1,7,0,2,0
"250036","img/neutralC/CFD-MF-357-002-N.jpg","0","s","1.4396080999868",1,7,0,2,0
"250036","img/neutralC/CFD-IM-685-004-N.jpg","1","k","2.21859810000751",1,7,0,2,0
"250036","img/neutralC/CFD-AF-241-141-N.jpg","1","s","0.961187000037171",1,7,0,2,0
"250036","img/neutralC/CFD-AF-210-050-N.jpg","1","k","1.11257590004243",1,7,0,2,0
"250036","img/neutralC/CFD-WF-210-086-N.jpg","1","s","2.78823419997934",1,7,0,2,0
"250036","img/neutralC/CFD-BF-213-188-N.jpg","0","s","0.991879400098696",1,7,0,2,0
"250036","img/neutralC/CFD-IF-742-103-N.jpg","0","s","1.92104309995193",1,7,0,2,0
"250036","img/neutralC/CFD-LM-225-130-N.jpg","1","k","0.907062100013718",1,7,0,2,0
"250036","img/neutralC/CFD-IF-650-315-N.jpg","1","k","1.18858129996806",1,7,0,2,0
"250036","img/neutralC/CFD-MF-316-001-N.jpg","0","s","1.60627740004566",1,7,0,2,0
"250036","img/neutralC/CFD-BM-248-128-N.jpg","1","s","1.38504109997302",1,7,0,2,0
"250036","img/neutralC/CFD-MF-329-001-N.jpg","1","k","1.2078549999278",1,7,0,2,0
"250036","img/neutralC/CFD-WF-248-129-N.jpg","1","k","1.02046070003416",1,7,0,2,0
"250036","img/neutralC/CFD-BF-224-002-N.jpg","1","k","1.18230440001935",1,7,0,2,0
"250036","img/neutralC/CFD-BM-204-003-N.jpg","0","s","2.01371040008962",1,7,0,2,0
"250036","img/neutralC/CFD-MF-312-002-N.jpg","1","k","1.27387060003821",1,7,0,2,0
"250036","img/neutralC/CFD-WF-009-001-N.jpg","0","s","1.29191760008689",1,7,0,2,0
"250036","img/neutralC/CFD-AM-201-076-N.jpg","1","k","1.23055369989015",1,7,0,2,0
"250036","img/neutralC/CFD-IM-721-341-N.jpg","1","k","2.6651344000129",1,7,0,2,0
"250036","img/neutralC/CFD-BM-212-117-N.jpg","0","s","0.847285099909641",1,7,0,2,0
"250036","img/neutralC/CFD-BM-033-003-N.jpg","1","s","0.768310400075279",1,7,0,2,0
"250036","img/neutralC/CFD-LF-205-100-N.jpg","1","s","1.04359650006518",1,7,0,2,0
"250036","img/neutralC/CFD-WM-040-022-N.jpg","0","s","1.49026320001576",1,7,0,2,0
"250036","img/neutralC/CFD-WM-257-161-N.jpg","1","k","2.72834529995453",1,7,0,2,0
"250036","img/neutralC/CFD-WF-214-122-N.jpg","1","s","1.36078890005592",1,7,0,2,0
"250036","img/neutralC/CFD-AF-231-357-N.jpg","1","s","0.966800299938768",1,8,0,2,0
"250036","img/neutralC/CFD-LM-201-057-N.jpg","0","s","1.10175650008023",1,8,0,2,0
"250036","img/neutralC/CFD-IF-636-011-N.jpg","1","s","2.78213880001567",1,8,0,2,0
"250036","img/neutralC/CFD-BM-041-035-N.jpg","1","s","1.5928741999669",1,8,0,2,0
"250036","img/neutralC/CFD-IM-728-041-N.jpg","1","k","1.16800780000631",1,8,0,2,0
"250036","img/neutralC/CFD-BM-231-155-N.jpg","0","k","1.0118731999537",1,8,0,2,0
"250036","img/neutralC/CFD-MM-324-069-N.jpg","0","s","1.02665130002424",1,8,0,2,0
"250036","img/neutralC/CFD-IM-686-097-N.jpg","1","s","1.70289730001241",1,8,0,2,0
"250036","img/neutralC/CFD-BF-040-003-N.jpg","0","s","1.36413779994473",1,8,0,2,0
"250036","img/neutralC/CFD-BF-011-002-N.jpg","0","s","2.18727120000403",1,8,0,2,0
"250036","img/neutralC/CFD-BF-247-179-N.jpg","1","s","1.31195140001364",1,8,0,2,0
"250036","img/neutralC/CFD-WM-201-063-N.jpg","0","k","1.18495349993464",1,8,0,2,0
"250036","img/neutralC/CFD-IF-619-197-N.jpg","1","s","0.833031499991193",1,8,0,2,0
"250036","img/neutralC/CFD-WM-235-147-N.jpg","0","s","1.2063494999893",1,8,0,2,0
"250036","img/neutralC/CFD-WM-013-001-N.jpg","0","s","0.856959600001574",1,8,0,2,0
"250036","img/neutralC/CFD-IF-626-375-N.jpg","1","s","1.63066390005406",1,8,0,2,0
"250036","img/neutralC/CFD-AM-215-120-N.jpg","1","s","1.002632800024",1,8,0,2,0
"250036","img/neutralC/CFD-LF-201-035-N.jpg","1","k","1.25307059998158",1,8,0,2,0
"250036","img/neutralC/CFD-IM-678-482-N.jpg","1","s","0.906434200005606",1,8,0,2,0
"250036","img/neutralC/CFD-LM-228-188-N.jpg","0","s","1.65555519994814",1,8,0,2,0
"250036","img/neutralC/CFD-LF-216-121-N.jpg","1","s","1.03593340003863",1,8,0,2,0
"250036","img/neutralC/CFD-BF-228-212-N.jpg","0","k","1.59963159996551",1,8,0,2,0
"250036","img/neutralC/CFD-MF-352-054-N.jpg","1","s","1.64302309998311",1,8,0,2,0
"250036","img/neutralC/CFD-BM-028-002-N.jpg","1","s","1.07887849991675",1,8,0,2,0
"250036","img/neutralC/CFD-BF-229-179-N.jpg","1","s","1.3008140999591",1,8,0,2,0
"250036","img/neutralC/CFD-BF-235-168-N.jpg","0","k","1.14095619996078",1,8,0,2,0
"250036","img/neutralC/CFD-MM-317-061-N.jpg","1","s","1.76634259999264",1,8,0,2,0
"250036","img/neutralC/CFD-BF-036-027-N.jpg","1","s","1.41855030006263",1,8,0,2,0
"250036","img/neutralC/CFD-WM-011-002-N.jpg","0","k","0.958559000049718",1,8,0,2,0
"250036","img/neutralC/CFD-BM-205-001-N.jpg","0","k","1.59524890000466",1,8,0,2,0
"250036","img/neutralC/CFD-WF-022-017-N.jpg","1","s","1.10300359991379",1,8,0,2,0
"250036","img/neutralC/CFD-AM-217-085-N.jpg","0","k","1.77214190002996",1,8,0,2,0
"250036","img/neutralC/CFD-WF-212-050-N.jpg","0","k","1.11788140004501",1,8,0,2,0
"250036","img/neutralC/CFD-AF-234-208-N.jpg","0","s","1.32452850008849",1,8,0,2,0
"250036","img/neutralC/CFD-WF-017-003-N.jpg","1","k","0.983144900063053",1,8,0,2,0
"250036","img/neutralC/CFD-IM-645-001-N.jpg","1","k","1.12344530003611",1,8,0,2,0
"250036","img/neutralC/CFD-LF-215-157-N.jpg","0","s","1.2144227999961",1,8,0,2,0
"250036","img/neutralC/CFD-IF-623-129-N.jpg","1","k","1.29179269995075",1,8,0,2,0
"250036","img/neutralC/CFD-BF-244-231-N.jpg","1","s","2.36480940005276",1,8,0,2,0
"250036","img/neutralC/CFD-WM-218-074-N.jpg","0","s","0.914409299963154",1,8,0,2,0
"250036","img/neutralC/CFD-WF-217-085-N.jpg","1","s","1.03979279997293",1,8,0,2,0
"250036","img/neutralC/CFD-MF-359-019-N.jpg","0","k","0.885766600025818",1,8,0,2,0
"250036","img/neutralC/CFD-IM-726-248-N.jpg","1","k","1.27780290006194",1,8,0,2,0
"250036","img/neutralC/CFD-BF-023-010-N.jpg","0","s","1.0244551000651",1,8,0,2,0
"250036","img/neutralC/CFD-LM-240-013-N.jpg","0","s","1.15109060006216",1,8,0,2,0
"250036","img/neutralC/CFD-BF-204-189-N.jpg","1","s","1.12592919997405",1,8,0,2,0
"250036","img/neutralC/CFD-MF-333-012-N.jpg","1","k","2.62550080008805",1,8,0,2,0
"250036","img/neutralC/CFD-BM-043-071-N.jpg","1","k","1.21273310005199",1,8,0,2,0
