"participant_id","current_trial_face","pre_trial_face","post_trial_face","current_trial_accuracy","pre_trial_accuracy","post_trial_accuracy","current_trial_congruency","pre_trial_congruency","post_trial_congruency","current_trial_rt","pre_trial_rt","post_trial_rt","current_trial_responded","pre_trial_responded","post_trial_responded","current_trial_legitResponse","pre_trial_legitResponse","post_trial_legitResponse","current_trial_resp_nums","pre_trial_resp_nums","post_trial_resp_nums"
"250032","img/neutralC/CFD-LF-206-078-N.jpg",NA,"img/neutralC/CFD-WF-244-163-N.jpg","1",NA,"1","1",NA,"1","0.537145099951886",NA,"0.545109399943613","1",NA,"1","1",NA,"1","1",NA,"1"
"250032","img/neutralC/CFD-WF-244-163-N.jpg","img/neutralC/CFD-LF-206-078-N.jpg","img/neutralC/CFD-IF-660-464-N.jpg","1","1","1","1","1","0","0.545109399943613","0.537145099951886","0.466368800029159","1","1","1","1","1","1","1","1","1"
"250032","img/neutralC/CFD-IF-660-464-N.jpg","img/neutralC/CFD-WF-244-163-N.jpg","img/neutralC/CFD-WM-015-002-N.jpg","1","1","1","0","1","0","0.466368800029159","0.545109399943613","0.579833199968562","1","1","1","1","1","1","1","1","1"
"250032","img/neutralC/CFD-WM-015-002-N.jpg","img/neutralC/CFD-IF-660-464-N.jpg","img/neutralC/CFD-AF-253-130-N.jpg","1","1","1","0","0","1","0.579833199968562","0.466368800029159","0.438575099920854","1","1","1","1","1","1","1","1","1"
"250032","img/neutralC/CFD-AF-253-130-N.jpg","img/neutralC/CFD-WM-015-002-N.jpg","img/neutralC/CFD-WF-222-092-N.jpg","1","1","1","1","0","1","0.438575099920854","0.579833199968562","0.444364800001495","1","1","1","1","1","1","1","1","1"
"250032","img/neutralC/CFD-WF-222-092-N.jpg","img/neutralC/CFD-AF-253-130-N.jpg","img/neutralC/CFD-IF-626-375-N.jpg","1","1","1","1","1","0","0.444364800001495","0.438575099920854","0.41484019998461","1","1","1","1","1","1","1","1","1"
"250032","img/neutralC/CFD-IF-626-375-N.jpg","img/neutralC/CFD-WF-222-092-N.jpg","img/neutralC/CFD-IM-680-369-N.jpg","1","1","1","0","1","1","0.41484019998461","0.444364800001495","0.63704850000795","1","1","1","1","1","1","1","1","1"
"250032","img/neutralC/CFD-IM-680-369-N.jpg","img/neutralC/CFD-IF-626-375-N.jpg","img/neutralC/CFD-MF-357-002-N.jpg","1","1","1","1","0","0","0.63704850000795","0.41484019998461","0.389172499999404","1","1","1","1","1","1","1","1","1"
"250032","img/neutralC/CFD-MF-357-002-N.jpg","img/neutralC/CFD-IM-680-369-N.jpg","img/neutralC/CFD-MF-316-001-N.jpg","1","1","1","0","1","0","0.389172499999404","0.63704850000795","0.493652099976316","1","1","1","1","1","1","1","1","1"
"250032","img/neutralC/CFD-MF-316-001-N.jpg","img/neutralC/CFD-MF-357-002-N.jpg","img/neutralC/CFD-MM-324-069-N.jpg","1","1","1","0","0","1","0.493652099976316","0.389172499999404","0.51124870008789","1","1","1","1","1","1","1","1","1"
"250032","img/neutralC/CFD-MM-324-069-N.jpg","img/neutralC/CFD-MF-316-001-N.jpg","img/neutralC/CFD-BM-001-014-N.jpg","1","1","1","1","0","0","0.51124870008789","0.493652099976316","0.641493200091645","1","1","1","1","1","1","1","1","1"
"250032","img/neutralC/CFD-BM-001-014-N.jpg","img/neutralC/CFD-MM-324-069-N.jpg","img/neutralC/CFD-BF-237-172-N.jpg","1","1","1","0","1","1","0.641493200091645","0.51124870008789","0.42733649990987","1","1","1","1","1","1","1","1","1"
"250032","img/neutralC/CFD-BF-237-172-N.jpg","img/neutralC/CFD-BM-001-014-N.jpg","img/neutralC/CFD-MF-343-001-N.jpg","1","1","1","1","0","1","0.42733649990987","0.641493200091645","0.408754299976863","1","1","1","1","1","1","1","1","1"
"250032","img/neutralC/CFD-MF-343-001-N.jpg","img/neutralC/CFD-BF-237-172-N.jpg","img/neutralC/CFD-WF-007-001-N.jpg","1","1","1","1","1","1","0.408754299976863","0.42733649990987","0.352336299954914","1","1","1","1","1","1","1","1","1"
"250032","img/neutralC/CFD-WF-007-001-N.jpg","img/neutralC/CFD-MF-343-001-N.jpg","img/neutralC/CFD-LF-255-088-N.jpg","1","1","1","1","1","0","0.352336299954914","0.408754299976863","0.492920799995772","1","1","1","1","1","1","1","1","1"
"250032","img/neutralC/CFD-LF-255-088-N.jpg","img/neutralC/CFD-WF-007-001-N.jpg","img/neutralC/CFD-MF-305-014-N.jpg","1","1","1","0","1","1","0.492920799995772","0.352336299954914","0.487802800023928","1","1","1","1","1","1","1","1","1"
"250032","img/neutralC/CFD-MF-305-014-N.jpg","img/neutralC/CFD-LF-255-088-N.jpg","img/neutralC/CFD-AF-233-190-N.jpg","1","1","1","1","0","0","0.487802800023928","0.492920799995772","0.737765099969693","1","1","1","1","1","1","1","1","1"
"250032","img/neutralC/CFD-AF-233-190-N.jpg","img/neutralC/CFD-MF-305-014-N.jpg","img/neutralC/CFD-WF-030-002-N.jpg","1","1","1","0","1","0","0.737765099969693","0.487802800023928","0.486536599928513","1","1","1","1","1","1","1","1","1"
"250032","img/neutralC/CFD-WF-030-002-N.jpg","img/neutralC/CFD-AF-233-190-N.jpg","img/neutralC/CFD-MF-303-013-N.jpg","1","1","1","0","0","0","0.486536599928513","0.737765099969693","0.45280160009861","1","1","1","1","1","1","1","1","1"
"250032","img/neutralC/CFD-MF-303-013-N.jpg","img/neutralC/CFD-WF-030-002-N.jpg","img/neutralC/CFD-IM-667-369-N.jpg","1","1","1","0","0","0","0.45280160009861","0.486536599928513","0.563608800061047","1","1","1","1","1","1","1","1","1"
"250032","img/neutralC/CFD-IM-667-369-N.jpg","img/neutralC/CFD-MF-303-013-N.jpg","img/neutralC/CFD-IM-702-101-N.jpg","1","1","0","0","0","1","0.563608800061047","0.45280160009861","0.690585599979386","1","1","1","1","1","1","1","1","1"
"250032","img/neutralC/CFD-IM-702-101-N.jpg","img/neutralC/CFD-IM-667-369-N.jpg","img/neutralC/CFD-LM-225-130-N.jpg","0","1","1","1","0","0","0.690585599979386","0.563608800061047","0.511451800004579","1","1","1","1","1","1","1","1","1"
"250032","img/neutralC/CFD-LM-225-130-N.jpg","img/neutralC/CFD-IM-702-101-N.jpg","img/neutralC/CFD-IM-664-651-N.jpg","1","0","1","0","1","1","0.511451800004579","0.690585599979386","0.391803300008178","1","1","1","1","1","1","1","1","1"
"250032","img/neutralC/CFD-IM-664-651-N.jpg","img/neutralC/CFD-LM-225-130-N.jpg","img/neutralC/CFD-WM-218-074-N.jpg","1","1","1","1","0","1","0.391803300008178","0.511451800004579","0.386395399924368","1","1","1","1","1","1","1","1","1"
"250032","img/neutralC/CFD-WM-218-074-N.jpg","img/neutralC/CFD-IM-664-651-N.jpg","img/neutralC/CFD-BF-014-002-N.jpg","1","1","1","1","1","1","0.386395399924368","0.391803300008178","0.385401800042018","1","1","1","1","1","1","1","1","1"
"250032","img/neutralC/CFD-BF-014-002-N.jpg","img/neutralC/CFD-WM-218-074-N.jpg","img/neutralC/CFD-BM-217-082-N.jpg","1","1","1","1","1","0","0.385401800042018","0.386395399924368","0.487805999931879","1","1","1","1","1","1","1","1","1"
"250032","img/neutralC/CFD-BM-217-082-N.jpg","img/neutralC/CFD-BF-014-002-N.jpg","img/neutralC/CFD-IM-706-002-N.jpg","1","1","1","0","1","0","0.487805999931879","0.385401800042018","0.549508200027049","1","1","1","1","1","1","1","1","1"
"250032","img/neutralC/CFD-IM-706-002-N.jpg","img/neutralC/CFD-BM-217-082-N.jpg","img/neutralC/CFD-WM-209-038-N.jpg","1","1","1","0","0","0","0.549508200027049","0.487805999931879","0.51730199996382","1","1","1","1","1","1","1","1","1"
"250032","img/neutralC/CFD-WM-209-038-N.jpg","img/neutralC/CFD-IM-706-002-N.jpg","img/neutralC/CFD-AM-220-134-N.jpg","1","1","0","0","0","0","0.51730199996382","0.549508200027049","0.608938499935903","1","1","1","1","1","1","1","1","2"
"250032","img/neutralC/CFD-AM-220-134-N.jpg","img/neutralC/CFD-WM-209-038-N.jpg","img/neutralC/CFD-LM-200-045-N.jpg","0","1","1","0","0","1","0.608938499935903","0.51730199996382","0.54765199997928","1","1","1","1","1","1","2","1","1"
"250032","img/neutralC/CFD-LM-200-045-N.jpg","img/neutralC/CFD-AM-220-134-N.jpg","img/neutralC/CFD-BM-250-170-N.jpg","1","0","1","1","0","1","0.54765199997928","0.608938499935903","0.525910899974406","1","1","1","1","1","1","1","2","1"
"250032","img/neutralC/CFD-BM-250-170-N.jpg","img/neutralC/CFD-LM-200-045-N.jpg",NA,"1","1",NA,"1","1",NA,"0.525910899974406","0.54765199997928",NA,"1","1",NA,"1","1",NA,"1","1",NA
"250032","img/neutralC/CFD-AM-201-076-N.jpg",NA,"img/neutralC/CFD-BM-033-003-N.jpg","1",NA,"1","1",NA,"0","0.644958200049587",NA,"0.528904600068927","1",NA,"1","1",NA,"1","1",NA,"1"
"250032","img/neutralC/CFD-BM-033-003-N.jpg","img/neutralC/CFD-AM-201-076-N.jpg","img/neutralC/CFD-LF-203-066-N.jpg","1","1","1","0","1","0","0.528904600068927","0.644958200049587","0.470970500027761","1","1","1","1","1","1","1","1","1"
"250032","img/neutralC/CFD-LF-203-066-N.jpg","img/neutralC/CFD-BM-033-003-N.jpg","img/neutralC/CFD-IF-634-382-N.jpg","1","1","1","0","0","1","0.470970500027761","0.528904600068927","0.382638599956408","1","1","1","1","1","1","1","1","1"
"250032","img/neutralC/CFD-IF-634-382-N.jpg","img/neutralC/CFD-LF-203-066-N.jpg","img/neutralC/CFD-BF-039-031-N.jpg","1","1","1","1","0","1","0.382638599956408","0.470970500027761","0.427771699964069","1","1","1","1","1","1","1","1","1"
"250032","img/neutralC/CFD-BF-039-031-N.jpg","img/neutralC/CFD-IF-634-382-N.jpg","img/neutralC/CFD-AM-212-050-N.jpg","1","1","1","1","1","1","0.427771699964069","0.382638599956408","0.431940299924463","1","1","1","1","1","1","1","1","1"
"250032","img/neutralC/CFD-AM-212-050-N.jpg","img/neutralC/CFD-BF-039-031-N.jpg","img/neutralC/CFD-WM-021-001-N.jpg","1","1","1","1","1","1","0.431940299924463","0.427771699964069","0.346496500074863","1","1","1","1","1","1","1","1","1"
"250032","img/neutralC/CFD-WM-021-001-N.jpg","img/neutralC/CFD-AM-212-050-N.jpg","img/neutralC/CFD-IM-684-008-N.jpg","1","1","1","1","1","1","0.346496500074863","0.431940299924463","0.50544760003686","1","1","1","1","1","1","1","1","1"
"250032","img/neutralC/CFD-IM-684-008-N.jpg","img/neutralC/CFD-WM-021-001-N.jpg","img/neutralC/CFD-BM-239-136-N.jpg","1","1","1","1","1","1","0.50544760003686","0.346496500074863","0.460553299984895","1","1","1","1","1","1","1","1","1"
"250032","img/neutralC/CFD-BM-239-136-N.jpg","img/neutralC/CFD-IM-684-008-N.jpg","img/neutralC/CFD-BF-213-188-N.jpg","1","1","1","1","1","1","0.460553299984895","0.50544760003686","0.407439000089653","1","1","1","1","1","1","1","1","1"
"250032","img/neutralC/CFD-BF-213-188-N.jpg","img/neutralC/CFD-BM-239-136-N.jpg","img/neutralC/CFD-BF-253-202-N.jpg","1","1","1","1","1","0","0.407439000089653","0.460553299984895","0.517120300093666","1","1","1","1","1","1","1","1","1"
"250032","img/neutralC/CFD-BF-253-202-N.jpg","img/neutralC/CFD-BF-213-188-N.jpg","img/neutralC/CFD-LF-205-100-N.jpg","1","1","1","0","1","1","0.517120300093666","0.407439000089653","0.414107499993406","1","1","1","1","1","1","1","1","1"
"250032","img/neutralC/CFD-LF-205-100-N.jpg","img/neutralC/CFD-BF-253-202-N.jpg","img/neutralC/CFD-WM-041-021-N.jpg","1","1","1","1","0","0","0.414107499993406","0.517120300093666","0.653804000001401","1","1","1","1","1","1","1","1","1"
"250032","img/neutralC/CFD-WM-041-021-N.jpg","img/neutralC/CFD-LF-205-100-N.jpg","img/neutralC/CFD-BF-205-141-N.jpg","1","1","1","0","1","0","0.653804000001401","0.414107499993406","0.498844299931079","1","1","1","1","1","1","1","1","1"
"250032","img/neutralC/CFD-BF-205-141-N.jpg","img/neutralC/CFD-WM-041-021-N.jpg","img/neutralC/CFD-IM-651-308-N.jpg","1","1","1","0","0","0","0.498844299931079","0.653804000001401","0.522624299977906","1","1","1","1","1","1","1","1","1"
"250032","img/neutralC/CFD-IM-651-308-N.jpg","img/neutralC/CFD-BF-205-141-N.jpg","img/neutralC/CFD-WF-250-167-N.jpg","1","1","1","0","0","1","0.522624299977906","0.498844299931079","0.619064699974842","1","1","1","1","1","1","1","1","1"
"250032","img/neutralC/CFD-WF-250-167-N.jpg","img/neutralC/CFD-IM-651-308-N.jpg","img/neutralC/CFD-WM-011-002-N.jpg","1","1","1","1","0","0","0.619064699974842","0.522624299977906","0.50279080006294","1","1","1","1","1","1","1","1","1"
"250032","img/neutralC/CFD-WM-011-002-N.jpg","img/neutralC/CFD-WF-250-167-N.jpg","img/neutralC/CFD-BM-041-035-N.jpg","1","1","1","0","1","0","0.50279080006294","0.619064699974842","0.70933859993238","1","1","1","1","1","1","1","1","1"
"250032","img/neutralC/CFD-BM-041-035-N.jpg","img/neutralC/CFD-WM-011-002-N.jpg","img/neutralC/CFD-AF-231-357-N.jpg","1","1","1","0","0","1","0.70933859993238","0.50279080006294","0.407682900084183","1","1","1","1","1","1","1","1","1"
"250032","img/neutralC/CFD-AF-231-357-N.jpg","img/neutralC/CFD-BM-041-035-N.jpg","img/neutralC/CFD-MF-337-026-N.jpg","1","1","1","1","0","1","0.407682900084183","0.70933859993238","0.368758899974637","1","1","1","1","1","1","1","1","1"
"250032","img/neutralC/CFD-MF-337-026-N.jpg","img/neutralC/CFD-AF-231-357-N.jpg","img/neutralC/CFD-WF-213-031-N.jpg","1","1","1","1","1","1","0.368758899974637","0.407682900084183","0.616767099942081","1","1","1","1","1","1","1","1","1"
"250032","img/neutralC/CFD-WF-213-031-N.jpg","img/neutralC/CFD-MF-337-026-N.jpg","img/neutralC/CFD-BM-019-002-N.jpg","1","1","1","1","1","0","0.616767099942081","0.368758899974637","0.457157800090499","1","1","1","1","1","1","1","1","1"
"250032","img/neutralC/CFD-BM-019-002-N.jpg","img/neutralC/CFD-WF-213-031-N.jpg","img/neutralC/CFD-LF-214-090-N.jpg","1","1","1","0","1","0","0.457157800090499","0.616767099942081","0.526448799995705","1","1","1","1","1","1","1","1","1"
"250032","img/neutralC/CFD-LF-214-090-N.jpg","img/neutralC/CFD-BM-019-002-N.jpg","img/neutralC/CFD-LF-230-203-N.jpg","1","1","1","0","0","0","0.526448799995705","0.457157800090499","0.457255700021051","1","1","1","1","1","1","1","1","1"
"250032","img/neutralC/CFD-LF-230-203-N.jpg","img/neutralC/CFD-LF-214-090-N.jpg","img/neutralC/CFD-MM-316-156-N.jpg","1","1","1","0","0","1","0.457255700021051","0.526448799995705","0.462866800022312","1","1","1","1","1","1","1","1","1"
"250032","img/neutralC/CFD-MM-316-156-N.jpg","img/neutralC/CFD-LF-230-203-N.jpg","img/neutralC/CFD-LM-215-247-N.jpg","1","1","1","1","0","0","0.462866800022312","0.457255700021051","0.463608700083569","1","1","1","1","1","1","1","1","1"
"250032","img/neutralC/CFD-LM-215-247-N.jpg","img/neutralC/CFD-MM-316-156-N.jpg","img/neutralC/CFD-LF-224-176-N.jpg","1","1","1","0","1","0","0.463608700083569","0.462866800022312","0.450397299951874","1","1","1","1","1","1","1","1","1"
"250032","img/neutralC/CFD-LF-224-176-N.jpg","img/neutralC/CFD-LM-215-247-N.jpg","img/neutralC/CFD-IF-710-016-N.jpg","1","1","1","0","0","0","0.450397299951874","0.463608700083569","0.496291500050575","1","1","1","1","1","1","1","1","1"
"250032","img/neutralC/CFD-IF-710-016-N.jpg","img/neutralC/CFD-LF-224-176-N.jpg","img/neutralC/CFD-IF-693-172-N.jpg","1","1","1","0","0","0","0.496291500050575","0.450397299951874","0.531357100000605","1","1","1","1","1","1","1","1","1"
"250032","img/neutralC/CFD-IF-693-172-N.jpg","img/neutralC/CFD-IF-710-016-N.jpg","img/neutralC/CFD-LM-218-183-N.jpg","1","1","1","0","0","1","0.531357100000605","0.496291500050575","0.715096400002949","1","1","1","1","1","1","1","1","1"
"250032","img/neutralC/CFD-LM-218-183-N.jpg","img/neutralC/CFD-IF-693-172-N.jpg","img/neutralC/CFD-WF-224-099-N.jpg","1","1","1","1","0","0","0.715096400002949","0.531357100000605","0.525672099902295","1","1","1","1","1","1","1","1","1"
"250032","img/neutralC/CFD-WF-224-099-N.jpg","img/neutralC/CFD-LM-218-183-N.jpg","img/neutralC/CFD-BF-029-031-N.jpg","1","1","1","0","1","1","0.525672099902295","0.715096400002949","0.436983600025997","1","1","1","1","1","1","1","1","1"
"250032","img/neutralC/CFD-BF-029-031-N.jpg","img/neutralC/CFD-WF-224-099-N.jpg",NA,"1","1",NA,"1","0",NA,"0.436983600025997","0.525672099902295",NA,"1","1",NA,"1","1",NA,"1","1",NA
"250032","img/neutralC/CFD-IM-674-281-N.jpg",NA,"img/neutralC/CFD-BM-247-240-N.jpg","1",NA,"0","1",NA,"0","0.580720799975097",NA,"0.467684000032023","1",NA,"1","1",NA,"1","1",NA,"2"
"250032","img/neutralC/CFD-BM-247-240-N.jpg","img/neutralC/CFD-IM-674-281-N.jpg","img/neutralC/CFD-LF-236-221-N.jpg","0","1","1","0","1","1","0.467684000032023","0.580720799975097","0.461836399976164","1","1","1","1","1","1","2","1","1"
"250032","img/neutralC/CFD-LF-236-221-N.jpg","img/neutralC/CFD-BM-247-240-N.jpg","img/neutralC/CFD-WF-026-002-N.jpg","1","0","1","1","0","1","0.461836399976164","0.467684000032023","0.385018500033766","1","1","1","1","1","1","1","2","1"
"250032","img/neutralC/CFD-WF-026-002-N.jpg","img/neutralC/CFD-LF-236-221-N.jpg","img/neutralC/CFD-WM-002-009-N.jpg","1","1","1","1","1","0","0.385018500033766","0.461836399976164","0.459768999950029","1","1","1","1","1","1","1","1","1"
"250032","img/neutralC/CFD-WM-002-009-N.jpg","img/neutralC/CFD-WF-026-002-N.jpg","img/neutralC/CFD-IF-718-001-N.jpg","1","1","1","0","1","1","0.459768999950029","0.385018500033766","0.44746519997716","1","1","1","1","1","1","1","1","1"
"250032","img/neutralC/CFD-IF-718-001-N.jpg","img/neutralC/CFD-WM-002-009-N.jpg","img/neutralC/CFD-WM-225-127-N.jpg","1","1","1","1","0","0","0.44746519997716","0.459768999950029","0.540576200000942","1","1","1","1","1","1","1","1","1"
"250032","img/neutralC/CFD-WM-225-127-N.jpg","img/neutralC/CFD-IF-718-001-N.jpg","img/neutralC/CFD-BF-204-189-N.jpg","1","1","1","0","1","1","0.540576200000942","0.44746519997716","0.445114100002684","1","1","1","1","1","1","1","1","1"
"250032","img/neutralC/CFD-BF-204-189-N.jpg","img/neutralC/CFD-WM-225-127-N.jpg","img/neutralC/CFD-BF-023-010-N.jpg","1","1","1","1","0","1","0.445114100002684","0.540576200000942","0.417468099971302","1","1","1","1","1","1","1","1","1"
"250032","img/neutralC/CFD-BF-023-010-N.jpg","img/neutralC/CFD-BF-204-189-N.jpg","img/neutralC/CFD-WF-002-004-N.jpg","1","1","1","1","1","0","0.417468099971302","0.445114100002684","0.572184400050901","1","1","1","1","1","1","1","1","1"
"250032","img/neutralC/CFD-WF-002-004-N.jpg","img/neutralC/CFD-BF-023-010-N.jpg","img/neutralC/CFD-IM-728-041-N.jpg","1","1","1","0","1","0","0.572184400050901","0.417468099971302","0.467019899981096","1","1","1","1","1","1","1","1","1"
"250032","img/neutralC/CFD-IM-728-041-N.jpg","img/neutralC/CFD-WF-002-004-N.jpg","img/neutralC/CFD-WM-257-161-N.jpg","1","1","1","0","0","1","0.467019899981096","0.572184400050901","0.487738700001501","1","1","1","1","1","1","1","1","1"
"250032","img/neutralC/CFD-WM-257-161-N.jpg","img/neutralC/CFD-IM-728-041-N.jpg","img/neutralC/CFD-LM-252-076-N.jpg","1","1","1","1","0","1","0.487738700001501","0.467019899981096","0.338181199971586","1","1","1","1","1","1","1","1","1"
"250032","img/neutralC/CFD-LM-252-076-N.jpg","img/neutralC/CFD-WM-257-161-N.jpg","img/neutralC/CFD-IM-639-263-N.jpg","1","1","1","1","1","1","0.338181199971586","0.487738700001501","0.457360500004143","1","1","1","1","1","1","1","1","1"
"250032","img/neutralC/CFD-IM-639-263-N.jpg","img/neutralC/CFD-LM-252-076-N.jpg","img/neutralC/CFD-BF-255-140-N.jpg","1","1","1","1","1","1","0.457360500004143","0.338181199971586","0.380369499907829","1","1","1","1","1","1","1","1","1"
"250032","img/neutralC/CFD-BF-255-140-N.jpg","img/neutralC/CFD-IM-639-263-N.jpg","img/neutralC/CFD-AM-215-120-N.jpg","1","1","1","1","1","1","0.380369499907829","0.457360500004143","0.363816000055522","1","1","1","1","1","1","1","1","1"
"250032","img/neutralC/CFD-AM-215-120-N.jpg","img/neutralC/CFD-BF-255-140-N.jpg","img/neutralC/CFD-BF-028-001-N.jpg","1","1","1","1","1","1","0.363816000055522","0.380369499907829","0.45755689998623","1","1","1","1","1","1","1","1","1"
"250032","img/neutralC/CFD-BF-028-001-N.jpg","img/neutralC/CFD-AM-215-120-N.jpg","img/neutralC/CFD-WM-040-022-N.jpg","1","1","1","1","1","0","0.45755689998623","0.363816000055522","0.450893400004134","1","1","1","1","1","1","1","1","1"
"250032","img/neutralC/CFD-WM-040-022-N.jpg","img/neutralC/CFD-BF-028-001-N.jpg","img/neutralC/CFD-MM-319-052-N.jpg","1","1","1","0","1","1","0.450893400004134","0.45755689998623","0.512000299990177","1","1","1","1","1","1","1","1","1"
"250032","img/neutralC/CFD-MM-319-052-N.jpg","img/neutralC/CFD-WM-040-022-N.jpg","img/neutralC/CFD-BM-027-001-N.jpg","1","1","1","1","0","0","0.512000299990177","0.450893400004134","0.530121099902317","1","1","1","1","1","1","1","1","1"
"250032","img/neutralC/CFD-BM-027-001-N.jpg","img/neutralC/CFD-MM-319-052-N.jpg","img/neutralC/CFD-AM-235-241-N.jpg","1","1","1","0","1","0","0.530121099902317","0.512000299990177","0.464773599989712","1","1","1","1","1","1","1","1","1"
"250032","img/neutralC/CFD-AM-235-241-N.jpg","img/neutralC/CFD-BM-027-001-N.jpg","img/neutralC/CFD-BM-211-174-N.jpg","1","1","1","0","0","0","0.464773599989712","0.530121099902317","0.814445999916643","1","1","1","1","1","1","1","1","1"
"250032","img/neutralC/CFD-BM-211-174-N.jpg","img/neutralC/CFD-AM-235-241-N.jpg","img/neutralC/CFD-WM-038-003-N.jpg","1","1","1","0","0","0","0.814445999916643","0.464773599989712","0.576411999994889","1","1","1","1","1","1","1","1","1"
"250032","img/neutralC/CFD-WM-038-003-N.jpg","img/neutralC/CFD-BM-211-174-N.jpg","img/neutralC/CFD-BF-201-080-N.jpg","1","1","1","0","0","1","0.576411999994889","0.814445999916643","0.510585100040771","1","1","1","1","1","1","1","1","1"
"250032","img/neutralC/CFD-BF-201-080-N.jpg","img/neutralC/CFD-WM-038-003-N.jpg","img/neutralC/CFD-BF-003-003-N.jpg","1","1","1","1","0","0","0.510585100040771","0.576411999994889","0.701482600066811","1","1","1","1","1","1","1","1","1"
"250032","img/neutralC/CFD-BF-003-003-N.jpg","img/neutralC/CFD-BF-201-080-N.jpg","img/neutralC/CFD-WF-022-017-N.jpg","1","1","1","0","1","0","0.701482600066811","0.510585100040771","0.517088699969463","1","1","1","1","1","1","1","1","1"
"250032","img/neutralC/CFD-WF-022-017-N.jpg","img/neutralC/CFD-BF-003-003-N.jpg","img/neutralC/CFD-AM-217-085-N.jpg","1","1","1","0","0","0","0.517088699969463","0.701482600066811","0.527408999972977","1","1","1","1","1","1","1","1","1"
"250032","img/neutralC/CFD-AM-217-085-N.jpg","img/neutralC/CFD-WF-022-017-N.jpg","img/neutralC/CFD-BM-029-024-N.jpg","1","1","1","0","0","1","0.527408999972977","0.517088699969463","0.463817899930291","1","1","1","1","1","1","1","1","1"
"250032","img/neutralC/CFD-BM-029-024-N.jpg","img/neutralC/CFD-AM-217-085-N.jpg","img/neutralC/CFD-LF-216-121-N.jpg","1","1","1","1","0","1","0.463817899930291","0.527408999972977","0.497345900046639","1","1","1","1","1","1","1","1","1"
"250032","img/neutralC/CFD-LF-216-121-N.jpg","img/neutralC/CFD-BM-029-024-N.jpg","img/neutralC/CFD-BF-208-266-N.jpg","1","1","1","1","1","0","0.497345900046639","0.463817899930291","0.549774900078773","1","1","1","1","1","1","1","1","1"
"250032","img/neutralC/CFD-BF-208-266-N.jpg","img/neutralC/CFD-LF-216-121-N.jpg","img/neutralC/CFD-IF-672-305-N.jpg","1","1","1","0","1","0","0.549774900078773","0.497345900046639","0.540241200011224","1","1","1","1","1","1","1","1","1"
"250032","img/neutralC/CFD-IF-672-305-N.jpg","img/neutralC/CFD-BF-208-266-N.jpg","img/neutralC/CFD-BM-015-015-N.jpg","1","1","1","0","0","0","0.540241200011224","0.549774900078773","0.525258800014853","1","1","1","1","1","1","1","1","1"
"250032","img/neutralC/CFD-BM-015-015-N.jpg","img/neutralC/CFD-IF-672-305-N.jpg",NA,"1","1",NA,"0","0",NA,"0.525258800014853","0.540241200011224",NA,"1","1",NA,"1","1",NA,"1","1",NA
"250032","img/neutralC/CFD-WM-237-052-N.jpg",NA,"img/neutralC/CFD-LF-211-003-N.jpg","1",NA,"1","1",NA,"0","0.763470800011419",NA,"0.517903600004502","1",NA,"1","1",NA,"1","1",NA,"1"
"250032","img/neutralC/CFD-LF-211-003-N.jpg","img/neutralC/CFD-WM-237-052-N.jpg","img/neutralC/CFD-AM-244-222-N.jpg","1","1","1","0","1","0","0.517903600004502","0.763470800011419","0.441981200012378","1","1","1","1","1","1","1","1","1"
"250032","img/neutralC/CFD-AM-244-222-N.jpg","img/neutralC/CFD-LF-211-003-N.jpg","img/neutralC/CFD-MM-321-021-N.jpg","1","1","1","0","0","0","0.441981200012378","0.517903600004502","0.454061400028877","1","1","1","1","1","1","1","1","1"
"250032","img/neutralC/CFD-MM-321-021-N.jpg","img/neutralC/CFD-AM-244-222-N.jpg","img/neutralC/CFD-WF-018-017-N.jpg","1","1","1","0","0","1","0.454061400028877","0.441981200012378","0.44590949988924","1","1","1","1","1","1","1","1","1"
"250032","img/neutralC/CFD-WF-018-017-N.jpg","img/neutralC/CFD-MM-321-021-N.jpg","img/neutralC/CFD-WM-255-219-N.jpg","1","1","1","1","0","0","0.44590949988924","0.454061400028877","0.467442599940114","1","1","1","1","1","1","1","1","1"
"250032","img/neutralC/CFD-WM-255-219-N.jpg","img/neutralC/CFD-WF-018-017-N.jpg","img/neutralC/CFD-WM-221-091-N.jpg","1","1","1","0","1","0","0.467442599940114","0.44590949988924","0.444992800010368","1","1","1","1","1","1","1","1","1"
"250032","img/neutralC/CFD-WM-221-091-N.jpg","img/neutralC/CFD-WM-255-219-N.jpg","img/neutralC/CFD-WM-013-001-N.jpg","1","1","1","0","0","1","0.444992800010368","0.467442599940114","0.489516900037415","1","1","1","1","1","1","1","1","1"
"250032","img/neutralC/CFD-WM-013-001-N.jpg","img/neutralC/CFD-WM-221-091-N.jpg","img/neutralC/CFD-BF-254-201-N.jpg","1","1","1","1","0","0","0.489516900037415","0.444992800010368","0.434580500004813","1","1","1","1","1","1","1","1","1"
"250032","img/neutralC/CFD-BF-254-201-N.jpg","img/neutralC/CFD-WM-013-001-N.jpg","img/neutralC/CFD-IM-700-009-N.jpg","1","1","1","0","1","1","0.434580500004813","0.489516900037415","0.402004700037651","1","1","1","1","1","1","1","1","1"
"250032","img/neutralC/CFD-IM-700-009-N.jpg","img/neutralC/CFD-BF-254-201-N.jpg","img/neutralC/CFD-IM-627-178-N.jpg","1","1","1","1","0","1","0.402004700037651","0.434580500004813","0.384733099956065","1","1","1","1","1","1","1","1","1"
"250032","img/neutralC/CFD-IM-627-178-N.jpg","img/neutralC/CFD-IM-700-009-N.jpg","img/neutralC/CFD-IM-719-221-N.jpg","1","1","1","1","1","0","0.384733099956065","0.402004700037651","0.447561800014228","1","1","1","1","1","1","1","1","1"
"250032","img/neutralC/CFD-IM-719-221-N.jpg","img/neutralC/CFD-IM-627-178-N.jpg","img/neutralC/CFD-LM-253-075-N.jpg","1","1","1","0","1","0","0.447561800014228","0.384733099956065","0.341767199919559","1","1","1","1","1","1","1","1","1"
"250032","img/neutralC/CFD-LM-253-075-N.jpg","img/neutralC/CFD-IM-719-221-N.jpg","img/neutralC/CFD-AF-221-147-N.jpg","1","1","1","0","0","0","0.341767199919559","0.447561800014228","0.433023000019602","1","1","1","1","1","1","1","1","1"
"250032","img/neutralC/CFD-AF-221-147-N.jpg","img/neutralC/CFD-LM-253-075-N.jpg","img/neutralC/CFD-BF-018-039-N.jpg","1","1","1","0","0","1","0.433023000019602","0.341767199919559","0.50863199995365","1","1","1","1","1","1","1","1","1"
"250032","img/neutralC/CFD-BF-018-039-N.jpg","img/neutralC/CFD-AF-221-147-N.jpg","img/neutralC/CFD-LF-215-157-N.jpg","1","1","1","1","0","0","0.50863199995365","0.433023000019602","0.383794100023806","1","1","1","1","1","1","1","1","1"
"250032","img/neutralC/CFD-LF-215-157-N.jpg","img/neutralC/CFD-BF-018-039-N.jpg","img/neutralC/CFD-WF-245-084-N.jpg","1","1","1","0","1","1","0.383794100023806","0.50863199995365","0.396339099970646","1","1","1","1","1","1","1","1","1"
"250032","img/neutralC/CFD-WF-245-084-N.jpg","img/neutralC/CFD-LF-215-157-N.jpg","img/neutralC/CFD-BM-023-029-N.jpg","1","1","0","1","0","1","0.396339099970646","0.383794100023806","0.449158200062811","1","1","1","1","1","1","1","1","2"
"250032","img/neutralC/CFD-BM-023-029-N.jpg","img/neutralC/CFD-WF-245-084-N.jpg","img/neutralC/CFD-MF-318-022-N.jpg","0","1","1","1","1","1","0.449158200062811","0.396339099970646","0.437405699980445","1","1","1","1","1","1","2","1","1"
"250032","img/neutralC/CFD-MF-318-022-N.jpg","img/neutralC/CFD-BM-023-029-N.jpg","img/neutralC/CFD-MF-342-022-N.jpg","1","0","1","1","1","1","0.437405699980445","0.449158200062811","0.488432999933138","1","1","1","1","1","1","1","2","1"
"250032","img/neutralC/CFD-MF-342-022-N.jpg","img/neutralC/CFD-MF-318-022-N.jpg","img/neutralC/CFD-BM-204-003-N.jpg","1","1","1","1","1","0","0.488432999933138","0.437405699980445","0.505685199983418","1","1","1","1","1","1","1","1","1"
"250032","img/neutralC/CFD-BM-204-003-N.jpg","img/neutralC/CFD-MF-342-022-N.jpg","img/neutralC/CFD-IF-629-234-N.jpg","1","1","1","0","1","0","0.505685199983418","0.488432999933138","0.448407599935308","1","1","1","1","1","1","1","1","1"
"250032","img/neutralC/CFD-IF-629-234-N.jpg","img/neutralC/CFD-BM-204-003-N.jpg","img/neutralC/CFD-WF-226-095-N.jpg","1","1","1","0","0","1","0.448407599935308","0.505685199983418","0.390955799957737","1","1","1","1","1","1","1","1","1"
"250032","img/neutralC/CFD-WF-226-095-N.jpg","img/neutralC/CFD-IF-629-234-N.jpg","img/neutralC/CFD-BF-218-207-N.jpg","1","1","1","1","0","1","0.390955799957737","0.448407599935308","0.482516700052656","1","1","1","1","1","1","1","1","1"
"250032","img/neutralC/CFD-BF-218-207-N.jpg","img/neutralC/CFD-WF-226-095-N.jpg","img/neutralC/CFD-WM-009-002-N.jpg","1","1","1","1","1","0","0.482516700052656","0.390955799957737","0.425767499953508","1","1","1","1","1","1","1","1","1"
"250032","img/neutralC/CFD-WM-009-002-N.jpg","img/neutralC/CFD-BF-218-207-N.jpg","img/neutralC/CFD-WF-023-003-N.jpg","1","1","1","0","1","1","0.425767499953508","0.482516700052656","0.421097500016913","1","1","1","1","1","1","1","1","1"
"250032","img/neutralC/CFD-WF-023-003-N.jpg","img/neutralC/CFD-WM-009-002-N.jpg","img/neutralC/CFD-WF-027-003-N.jpg","1","1","1","1","0","1","0.421097500016913","0.425767499953508","0.496614199946634","1","1","1","1","1","1","1","1","1"
"250032","img/neutralC/CFD-WF-027-003-N.jpg","img/neutralC/CFD-WF-023-003-N.jpg","img/neutralC/CFD-BM-200-046-N.jpg","1","1","1","1","1","0","0.496614199946634","0.421097500016913","0.501793700037524","1","1","1","1","1","1","1","1","1"
"250032","img/neutralC/CFD-BM-200-046-N.jpg","img/neutralC/CFD-WF-027-003-N.jpg","img/neutralC/CFD-AF-232-078-N.jpg","1","1","1","0","1","1","0.501793700037524","0.496614199946634","0.395468400092795","1","1","1","1","1","1","1","1","1"
"250032","img/neutralC/CFD-AF-232-078-N.jpg","img/neutralC/CFD-BM-200-046-N.jpg","img/neutralC/CFD-WM-201-063-N.jpg","1","1","1","1","0","1","0.395468400092795","0.501793700037524","0.538724799989723","1","1","1","1","1","1","1","1","1"
"250032","img/neutralC/CFD-WM-201-063-N.jpg","img/neutralC/CFD-AF-232-078-N.jpg","img/neutralC/CFD-WF-238-023-N.jpg","1","1","1","1","1","0","0.538724799989723","0.395468400092795","0.584820899995975","1","1","1","1","1","1","1","1","1"
"250032","img/neutralC/CFD-WF-238-023-N.jpg","img/neutralC/CFD-WM-201-063-N.jpg","img/neutralC/CFD-MF-321-003-N.jpg","1","1","1","0","1","0","0.584820899995975","0.538724799989723","0.659153399989009","1","1","1","1","1","1","1","1","1"
"250032","img/neutralC/CFD-MF-321-003-N.jpg","img/neutralC/CFD-WF-238-023-N.jpg",NA,"1","1",NA,"0","0",NA,"0.659153399989009","0.584820899995975",NA,"1","1",NA,"1","1",NA,"1","1",NA
"250032","img/neutralC/CFD-WF-012-002-N.jpg",NA,"img/neutralC/CFD-WM-213-076-N.jpg","1",NA,"1","1",NA,"1","0.488293799920939",NA,"0.508193399989977","1",NA,"1","1",NA,"1","1",NA,"1"
"250032","img/neutralC/CFD-WM-213-076-N.jpg","img/neutralC/CFD-WF-012-002-N.jpg","img/neutralC/CFD-LF-226-174-N.jpg","1","1","1","1","1","0","0.508193399989977","0.488293799920939","0.535399100044742","1","1","1","1","1","1","1","1","1"
"250032","img/neutralC/CFD-LF-226-174-N.jpg","img/neutralC/CFD-WM-213-076-N.jpg","img/neutralC/CFD-AM-236-090-N.jpg","1","1","1","0","1","1","0.535399100044742","0.508193399989977","0.429547699983232","1","1","1","1","1","1","1","1","1"
"250032","img/neutralC/CFD-AM-236-090-N.jpg","img/neutralC/CFD-LF-226-174-N.jpg","img/neutralC/CFD-WM-232-070-N.jpg","1","1","1","1","0","0","0.429547699983232","0.535399100044742","0.555079699959606","1","1","1","1","1","1","1","1","1"
"250032","img/neutralC/CFD-WM-232-070-N.jpg","img/neutralC/CFD-AM-236-090-N.jpg","img/neutralC/CFD-AF-254-167-N.jpg","1","1","1","0","1","1","0.555079699959606","0.429547699983232","0.367465399904177","1","1","1","1","1","1","1","1","1"
"250032","img/neutralC/CFD-AF-254-167-N.jpg","img/neutralC/CFD-WM-232-070-N.jpg","img/neutralC/CFD-MF-329-001-N.jpg","1","1","1","1","0","0","0.367465399904177","0.555079699959606","0.599517299910076","1","1","1","1","1","1","1","1","1"
"250032","img/neutralC/CFD-MF-329-001-N.jpg","img/neutralC/CFD-AF-254-167-N.jpg","img/neutralC/CFD-IM-685-004-N.jpg","1","1","1","0","1","1","0.599517299910076","0.367465399904177","0.460463399998844","1","1","1","1","1","1","1","1","1"
"250032","img/neutralC/CFD-IM-685-004-N.jpg","img/neutralC/CFD-MF-329-001-N.jpg","img/neutralC/CFD-BF-224-002-N.jpg","1","1","1","1","0","1","0.460463399998844","0.599517299910076","0.420753800077364","1","1","1","1","1","1","1","1","1"
"250032","img/neutralC/CFD-BF-224-002-N.jpg","img/neutralC/CFD-IM-685-004-N.jpg","img/neutralC/CFD-LF-201-035-N.jpg","1","1","1","1","1","1","0.420753800077364","0.460463399998844","0.475095800007694","1","1","1","1","1","1","1","1","1"
"250032","img/neutralC/CFD-LF-201-035-N.jpg","img/neutralC/CFD-BF-224-002-N.jpg","img/neutralC/CFD-IF-608-390-N.jpg","1","1","1","1","1","1","0.475095800007694","0.420753800077364","0.518491699942388","1","1","1","1","1","1","1","1","1"
"250032","img/neutralC/CFD-IF-608-390-N.jpg","img/neutralC/CFD-LF-201-035-N.jpg","img/neutralC/CFD-IM-604-014-N.jpg","1","1","1","1","1","0","0.518491699942388","0.475095800007694","0.492639200063422","1","1","1","1","1","1","1","1","1"
"250032","img/neutralC/CFD-IM-604-014-N.jpg","img/neutralC/CFD-IF-608-390-N.jpg","img/neutralC/CFD-IM-637-007-N.jpg","1","1","1","0","1","0","0.492639200063422","0.518491699942388","0.43888919998426","1","1","1","1","1","1","1","1","1"
"250032","img/neutralC/CFD-IM-637-007-N.jpg","img/neutralC/CFD-IM-604-014-N.jpg","img/neutralC/CFD-IF-619-197-N.jpg","1","1","1","0","0","0","0.43888919998426","0.492639200063422","0.477609399938956","1","1","1","1","1","1","1","1","1"
"250032","img/neutralC/CFD-IF-619-197-N.jpg","img/neutralC/CFD-IM-637-007-N.jpg","img/neutralC/CFD-BF-051-035-N.jpg","1","1","1","0","0","0","0.477609399938956","0.43888919998426","0.454417500062846","1","1","1","1","1","1","1","1","1"
"250032","img/neutralC/CFD-BF-051-035-N.jpg","img/neutralC/CFD-IF-619-197-N.jpg","img/neutralC/CFD-LM-217-162-N.jpg","1","1","1","0","0","0","0.454417500062846","0.477609399938956","0.453300899942406","1","1","1","1","1","1","1","1","1"
"250032","img/neutralC/CFD-LM-217-162-N.jpg","img/neutralC/CFD-BF-051-035-N.jpg","img/neutralC/CFD-IM-675-015-N.jpg","1","1","1","0","0","1","0.453300899942406","0.454417500062846","0.47063190001063","1","1","1","1","1","1","1","1","1"
"250032","img/neutralC/CFD-IM-675-015-N.jpg","img/neutralC/CFD-LM-217-162-N.jpg","img/neutralC/CFD-MF-300-002-N.jpg","1","1","1","1","0","0","0.47063190001063","0.453300899942406","0.541693000006489","1","1","1","1","1","1","1","1","1"
"250032","img/neutralC/CFD-MF-300-002-N.jpg","img/neutralC/CFD-IM-675-015-N.jpg","img/neutralC/CFD-AF-229-160-N.jpg","1","1","1","0","1","0","0.541693000006489","0.47063190001063","0.576104999985546","1","1","1","1","1","1","1","1","1"
"250032","img/neutralC/CFD-AF-229-160-N.jpg","img/neutralC/CFD-MF-300-002-N.jpg","img/neutralC/CFD-WF-008-002-N.jpg","1","1","1","0","0","1","0.576104999985546","0.541693000006489","0.505602900055237","1","1","1","1","1","1","1","1","1"
"250032","img/neutralC/CFD-WF-008-002-N.jpg","img/neutralC/CFD-AF-229-160-N.jpg","img/neutralC/CFD-AF-215-70-N.jpg","1","1","1","1","0","0","0.505602900055237","0.576104999985546","0.453581900103018","1","1","1","1","1","1","1","1","1"
"250032","img/neutralC/CFD-AF-215-70-N.jpg","img/neutralC/CFD-WF-008-002-N.jpg","img/neutralC/CFD-MM-304-002-N.jpg","1","1","1","0","1","1","0.453581900103018","0.505602900055237","0.42074660002254","1","1","1","1","1","1","1","1","1"
"250032","img/neutralC/CFD-MM-304-002-N.jpg","img/neutralC/CFD-AF-215-70-N.jpg","img/neutralC/CFD-WF-212-050-N.jpg","1","1","1","1","0","0","0.42074660002254","0.453581900103018","0.495895199943334","1","1","1","1","1","1","1","1","1"
"250032","img/neutralC/CFD-WF-212-050-N.jpg","img/neutralC/CFD-MM-304-002-N.jpg","img/neutralC/CFD-BM-243-218-N.jpg","1","1","1","0","1","1","0.495895199943334","0.42074660002254","0.522491500014439","1","1","1","1","1","1","1","1","1"
"250032","img/neutralC/CFD-BM-243-218-N.jpg","img/neutralC/CFD-WF-212-050-N.jpg","img/neutralC/CFD-IM-709-103-N.jpg","1","1","1","1","0","0","0.522491500014439","0.495895199943334","0.582460499950685","1","1","1","1","1","1","1","1","1"
"250032","img/neutralC/CFD-IM-709-103-N.jpg","img/neutralC/CFD-BM-243-218-N.jpg","img/neutralC/CFD-WF-217-085-N.jpg","1","1","1","0","1","1","0.582460499950685","0.522491500014439","0.403062899946235","1","1","1","1","1","1","1","1","1"
"250032","img/neutralC/CFD-WF-217-085-N.jpg","img/neutralC/CFD-IM-709-103-N.jpg","img/neutralC/CFD-WM-024-015-N.jpg","1","1","1","1","0","1","0.403062899946235","0.582460499950685","0.381521300063469","1","1","1","1","1","1","1","1","1"
"250032","img/neutralC/CFD-WM-024-015-N.jpg","img/neutralC/CFD-WF-217-085-N.jpg","img/neutralC/CFD-MF-327-002-N.jpg","1","1","1","1","1","0","0.381521300063469","0.403062899946235","0.380884199985303","1","1","1","1","1","1","1","1","1"
"250032","img/neutralC/CFD-MF-327-002-N.jpg","img/neutralC/CFD-WM-024-015-N.jpg","img/neutralC/CFD-BM-039-029-N.jpg","1","1","1","0","1","1","0.380884199985303","0.381521300063469","0.609554799972102","1","1","1","1","1","1","1","1","1"
"250032","img/neutralC/CFD-BM-039-029-N.jpg","img/neutralC/CFD-MF-327-002-N.jpg","img/neutralC/CFD-BF-043-003-N.jpg","1","1","1","1","0","0","0.609554799972102","0.380884199985303","0.538231499958783","1","1","1","1","1","1","1","1","1"
"250032","img/neutralC/CFD-BF-043-003-N.jpg","img/neutralC/CFD-BM-039-029-N.jpg","img/neutralC/CFD-MF-340-026-N.jpg","1","1","1","0","1","1","0.538231499958783","0.609554799972102","0.482913199928589","1","1","1","1","1","1","1","1","1"
"250032","img/neutralC/CFD-MF-340-026-N.jpg","img/neutralC/CFD-BF-043-003-N.jpg","img/neutralC/CFD-WF-248-129-N.jpg","1","1","1","1","0","0","0.482913199928589","0.538231499958783","0.5197442000499","1","1","1","1","1","1","1","1","1"
"250032","img/neutralC/CFD-WF-248-129-N.jpg","img/neutralC/CFD-MF-340-026-N.jpg",NA,"1","1",NA,"0","1",NA,"0.5197442000499","0.482913199928589",NA,"1","1",NA,"1","1",NA,"1","1",NA
"250032","img/neutralC/CFD-IM-707-105-N.jpg",NA,"img/neutralC/CFD-BM-036-003-N.jpg","1",NA,"1","1",NA,"1","0.433845899999142",NA,"0.457344199996442","1",NA,"1","1",NA,"1","1",NA,"1"
"250032","img/neutralC/CFD-BM-036-003-N.jpg","img/neutralC/CFD-IM-707-105-N.jpg","img/neutralC/CFD-BF-036-027-N.jpg","1","1","1","1","1","0","0.457344199996442","0.433845899999142","0.437720499932766","1","1","1","1","1","1","1","1","1"
"250032","img/neutralC/CFD-BF-036-027-N.jpg","img/neutralC/CFD-BM-036-003-N.jpg","img/neutralC/CFD-BF-002-001-N.jpg","1","1","1","0","1","0","0.437720499932766","0.457344199996442","0.473980800015852","1","1","1","1","1","1","1","1","1"
"250032","img/neutralC/CFD-BF-002-001-N.jpg","img/neutralC/CFD-BF-036-027-N.jpg","img/neutralC/CFD-BM-241-235-N.jpg","1","1","1","0","0","0","0.473980800015852","0.437720499932766","0.486176099977456","1","1","1","1","1","1","1","1","1"
"250032","img/neutralC/CFD-BM-241-235-N.jpg","img/neutralC/CFD-BF-002-001-N.jpg","img/neutralC/CFD-AM-230-150-N.jpg","1","1","1","0","0","0","0.486176099977456","0.473980800015852","0.434563599992543","1","1","1","1","1","1","1","1","1"
"250032","img/neutralC/CFD-AM-230-150-N.jpg","img/neutralC/CFD-BM-241-235-N.jpg","img/neutralC/CFD-MF-301-024-N.jpg","1","1","1","0","0","0","0.434563599992543","0.486176099977456","0.457221599994227","1","1","1","1","1","1","1","1","1"
"250032","img/neutralC/CFD-MF-301-024-N.jpg","img/neutralC/CFD-AM-230-150-N.jpg","img/neutralC/CFD-IM-721-341-N.jpg","1","1","1","0","0","1","0.457221599994227","0.434563599992543","0.498433100059628","1","1","1","1","1","1","1","1","1"
"250032","img/neutralC/CFD-IM-721-341-N.jpg","img/neutralC/CFD-MF-301-024-N.jpg","img/neutralC/CFD-BM-238-242-N.jpg","1","1","1","1","0","0","0.498433100059628","0.457221599994227","0.506618199986406","1","1","1","1","1","1","1","1","1"
"250032","img/neutralC/CFD-BM-238-242-N.jpg","img/neutralC/CFD-IM-721-341-N.jpg","img/neutralC/CFD-WF-234-086-N.jpg","1","1","1","0","1","1","0.506618199986406","0.498433100059628","0.370051600039005","1","1","1","1","1","1","1","1","1"
"250032","img/neutralC/CFD-WF-234-086-N.jpg","img/neutralC/CFD-BM-238-242-N.jpg","img/neutralC/CFD-BF-006-017-N.jpg","1","1","1","1","0","0","0.370051600039005","0.506618199986406","0.462171199964359","1","1","1","1","1","1","1","1","1"
"250032","img/neutralC/CFD-BF-006-017-N.jpg","img/neutralC/CFD-WF-234-086-N.jpg","img/neutralC/CFD-BF-214-308-N.jpg","1","1","1","0","1","1","0.462171199964359","0.370051600039005","0.506827399949543","1","1","1","1","1","1","1","1","1"
"250032","img/neutralC/CFD-BF-214-308-N.jpg","img/neutralC/CFD-BF-006-017-N.jpg","img/neutralC/CFD-IM-696-001-N.jpg","1","1","1","1","0","0","0.506827399949543","0.462171199964359","0.61068400007207","1","1","1","1","1","1","1","1","1"
"250032","img/neutralC/CFD-IM-696-001-N.jpg","img/neutralC/CFD-BF-214-308-N.jpg","img/neutralC/CFD-BM-207-024-N.jpg","1","1","1","0","1","1","0.61068400007207","0.506827399949543","0.413232099963352","1","1","1","1","1","1","1","1","1"
"250032","img/neutralC/CFD-BM-207-024-N.jpg","img/neutralC/CFD-IM-696-001-N.jpg","img/neutralC/CFD-WF-208-068-N.jpg","1","1","1","1","0","1","0.413232099963352","0.61068400007207","0.429303199984133","1","1","1","1","1","1","1","1","1"
"250032","img/neutralC/CFD-WF-208-068-N.jpg","img/neutralC/CFD-BM-207-024-N.jpg","img/neutralC/CFD-IF-677-452-1-N.jpg","1","1","1","1","1","1","0.429303199984133","0.413232099963352","0.495832900051028","1","1","1","1","1","1","1","1","1"
"250032","img/neutralC/CFD-IF-677-452-1-N.jpg","img/neutralC/CFD-WF-208-068-N.jpg","img/neutralC/CFD-WF-233-112-N.jpg","1","1","1","1","1","1","0.495832900051028","0.429303199984133","0.643165900022723","1","1","1","1","1","1","1","1","1"
"250032","img/neutralC/CFD-WF-233-112-N.jpg","img/neutralC/CFD-IF-677-452-1-N.jpg","img/neutralC/CFD-WM-014-002-N.jpg","1","1","1","1","1","0","0.643165900022723","0.495832900051028","0.428512400016189","1","1","1","1","1","1","1","1","1"
"250032","img/neutralC/CFD-WM-014-002-N.jpg","img/neutralC/CFD-WF-233-112-N.jpg","img/neutralC/CFD-BF-044-034-N.jpg","1","1","1","0","1","0","0.428512400016189","0.643165900022723","0.600294400006533","1","1","1","1","1","1","1","1","1"
"250032","img/neutralC/CFD-BF-044-034-N.jpg","img/neutralC/CFD-WM-014-002-N.jpg","img/neutralC/CFD-BF-247-179-N.jpg","1","1","1","0","0","0","0.600294400006533","0.428512400016189","0.513893699971959","1","1","1","1","1","1","1","1","1"
"250032","img/neutralC/CFD-BF-247-179-N.jpg","img/neutralC/CFD-BF-044-034-N.jpg","img/neutralC/CFD-WF-029-002-N.jpg","1","1","1","0","0","0","0.513893699971959","0.600294400006533","0.467413000063971","1","1","1","1","1","1","1","1","1"
"250032","img/neutralC/CFD-WF-029-002-N.jpg","img/neutralC/CFD-BF-247-179-N.jpg","img/neutralC/CFD-BF-027-002-N.jpg","1","1","1","0","0","1","0.467413000063971","0.513893699971959","0.476924799964763","1","1","1","1","1","1","1","1","1"
"250032","img/neutralC/CFD-BF-027-002-N.jpg","img/neutralC/CFD-WF-029-002-N.jpg","img/neutralC/CFD-IM-726-248-N.jpg","1","1","1","1","0","0","0.476924799964763","0.467413000063971","0.397128700045869","1","1","1","1","1","1","1","1","1"
"250032","img/neutralC/CFD-IM-726-248-N.jpg","img/neutralC/CFD-BF-027-002-N.jpg","img/neutralC/CFD-IF-742-103-N.jpg","1","1","1","0","1","1","0.397128700045869","0.476924799964763","0.37727260007523","1","1","1","1","1","1","1","1","1"
"250032","img/neutralC/CFD-IF-742-103-N.jpg","img/neutralC/CFD-IM-726-248-N.jpg","img/neutralC/CFD-LM-213-061-N.jpg","1","1","1","1","0","0","0.37727260007523","0.397128700045869","0.444848300074227","1","1","1","1","1","1","1","1","1"
"250032","img/neutralC/CFD-LM-213-061-N.jpg","img/neutralC/CFD-IF-742-103-N.jpg","img/neutralC/CFD-IF-729-393-N.jpg","1","1","1","0","1","0","0.444848300074227","0.37727260007523","0.393410600023344","1","1","1","1","1","1","1","1","1"
"250032","img/neutralC/CFD-IF-729-393-N.jpg","img/neutralC/CFD-LM-213-061-N.jpg","img/neutralC/CFD-LF-204-133-N.jpg","1","1","1","0","0","1","0.393410600023344","0.444848300074227","0.376655299915001","1","1","1","1","1","1","1","1","1"
"250032","img/neutralC/CFD-LF-204-133-N.jpg","img/neutralC/CFD-IF-729-393-N.jpg","img/neutralC/CFD-BF-207-004-N.jpg","1","1","1","1","0","1","0.376655299915001","0.393410600023344","0.431175600038841","1","1","1","1","1","1","1","1","1"
"250032","img/neutralC/CFD-BF-207-004-N.jpg","img/neutralC/CFD-LF-204-133-N.jpg","img/neutralC/CFD-BF-011-002-N.jpg","1","1","1","1","1","1","0.431175600038841","0.376655299915001","0.324901800020598","1","1","1","1","1","1","1","1","1"
"250032","img/neutralC/CFD-BF-011-002-N.jpg","img/neutralC/CFD-BF-207-004-N.jpg","img/neutralC/CFD-WM-034-030-N.jpg","1","1","1","1","1","1","0.324901800020598","0.431175600038841","0.367532499949448","1","1","1","1","1","1","1","1","1"
"250032","img/neutralC/CFD-WM-034-030-N.jpg","img/neutralC/CFD-BF-011-002-N.jpg","img/neutralC/CFD-BF-236-177-N.jpg","1","1","1","1","1","0","0.367532499949448","0.324901800020598","0.442337400047108","1","1","1","1","1","1","1","1","1"
"250032","img/neutralC/CFD-BF-236-177-N.jpg","img/neutralC/CFD-WM-034-030-N.jpg","img/neutralC/CFD-WM-248-036-N.jpg","1","1","1","0","1","1","0.442337400047108","0.367532499949448","0.55184139998164","1","1","1","1","1","1","1","1","1"
"250032","img/neutralC/CFD-WM-248-036-N.jpg","img/neutralC/CFD-BF-236-177-N.jpg",NA,"1","1",NA,"1","0",NA,"0.55184139998164","0.442337400047108",NA,"1","1",NA,"1","1",NA,"1","1",NA
"250032","img/neutralC/CFD-WM-212-097-N.jpg",NA,"img/neutralC/CFD-BM-248-128-N.jpg","0",NA,"1","0",NA,"0","0.432580499909818",NA,"0.548855100059882","1",NA,"1","1",NA,"1","2",NA,"1"
"250032","img/neutralC/CFD-BM-248-128-N.jpg","img/neutralC/CFD-WM-212-097-N.jpg","img/neutralC/CFD-LM-243-075-N.jpg","1","0","1","0","0","0","0.548855100059882","0.432580499909818","0.583074199967086","1","1","1","1","1","1","1","2","1"
"250032","img/neutralC/CFD-LM-243-075-N.jpg","img/neutralC/CFD-BM-248-128-N.jpg","img/neutralC/CFD-WF-240-083-N.jpg","1","1","1","0","0","0","0.583074199967086","0.548855100059882","0.657174000050873","1","1","1","1","1","1","1","1","1"
"250032","img/neutralC/CFD-WF-240-083-N.jpg","img/neutralC/CFD-LM-243-075-N.jpg","img/neutralC/CFD-BF-212-315-N.jpg","1","1","1","0","0","1","0.657174000050873","0.583074199967086","0.582958100014366","1","1","1","1","1","1","1","1","1"
"250032","img/neutralC/CFD-BF-212-315-N.jpg","img/neutralC/CFD-WF-240-083-N.jpg","img/neutralC/CFD-WM-006-002-N.jpg","1","1","1","1","0","0","0.582958100014366","0.657174000050873","0.552071699989028","1","1","1","1","1","1","1","1","1"
"250032","img/neutralC/CFD-WM-006-002-N.jpg","img/neutralC/CFD-BF-212-315-N.jpg","img/neutralC/CFD-BF-228-212-N.jpg","1","1","1","0","1","0","0.552071699989028","0.582958100014366","0.498449399950914","1","1","1","1","1","1","1","1","1"
"250032","img/neutralC/CFD-BF-228-212-N.jpg","img/neutralC/CFD-WM-006-002-N.jpg","img/neutralC/CFD-LM-216-082-N.jpg","1","1","1","0","0","0","0.498449399950914","0.552071699989028","0.516445799963549","1","1","1","1","1","1","1","1","1"
"250032","img/neutralC/CFD-LM-216-082-N.jpg","img/neutralC/CFD-BF-228-212-N.jpg","img/neutralC/CFD-LM-201-057-N.jpg","1","1","1","0","0","1","0.516445799963549","0.498449399950914","0.480089799966663","1","1","1","1","1","1","1","1","1"
"250032","img/neutralC/CFD-LM-201-057-N.jpg","img/neutralC/CFD-LM-216-082-N.jpg","img/neutralC/CFD-MM-317-061-N.jpg","1","1","1","1","0","1","0.480089799966663","0.516445799963549","0.525015800027177","1","1","1","1","1","1","1","1","1"
"250032","img/neutralC/CFD-MM-317-061-N.jpg","img/neutralC/CFD-LM-201-057-N.jpg","img/neutralC/CFD-AF-240-206-N.jpg","1","1","1","1","1","0","0.525015800027177","0.480089799966663","0.48100099992007","1","1","1","1","1","1","1","1","1"
"250032","img/neutralC/CFD-AF-240-206-N.jpg","img/neutralC/CFD-MM-317-061-N.jpg","img/neutralC/CFD-IM-646-023-N.jpg","1","1","1","0","1","1","0.48100099992007","0.525015800027177","0.493297199951485","1","1","1","1","1","1","1","1","1"
"250032","img/neutralC/CFD-IM-646-023-N.jpg","img/neutralC/CFD-AF-240-206-N.jpg","img/neutralC/CFD-MF-309-002-N.jpg","1","1","1","1","0","0","0.493297199951485","0.48100099992007","0.580344000016339","1","1","1","1","1","1","1","1","1"
"250032","img/neutralC/CFD-MF-309-002-N.jpg","img/neutralC/CFD-IM-646-023-N.jpg","img/neutralC/CFD-LM-244-068-N.jpg","1","1","1","0","1","1","0.580344000016339","0.493297199951485","0.536328300018795","1","1","1","1","1","1","1","1","1"
"250032","img/neutralC/CFD-LM-244-068-N.jpg","img/neutralC/CFD-MF-309-002-N.jpg","img/neutralC/CFD-IM-648-337-N.jpg","1","1","1","1","0","0","0.536328300018795","0.580344000016339","0.554512799950317","1","1","1","1","1","1","1","1","1"
"250032","img/neutralC/CFD-IM-648-337-N.jpg","img/neutralC/CFD-LM-244-068-N.jpg","img/neutralC/CFD-WM-215-041-N.jpg","1","1","1","0","1","0","0.554512799950317","0.536328300018795","0.661297400016338","1","1","1","1","1","1","1","1","1"
"250032","img/neutralC/CFD-WM-215-041-N.jpg","img/neutralC/CFD-IM-648-337-N.jpg","img/neutralC/CFD-BF-041-001-N.jpg","1","1","1","0","0","1","0.661297400016338","0.554512799950317","0.452246700064279","1","1","1","1","1","1","1","1","1"
"250032","img/neutralC/CFD-BF-041-001-N.jpg","img/neutralC/CFD-WM-215-041-N.jpg","img/neutralC/CFD-WF-228-196-N.jpg","1","1","1","1","0","0","0.452246700064279","0.661297400016338","0.53642190003302","1","1","1","1","1","1","1","1","1"
"250032","img/neutralC/CFD-WF-228-196-N.jpg","img/neutralC/CFD-BF-041-001-N.jpg","img/neutralC/CFD-LM-214-165-N.jpg","1","1","1","0","1","1","0.53642190003302","0.452246700064279","0.653859200072475","1","1","1","1","1","1","1","1","1"
"250032","img/neutralC/CFD-LM-214-165-N.jpg","img/neutralC/CFD-WF-228-196-N.jpg","img/neutralC/CFD-AM-247-165-N.jpg","1","1","1","1","0","1","0.653859200072475","0.53642190003302","0.427569000050426","1","1","1","1","1","1","1","1","1"
"250032","img/neutralC/CFD-AM-247-165-N.jpg","img/neutralC/CFD-LM-214-165-N.jpg","img/neutralC/CFD-WM-019-003-N.jpg","1","1","1","1","1","1","0.427569000050426","0.653859200072475","0.454510700074024","1","1","1","1","1","1","1","1","1"
"250032","img/neutralC/CFD-WM-019-003-N.jpg","img/neutralC/CFD-AM-247-165-N.jpg","img/neutralC/CFD-WM-012-001-N.jpg","1","1","1","1","1","1","0.454510700074024","0.427569000050426","0.454344899975695","1","1","1","1","1","1","1","1","1"
"250032","img/neutralC/CFD-WM-012-001-N.jpg","img/neutralC/CFD-WM-019-003-N.jpg","img/neutralC/CFD-WF-005-010-N.jpg","1","1","1","1","1","0","0.454344899975695","0.454510700074024","0.501258299918845","1","1","1","1","1","1","1","1","1"
"250032","img/neutralC/CFD-WF-005-010-N.jpg","img/neutralC/CFD-WM-012-001-N.jpg","img/neutralC/CFD-BF-025-002-N.jpg","1","1","1","0","1","0","0.501258299918845","0.454344899975695","0.69866410002578","1","1","1","1","1","1","1","1","1"
"250032","img/neutralC/CFD-BF-025-002-N.jpg","img/neutralC/CFD-WF-005-010-N.jpg","img/neutralC/CFD-IF-642-295-N.jpg","1","1","1","0","0","1","0.69866410002578","0.501258299918845","0.491572000086308","1","1","1","1","1","1","1","1","1"
"250032","img/neutralC/CFD-IF-642-295-N.jpg","img/neutralC/CFD-BF-025-002-N.jpg","img/neutralC/CFD-MF-335-002-N.jpg","1","1","1","1","0","0","0.491572000086308","0.69866410002578","0.510943599976599","1","1","1","1","1","1","1","1","1"
"250032","img/neutralC/CFD-MF-335-002-N.jpg","img/neutralC/CFD-IF-642-295-N.jpg","img/neutralC/CFD-BM-205-001-N.jpg","1","1","1","0","1","0","0.510943599976599","0.491572000086308","0.405342699959874","1","1","1","1","1","1","1","1","1"
"250032","img/neutralC/CFD-BM-205-001-N.jpg","img/neutralC/CFD-MF-335-002-N.jpg","img/neutralC/CFD-BM-251-013-N.jpg","1","1","1","0","0","1","0.405342699959874","0.510943599976599","0.420371799962595","1","1","1","1","1","1","1","1","1"
"250032","img/neutralC/CFD-BM-251-013-N.jpg","img/neutralC/CFD-BM-205-001-N.jpg","img/neutralC/CFD-WM-249-239-N.jpg","1","1","1","1","0","1","0.420371799962595","0.405342699959874","0.369409299921244","1","1","1","1","1","1","1","1","1"
"250032","img/neutralC/CFD-WM-249-239-N.jpg","img/neutralC/CFD-BM-251-013-N.jpg","img/neutralC/CFD-WF-017-003-N.jpg","1","1","1","1","1","1","0.369409299921244","0.420371799962595","0.597346700029448","1","1","1","1","1","1","1","1","1"
"250032","img/neutralC/CFD-WF-017-003-N.jpg","img/neutralC/CFD-WM-249-239-N.jpg","img/neutralC/CFD-BF-202-109-N.jpg","1","1","1","1","1","1","0.597346700029448","0.369409299921244","0.632330599939451","1","1","1","1","1","1","1","1","1"
"250032","img/neutralC/CFD-BF-202-109-N.jpg","img/neutralC/CFD-WF-017-003-N.jpg","img/neutralC/CFD-WM-026-001-N.jpg","1","1","1","1","1","1","0.632330599939451","0.597346700029448","0.62601990008261","1","1","1","1","1","1","1","1","1"
"250032","img/neutralC/CFD-WM-026-001-N.jpg","img/neutralC/CFD-BF-202-109-N.jpg",NA,"1","1",NA,"1","1",NA,"0.62601990008261","0.632330599939451",NA,"1","1",NA,"1","1",NA,"1","1",NA
"250032","img/neutralC/CFD-BM-010-003-N.jpg",NA,"img/neutralC/CFD-WM-202-107-N.jpg","1",NA,"1","0",NA,"1","0.473568800021894",NA,"0.40648320002947","1",NA,"1","1",NA,"1","1",NA,"1"
"250032","img/neutralC/CFD-WM-202-107-N.jpg","img/neutralC/CFD-BM-010-003-N.jpg","img/neutralC/CFD-WF-033-002-N.jpg","1","1","1","1","0","1","0.40648320002947","0.473568800021894","0.435849900008179","1","1","1","1","1","1","1","1","1"
"250032","img/neutralC/CFD-WF-033-002-N.jpg","img/neutralC/CFD-WM-202-107-N.jpg","img/neutralC/CFD-BF-045-003-N.jpg","1","1","1","1","1","0","0.435849900008179","0.40648320002947","0.485785100026987","1","1","1","1","1","1","1","1","1"
"250032","img/neutralC/CFD-BF-045-003-N.jpg","img/neutralC/CFD-WF-033-002-N.jpg","img/neutralC/CFD-BM-213-134-N.jpg","1","1","0","0","1","1","0.485785100026987","0.435849900008179","0.723675100016408","1","1","1","1","1","1","1","1","1"
"250032","img/neutralC/CFD-BM-213-134-N.jpg","img/neutralC/CFD-BF-045-003-N.jpg","img/neutralC/CFD-IF-673-389-N.jpg","0","1","1","1","0","0","0.723675100016408","0.485785100026987","0.472316899918951","1","1","1","1","1","1","1","1","1"
"250032","img/neutralC/CFD-IF-673-389-N.jpg","img/neutralC/CFD-BM-213-134-N.jpg","img/neutralC/CFD-BF-004-014-N.jpg","1","0","1","0","1","1","0.472316899918951","0.723675100016408","0.489519899943843","1","1","1","1","1","1","1","1","1"
"250032","img/neutralC/CFD-BF-004-014-N.jpg","img/neutralC/CFD-IF-673-389-N.jpg","img/neutralC/CFD-BM-028-002-N.jpg","1","1","1","1","0","1","0.489519899943843","0.472316899918951","0.427662699948996","1","1","1","1","1","1","1","1","1"
"250032","img/neutralC/CFD-BM-028-002-N.jpg","img/neutralC/CFD-BF-004-014-N.jpg","img/neutralC/CFD-BM-013-002-N.jpg","1","1","1","1","1","1","0.427662699948996","0.489519899943843","0.36224290006794","1","1","1","1","1","1","1","1","1"
"250032","img/neutralC/CFD-BM-013-002-N.jpg","img/neutralC/CFD-BM-028-002-N.jpg","img/neutralC/CFD-IF-744-114-N.jpg","1","1","1","1","1","0","0.36224290006794","0.427662699948996","0.572903499938548","1","1","1","1","1","1","1","1","1"
"250032","img/neutralC/CFD-IF-744-114-N.jpg","img/neutralC/CFD-BM-013-002-N.jpg","img/neutralC/CFD-IM-701-312-N.jpg","1","1","1","0","1","0","0.572903499938548","0.36224290006794","0.852097499999218","1","1","1","1","1","1","1","1","1"
"250032","img/neutralC/CFD-IM-701-312-N.jpg","img/neutralC/CFD-IF-744-114-N.jpg","img/neutralC/CFD-IM-738-191-N.jpg","1","1","1","0","0","0","0.852097499999218","0.572903499938548","0.774126700009219","1","1","1","1","1","1","1","1","1"
"250032","img/neutralC/CFD-IM-738-191-N.jpg","img/neutralC/CFD-IM-701-312-N.jpg","img/neutralC/CFD-WF-223-133-N.jpg","1","1","1","0","0","0","0.774126700009219","0.852097499999218","0.425612399936654","1","1","1","1","1","1","1","1","1"
"250032","img/neutralC/CFD-WF-223-133-N.jpg","img/neutralC/CFD-IM-738-191-N.jpg","img/neutralC/CFD-LF-225-164-N.jpg","1","1","1","0","0","1","0.425612399936654","0.774126700009219","0.44491660001222","1","1","1","1","1","1","1","1","1"
"250032","img/neutralC/CFD-LF-225-164-N.jpg","img/neutralC/CFD-WF-223-133-N.jpg","img/neutralC/CFD-LM-238-129-N.jpg","1","1","1","1","0","1","0.44491660001222","0.425612399936654","0.463667300064117","1","1","1","1","1","1","1","1","1"
"250032","img/neutralC/CFD-LM-238-129-N.jpg","img/neutralC/CFD-LF-225-164-N.jpg","img/neutralC/CFD-IF-625-225-N.jpg","1","1","1","1","1","0","0.463667300064117","0.44491660001222","0.419569300021976","1","1","1","1","1","1","1","1","1"
"250032","img/neutralC/CFD-IF-625-225-N.jpg","img/neutralC/CFD-LM-238-129-N.jpg","img/neutralC/CFD-AF-210-050-N.jpg","1","1","1","0","1","1","0.419569300021976","0.463667300064117","0.476058800006285","1","1","1","1","1","1","1","1","1"
"250032","img/neutralC/CFD-AF-210-050-N.jpg","img/neutralC/CFD-IF-625-225-N.jpg","img/neutralC/CFD-IM-659-359-N.jpg","1","1","1","1","0","0","0.476058800006285","0.419569300021976","0.560393700026907","1","1","1","1","1","1","1","1","1"
"250032","img/neutralC/CFD-IM-659-359-N.jpg","img/neutralC/CFD-AF-210-050-N.jpg","img/neutralC/CFD-AF-239-171-N.jpg","1","1","1","0","1","1","0.560393700026907","0.476058800006285","0.522829700028524","1","1","1","1","1","1","1","1","1"
"250032","img/neutralC/CFD-AF-239-171-N.jpg","img/neutralC/CFD-IM-659-359-N.jpg","img/neutralC/CFD-BF-222-240-N.jpg","1","1","1","1","0","0","0.522829700028524","0.560393700026907","0.486989800003357","1","1","1","1","1","1","1","1","1"
"250032","img/neutralC/CFD-BF-222-240-N.jpg","img/neutralC/CFD-AF-239-171-N.jpg","img/neutralC/CFD-MF-336-016-N.jpg","1","1","1","0","1","1","0.486989800003357","0.522829700028524","0.522610299987718","1","1","1","1","1","1","1","1","1"
"250032","img/neutralC/CFD-MF-336-016-N.jpg","img/neutralC/CFD-BF-222-240-N.jpg","img/neutralC/CFD-LF-241-188-N.jpg","1","1","1","1","0","0","0.522610299987718","0.486989800003357","0.461795200011693","1","1","1","1","1","1","1","1","1"
"250032","img/neutralC/CFD-LF-241-188-N.jpg","img/neutralC/CFD-MF-336-016-N.jpg","img/neutralC/CFD-AF-227-207-N.jpg","1","1","1","0","1","1","0.461795200011693","0.522610299987718","0.59703839989379","1","1","1","1","1","1","1","1","1"
"250032","img/neutralC/CFD-AF-227-207-N.jpg","img/neutralC/CFD-LF-241-188-N.jpg","img/neutralC/CFD-BM-003-003-N.jpg","1","1","1","1","0","0","0.59703839989379","0.461795200011693","0.539740200038068","1","1","1","1","1","1","1","1","1"
"250032","img/neutralC/CFD-BM-003-003-N.jpg","img/neutralC/CFD-AF-227-207-N.jpg","img/neutralC/CFD-WM-228-065-N.jpg","1","1","1","0","1","0","0.539740200038068","0.59703839989379","0.614071199903265","1","1","1","1","1","1","1","1","1"
"250032","img/neutralC/CFD-WM-228-065-N.jpg","img/neutralC/CFD-BM-003-003-N.jpg","img/neutralC/CFD-LM-247-095-N.jpg","1","1","1","0","0","0","0.614071199903265","0.539740200038068","0.499343800009228","1","1","1","1","1","1","1","1","1"
"250032","img/neutralC/CFD-LM-247-095-N.jpg","img/neutralC/CFD-WM-228-065-N.jpg","img/neutralC/CFD-WM-254-152-N.jpg","1","1","1","0","0","1","0.499343800009228","0.614071199903265","0.396597000071779","1","1","1","1","1","1","1","1","1"
"250032","img/neutralC/CFD-WM-254-152-N.jpg","img/neutralC/CFD-LM-247-095-N.jpg","img/neutralC/CFD-LF-208-127-N.jpg","1","1","1","1","0","0","0.396597000071779","0.499343800009228","0.429525100043975","1","1","1","1","1","1","1","1","1"
"250032","img/neutralC/CFD-LF-208-127-N.jpg","img/neutralC/CFD-WM-254-152-N.jpg","img/neutralC/CFD-AM-221-184-N.jpg","1","1","1","0","1","1","0.429525100043975","0.396597000071779","0.496808200026862","1","1","1","1","1","1","1","1","1"
"250032","img/neutralC/CFD-AM-221-184-N.jpg","img/neutralC/CFD-LF-208-127-N.jpg","img/neutralC/CFD-WF-006-002-N.jpg","1","1","1","1","0","0","0.496808200026862","0.429525100043975","0.405449999962002","1","1","1","1","1","1","1","1","1"
"250032","img/neutralC/CFD-WF-006-002-N.jpg","img/neutralC/CFD-AM-221-184-N.jpg","img/neutralC/CFD-LF-210-220-N.jpg","1","1","1","0","1","1","0.405449999962002","0.496808200026862","0.434522000025027","1","1","1","1","1","1","1","1","1"
"250032","img/neutralC/CFD-LF-210-220-N.jpg","img/neutralC/CFD-WF-006-002-N.jpg","img/neutralC/CFD-MF-312-002-N.jpg","1","1","1","1","0","1","0.434522000025027","0.405449999962002","0.413584299967624","1","1","1","1","1","1","1","1","1"
"250032","img/neutralC/CFD-MF-312-002-N.jpg","img/neutralC/CFD-LF-210-220-N.jpg",NA,"1","1",NA,"1","1",NA,"0.413584299967624","0.434522000025027",NA,"1","1",NA,"1","1",NA,"1","1",NA
"250032","img/neutralC/CFD-AF-244-168-N.jpg",NA,"img/neutralC/CFD-IM-635-010-N.jpg","1",NA,"1","0",NA,"1","0.506933299941011",NA,"0.40228209993802","1",NA,"1","1",NA,"1","1",NA,"1"
"250032","img/neutralC/CFD-IM-635-010-N.jpg","img/neutralC/CFD-AF-244-168-N.jpg","img/neutralC/CFD-BF-040-003-N.jpg","1","1","1","1","0","1","0.40228209993802","0.506933299941011","0.40783719997853","1","1","1","1","1","1","1","1","1"
"250032","img/neutralC/CFD-BF-040-003-N.jpg","img/neutralC/CFD-IM-635-010-N.jpg","img/neutralC/CFD-AF-234-208-N.jpg","1","1","1","1","1","1","0.40783719997853","0.40228209993802","0.44327239994891","1","1","1","1","1","1","1","1","1"
"250032","img/neutralC/CFD-AF-234-208-N.jpg","img/neutralC/CFD-BF-040-003-N.jpg","img/neutralC/CFD-AF-213-126-N.jpg","1","1","1","1","1","1","0.44327239994891","0.40783719997853","0.411727900034748","1","1","1","1","1","1","1","1","1"
"250032","img/neutralC/CFD-AF-213-126-N.jpg","img/neutralC/CFD-AF-234-208-N.jpg","img/neutralC/CFD-BF-020-002-N.jpg","1","1","1","1","1","1","0.411727900034748","0.44327239994891","0.343082800041884","1","1","1","1","1","1","1","1","1"
"250032","img/neutralC/CFD-BF-020-002-N.jpg","img/neutralC/CFD-AF-213-126-N.jpg","img/neutralC/CFD-WM-253-119-N.jpg","1","1","1","1","1","1","0.343082800041884","0.411727900034748","0.62479859997984","1","1","1","1","1","1","1","1","1"
"250032","img/neutralC/CFD-WM-253-119-N.jpg","img/neutralC/CFD-BF-020-002-N.jpg","img/neutralC/CFD-IM-632-097-N.jpg","1","1","1","1","1","0","0.62479859997984","0.343082800041884","0.427119100000709","1","1","1","1","1","1","1","1","1"
"250032","img/neutralC/CFD-IM-632-097-N.jpg","img/neutralC/CFD-WM-253-119-N.jpg","img/neutralC/CFD-LM-204-001-N.jpg","1","1","1","0","1","0","0.427119100000709","0.62479859997984","0.458320399979129","1","1","1","1","1","1","1","1","1"
"250032","img/neutralC/CFD-LM-204-001-N.jpg","img/neutralC/CFD-IM-632-097-N.jpg","img/neutralC/CFD-IF-636-011-N.jpg","1","1","1","0","0","1","0.458320399979129","0.427119100000709","0.398524999967776","1","1","1","1","1","1","1","1","1"
"250032","img/neutralC/CFD-IF-636-011-N.jpg","img/neutralC/CFD-LM-204-001-N.jpg","img/neutralC/CFD-WF-210-086-N.jpg","1","1","1","1","0","0","0.398524999967776","0.458320399979129","0.449599000043236","1","1","1","1","1","1","1","1","1"
"250032","img/neutralC/CFD-WF-210-086-N.jpg","img/neutralC/CFD-IF-636-011-N.jpg","img/neutralC/CFD-WM-018-002-N.jpg","1","1","1","0","1","0","0.449599000043236","0.398524999967776","0.342441999935545","1","1","1","1","1","1","1","1","1"
"250032","img/neutralC/CFD-WM-018-002-N.jpg","img/neutralC/CFD-WF-210-086-N.jpg","img/neutralC/CFD-AM-233-236-N.jpg","1","1","1","0","0","1","0.342441999935545","0.449599000043236","0.35484429995995","1","1","1","1","1","1","1","1","1"
"250032","img/neutralC/CFD-AM-233-236-N.jpg","img/neutralC/CFD-WM-018-002-N.jpg","img/neutralC/CFD-AF-205-155-N.jpg","1","1","1","1","0","0","0.35484429995995","0.342441999935545","0.467800699989311","1","1","1","1","1","1","1","1","1"
"250032","img/neutralC/CFD-AF-205-155-N.jpg","img/neutralC/CFD-AM-233-236-N.jpg","img/neutralC/CFD-AF-246-242-N.jpg","1","1","1","0","1","0","0.467800699989311","0.35484429995995","0.525575499981642","1","1","1","1","1","1","1","1","1"
"250032","img/neutralC/CFD-AF-246-242-N.jpg","img/neutralC/CFD-AF-205-155-N.jpg","img/neutralC/CFD-BM-215-155-N.jpg","1","1","1","0","0","0","0.525575499981642","0.467800699989311","0.456709700054489","1","1","1","1","1","1","1","1","1"
"250032","img/neutralC/CFD-BM-215-155-N.jpg","img/neutralC/CFD-AF-246-242-N.jpg","img/neutralC/CFD-IM-678-482-N.jpg","1","1","1","0","0","0","0.456709700054489","0.525575499981642","0.50968090002425","1","1","1","1","1","1","1","1","1"
"250032","img/neutralC/CFD-IM-678-482-N.jpg","img/neutralC/CFD-BM-215-155-N.jpg","img/neutralC/CFD-MF-307-002-N.jpg","1","1","1","0","0","1","0.50968090002425","0.456709700054489","0.394433500012383","1","1","1","1","1","1","1","1","1"
"250032","img/neutralC/CFD-MF-307-002-N.jpg","img/neutralC/CFD-IM-678-482-N.jpg","img/neutralC/CFD-MF-302-027-N.jpg","1","1","1","1","0","0","0.394433500012383","0.50968090002425","0.544359499937855","1","1","1","1","1","1","1","1","1"
"250032","img/neutralC/CFD-MF-302-027-N.jpg","img/neutralC/CFD-MF-307-002-N.jpg","img/neutralC/CFD-WF-235-121-N.jpg","1","1","1","0","1","0","0.544359499937855","0.394433500012383","0.642073799972422","1","1","1","1","1","1","1","1","1"
"250032","img/neutralC/CFD-WF-235-121-N.jpg","img/neutralC/CFD-MF-302-027-N.jpg","img/neutralC/CFD-BF-217-189-N.jpg","1","1","1","0","0","0","0.642073799972422","0.544359499937855","0.568273499957286","1","1","1","1","1","1","1","1","1"
"250032","img/neutralC/CFD-BF-217-189-N.jpg","img/neutralC/CFD-WF-235-121-N.jpg","img/neutralC/CFD-BF-206-143-N.jpg","1","1","1","0","0","1","0.568273499957286","0.642073799972422","0.515834600082599","1","1","1","1","1","1","1","1","1"
"250032","img/neutralC/CFD-BF-206-143-N.jpg","img/neutralC/CFD-BF-217-189-N.jpg","img/neutralC/CFD-AF-250-200-N.jpg","1","1","1","1","0","1","0.515834600082599","0.568273499957286","0.426767600001767","1","1","1","1","1","1","1","1","1"
"250032","img/neutralC/CFD-AF-250-200-N.jpg","img/neutralC/CFD-BF-206-143-N.jpg","img/neutralC/CFD-LM-241-125-N.jpg","1","1","1","1","1","1","0.426767600001767","0.515834600082599","0.56532159994822","1","1","1","1","1","1","1","1","1"
"250032","img/neutralC/CFD-LM-241-125-N.jpg","img/neutralC/CFD-AF-250-200-N.jpg","img/neutralC/CFD-BF-042-026-N.jpg","1","1","1","1","1","1","0.56532159994822","0.426767600001767","0.401245799963363","1","1","1","1","1","1","1","1","1"
"250032","img/neutralC/CFD-BF-042-026-N.jpg","img/neutralC/CFD-LM-241-125-N.jpg","img/neutralC/CFD-AM-245-111-N.jpg","1","1","1","1","1","1","0.401245799963363","0.56532159994822","0.621089900028892","1","1","1","1","1","1","1","1","1"
"250032","img/neutralC/CFD-AM-245-111-N.jpg","img/neutralC/CFD-BF-042-026-N.jpg","img/neutralC/CFD-AM-225-102-N.jpg","1","1","1","1","1","0","0.621089900028892","0.401245799963363","0.562509799958207","1","1","1","1","1","1","1","1","1"
"250032","img/neutralC/CFD-AM-225-102-N.jpg","img/neutralC/CFD-AM-245-111-N.jpg","img/neutralC/CFD-BF-235-168-N.jpg","1","1","1","0","1","1","0.562509799958207","0.621089900028892","0.505368800018914","1","1","1","1","1","1","1","1","1"
"250032","img/neutralC/CFD-BF-235-168-N.jpg","img/neutralC/CFD-AM-225-102-N.jpg","img/neutralC/CFD-IM-669-111-N.jpg","1","1","1","1","0","1","0.505368800018914","0.562509799958207","0.531471699941903","1","1","1","1","1","1","1","1","1"
"250032","img/neutralC/CFD-IM-669-111-N.jpg","img/neutralC/CFD-BF-235-168-N.jpg","img/neutralC/CFD-IF-732-260-N.jpg","1","1","1","1","1","0","0.531471699941903","0.505368800018914","0.48233629995957","1","1","1","1","1","1","1","1","1"
"250032","img/neutralC/CFD-IF-732-260-N.jpg","img/neutralC/CFD-IM-669-111-N.jpg","img/neutralC/CFD-LF-239-148-N.jpg","1","1","1","0","1","0","0.48233629995957","0.531471699941903","0.614080299972557","1","1","1","1","1","1","1","1","1"
"250032","img/neutralC/CFD-LF-239-148-N.jpg","img/neutralC/CFD-IF-732-260-N.jpg","img/neutralC/CFD-BM-004-002-N.jpg","1","1","1","0","0","0","0.614080299972557","0.48233629995957","0.520105900010094","1","1","1","1","1","1","1","1","1"
"250032","img/neutralC/CFD-BM-004-002-N.jpg","img/neutralC/CFD-LF-239-148-N.jpg",NA,"1","1",NA,"0","0",NA,"0.520105900010094","0.614080299972557",NA,"1","1",NA,"1","1",NA,"1","1",NA
"250032","img/neutralC/CFD-AF-237-223-N.jpg",NA,"img/neutralC/CFD-WF-221-005-N.jpg","0",NA,"0","0",NA,"0",NA,NA,NA,"0",NA,"0","0",NA,"0","0",NA,"0"
"250032","img/neutralC/CFD-WF-221-005-N.jpg","img/neutralC/CFD-AF-237-223-N.jpg","img/neutralC/CFD-WM-025-002-N.jpg","0","0","0","0","0","0",NA,NA,NA,"0","0","0","0","0","0","0","0","0"
"250032","img/neutralC/CFD-WM-025-002-N.jpg","img/neutralC/CFD-WF-221-005-N.jpg","img/neutralC/CFD-WF-241-210-N.jpg","0","0","0","0","0","0",NA,NA,NA,"0","0","0","0","0","0","0","0","0"
"250032","img/neutralC/CFD-WF-241-210-N.jpg","img/neutralC/CFD-WM-025-002-N.jpg","img/neutralC/CFD-IM-615-167-N.jpg","0","0","1","0","0","0",NA,NA,"0.494882900035009","0","0","1","0","0","1","0","0","1"
"250032","img/neutralC/CFD-IM-615-167-N.jpg","img/neutralC/CFD-WF-241-210-N.jpg","img/neutralC/CFD-AM-243-212-N.jpg","1","0","1","0","0","1","0.494882900035009",NA,"0.40987520001363","1","0","1","1","0","1","1","0","1"
"250032","img/neutralC/CFD-AM-243-212-N.jpg","img/neutralC/CFD-IM-615-167-N.jpg","img/neutralC/CFD-AM-219-101-N.jpg","1","1","1","1","0","0","0.40987520001363","0.494882900035009","0.510990099981427","1","1","1","1","1","1","1","1","1"
"250032","img/neutralC/CFD-AM-219-101-N.jpg","img/neutralC/CFD-AM-243-212-N.jpg","img/neutralC/CFD-BM-009-002-N.jpg","1","1","0","0","1","1","0.510990099981427","0.40987520001363",NA,"1","1","0","1","1","0","1","1","0"
"250032","img/neutralC/CFD-BM-009-002-N.jpg","img/neutralC/CFD-AM-219-101-N.jpg","img/neutralC/CFD-MF-328-020-N.jpg","0","1","0","1","0","0",NA,"0.510990099981427",NA,"0","1","0","0","1","0","0","1","0"
"250032","img/neutralC/CFD-MF-328-020-N.jpg","img/neutralC/CFD-BM-009-002-N.jpg","img/neutralC/CFD-WF-009-001-N.jpg","0","0","0","0","1","1",NA,NA,NA,"0","0","0","0","0","0","0","0","0"
"250032","img/neutralC/CFD-WF-009-001-N.jpg","img/neutralC/CFD-MF-328-020-N.jpg","img/neutralC/CFD-LF-212-066-N.jpg","0","0","1","1","0","1",NA,NA,"0.42573270003777","0","0","1","0","0","1","0","0","1"
"250032","img/neutralC/CFD-LF-212-066-N.jpg","img/neutralC/CFD-WF-009-001-N.jpg","img/neutralC/CFD-MM-306-010-N.jpg","1","0","0","1","1","0","0.42573270003777",NA,NA,"1","0","0","1","0","0","1","0","0"
"250032","img/neutralC/CFD-MM-306-010-N.jpg","img/neutralC/CFD-LF-212-066-N.jpg","img/neutralC/CFD-BF-012-001-N.jpg","0","1","0","0","1","0",NA,"0.42573270003777","0.441943400073797","0","1","1","0","1","1","0","1","1"
"250032","img/neutralC/CFD-BF-012-001-N.jpg","img/neutralC/CFD-MM-306-010-N.jpg","img/neutralC/CFD-IF-676-017-N.jpg","0","0","0","0","0","1","0.441943400073797",NA,NA,"1","0","0","1","0","0","1","0","0"
"250032","img/neutralC/CFD-IF-676-017-N.jpg","img/neutralC/CFD-BF-012-001-N.jpg","img/neutralC/CFD-WF-207-014-N.jpg","0","0","1","1","0","1",NA,"0.441943400073797","0.459466299973428","0","1","1","0","1","1","0","1","1"
"250032","img/neutralC/CFD-WF-207-014-N.jpg","img/neutralC/CFD-IF-676-017-N.jpg","img/neutralC/CFD-LF-222-147-N.jpg","1","0","1","1","1","0","0.459466299973428",NA,"0.602463399991393","1","0","1","1","0","1","1","0","1"
"250032","img/neutralC/CFD-LF-222-147-N.jpg","img/neutralC/CFD-WF-207-014-N.jpg","img/neutralC/CFD-WM-023-001-N.jpg","1","1","0","0","1","0","0.602463399991393","0.459466299973428",NA,"1","1","0","1","1","0","1","1","0"
"250032","img/neutralC/CFD-WM-023-001-N.jpg","img/neutralC/CFD-LF-222-147-N.jpg","img/neutralC/CFD-WM-028-003-N.jpg","0","1","0","0","0","1",NA,"0.602463399991393",NA,"0","1","0","0","1","0","0","1","0"
"250032","img/neutralC/CFD-WM-028-003-N.jpg","img/neutralC/CFD-WM-023-001-N.jpg","img/neutralC/CFD-LM-240-013-N.jpg","0","0","1","1","0","1",NA,NA,"0.373802699963562","0","0","1","0","0","1","0","0","1"
"250032","img/neutralC/CFD-LM-240-013-N.jpg","img/neutralC/CFD-WM-028-003-N.jpg","img/neutralC/CFD-WF-243-148-N.jpg","1","0","1","1","1","0","0.373802699963562",NA,"0.550891099963337","1","0","1","1","0","1","1","0","1"
"250032","img/neutralC/CFD-WF-243-148-N.jpg","img/neutralC/CFD-LM-240-013-N.jpg","img/neutralC/CFD-IM-689-263-N.jpg","1","1","0","0","1","1","0.550891099963337","0.373802699963562",NA,"1","1","0","1","1","0","1","1","0"
"250032","img/neutralC/CFD-IM-689-263-N.jpg","img/neutralC/CFD-WF-243-148-N.jpg","img/neutralC/CFD-BM-021-021-N.jpg","0","1","1","1","0","1",NA,"0.550891099963337","0.437195900012739","0","1","1","0","1","1","0","1","1"
"250032","img/neutralC/CFD-BM-021-021-N.jpg","img/neutralC/CFD-IM-689-263-N.jpg","img/neutralC/CFD-BF-244-231-N.jpg","1","0","1","1","1","1","0.437195900012739",NA,"0.434517499990761","1","0","1","1","0","1","1","0","1"
"250032","img/neutralC/CFD-BF-244-231-N.jpg","img/neutralC/CFD-BM-021-021-N.jpg","img/neutralC/CFD-BM-227-191-N.jpg","1","1","0","1","1","1","0.434517499990761","0.437195900012739",NA,"1","1","0","1","1","0","1","1","0"
"250032","img/neutralC/CFD-BM-227-191-N.jpg","img/neutralC/CFD-BF-244-231-N.jpg","img/neutralC/CFD-BM-043-071-N.jpg","0","1","1","1","1","0",NA,"0.434517499990761","0.487386299995705","0","1","1","0","1","1","0","1","1"
"250032","img/neutralC/CFD-BM-043-071-N.jpg","img/neutralC/CFD-BM-227-191-N.jpg","img/neutralC/CFD-BM-030-003-N.jpg","1","0","1","0","1","0","0.487386299995705",NA,"0.490247100009583","1","0","1","1","0","1","1","0","1"
"250032","img/neutralC/CFD-BM-030-003-N.jpg","img/neutralC/CFD-BM-043-071-N.jpg","img/neutralC/CFD-BM-020-001-N.jpg","1","1","1","0","0","0","0.490247100009583","0.487386299995705","0.544945499976166","1","1","1","1","1","1","1","1","1"
"250032","img/neutralC/CFD-BM-020-001-N.jpg","img/neutralC/CFD-BM-030-003-N.jpg","img/neutralC/CFD-IM-697-015-N.jpg","1","1","0","0","0","1","0.544945499976166","0.490247100009583",NA,"1","1","0","1","1","0","1","1","0"
"250032","img/neutralC/CFD-IM-697-015-N.jpg","img/neutralC/CFD-BM-020-001-N.jpg","img/neutralC/CFD-AM-205-153-N.jpg","0","1","0","1","0","1",NA,"0.544945499976166",NA,"0","1","0","0","1","0","0","1","0"
"250032","img/neutralC/CFD-AM-205-153-N.jpg","img/neutralC/CFD-IM-697-015-N.jpg","img/neutralC/CFD-LF-238-154-N.jpg","0","0","1","1","1","1",NA,NA,"0.369317800039425","0","0","1","0","0","1","0","0","1"
"250032","img/neutralC/CFD-LF-238-154-N.jpg","img/neutralC/CFD-AM-205-153-N.jpg","img/neutralC/CFD-IM-606-008-N.jpg","1","0","1","1","1","0","0.369317800039425",NA,"0.508271800004877","1","0","1","1","0","1","1","0","1"
"250032","img/neutralC/CFD-IM-606-008-N.jpg","img/neutralC/CFD-LF-238-154-N.jpg","img/neutralC/CFD-AM-249-163-N.jpg","1","1","1","0","1","1","0.508271800004877","0.369317800039425","0.419067399925552","1","1","1","1","1","1","1","1","1"
"250032","img/neutralC/CFD-AM-249-163-N.jpg","img/neutralC/CFD-IM-606-008-N.jpg",NA,"1","1",NA,"1","0",NA,"0.419067399925552","0.508271800004877",NA,"1","1",NA,"1","1",NA,"1","1",NA
"250032","img/neutralC/CFD-AF-202-122-N.jpg",NA,"img/neutralC/CFD-BM-018-001-N.jpg","1",NA,"0","1",NA,"1","0.63300839997828",NA,"0.396387899992988","1",NA,"1","1",NA,"1","1",NA,"1"
"250032","img/neutralC/CFD-BM-018-001-N.jpg","img/neutralC/CFD-AF-202-122-N.jpg","img/neutralC/CFD-BM-026-002-N.jpg","0","1","1","1","1","0","0.396387899992988","0.63300839997828","0.482156499987468","1","1","1","1","1","1","1","1","1"
"250032","img/neutralC/CFD-BM-026-002-N.jpg","img/neutralC/CFD-BM-018-001-N.jpg","img/neutralC/CFD-LM-219-295-N.jpg","1","0","0","0","1","1","0.482156499987468","0.396387899992988",NA,"1","1","0","1","1","0","1","1","0"
"250032","img/neutralC/CFD-LM-219-295-N.jpg","img/neutralC/CFD-BM-026-002-N.jpg","img/neutralC/CFD-WF-209-052-N.jpg","0","1","1","1","0","1",NA,"0.482156499987468","0.350710299913771","0","1","1","0","1","1","0","1","1"
"250032","img/neutralC/CFD-WF-209-052-N.jpg","img/neutralC/CFD-LM-219-295-N.jpg","img/neutralC/CFD-BF-238-190-N.jpg","1","0","1","1","1","1","0.350710299913771",NA,"0.459899200010113","1","0","1","1","0","1","1","0","1"
"250032","img/neutralC/CFD-BF-238-190-N.jpg","img/neutralC/CFD-WF-209-052-N.jpg","img/neutralC/CFD-IM-657-308-N.jpg","1","1","1","1","1","0","0.459899200010113","0.350710299913771","0.446149799972773","1","1","1","1","1","1","1","1","1"
"250032","img/neutralC/CFD-IM-657-308-N.jpg","img/neutralC/CFD-BF-238-190-N.jpg","img/neutralC/CFD-IF-665-015-N.jpg","1","1","1","0","1","0","0.446149799972773","0.459899200010113","0.353272999986075","1","1","1","1","1","1","1","1","1"
"250032","img/neutralC/CFD-IF-665-015-N.jpg","img/neutralC/CFD-IM-657-308-N.jpg","img/neutralC/CFD-LM-226-175-N.jpg","1","1","0","0","0","0","0.353272999986075","0.446149799972773",NA,"1","1","0","1","1","0","1","1","0"
"250032","img/neutralC/CFD-LM-226-175-N.jpg","img/neutralC/CFD-IF-665-015-N.jpg","img/neutralC/CFD-IM-686-097-N.jpg","0","1","0","0","0","0",NA,"0.353272999986075",NA,"0","1","0","0","1","0","0","1","0"
"250032","img/neutralC/CFD-IM-686-097-N.jpg","img/neutralC/CFD-LM-226-175-N.jpg","img/neutralC/CFD-IM-617-174-N.jpg","0","0","1","0","0","0",NA,NA,"0.500620900071226","0","0","1","0","0","1","0","0","1"
"250032","img/neutralC/CFD-IM-617-174-N.jpg","img/neutralC/CFD-IM-686-097-N.jpg","img/neutralC/CFD-BM-212-117-N.jpg","1","0","0","0","0","0","0.500620900071226",NA,NA,"1","0","0","1","0","0","1","0","0"
"250032","img/neutralC/CFD-BM-212-117-N.jpg","img/neutralC/CFD-IM-617-174-N.jpg","img/neutralC/CFD-LF-247-051-N.jpg","0","1","0","0","0","1",NA,"0.500620900071226",NA,"0","1","0","0","1","0","0","1","0"
"250032","img/neutralC/CFD-LF-247-051-N.jpg","img/neutralC/CFD-BM-212-117-N.jpg","img/neutralC/CFD-WM-227-099-N.jpg","0","0","1","1","0","1",NA,NA,"0.337958100019023","0","0","1","0","0","1","0","0","1"
"250032","img/neutralC/CFD-WM-227-099-N.jpg","img/neutralC/CFD-LF-247-051-N.jpg","img/neutralC/CFD-WM-258-125-N.jpg","1","0","1","1","1","0","0.337958100019023",NA,"0.545841200044379","1","0","1","1","0","1","1","0","1"
"250032","img/neutralC/CFD-WM-258-125-N.jpg","img/neutralC/CFD-WM-227-099-N.jpg","img/neutralC/CFD-LF-242-121-N.jpg","1","1","0","0","1","0","0.545841200044379","0.337958100019023",NA,"1","1","0","1","1","0","1","1","0"
"250032","img/neutralC/CFD-LF-242-121-N.jpg","img/neutralC/CFD-WM-258-125-N.jpg","img/neutralC/CFD-WM-017-002-N.jpg","0","1","1","0","0","0",NA,"0.545841200044379","0.372741100029089","0","1","1","0","1","1","0","1","1"
"250032","img/neutralC/CFD-WM-017-002-N.jpg","img/neutralC/CFD-LF-242-121-N.jpg","img/neutralC/CFD-IM-653-008-N.jpg","1","0","1","0","0","0","0.372741100029089",NA,"0.461452300078236","1","0","1","1","0","1","1","0","1"
"250032","img/neutralC/CFD-IM-653-008-N.jpg","img/neutralC/CFD-WM-017-002-N.jpg","img/neutralC/CFD-LF-250-169-N.jpg","1","1","1","0","0","1","0.461452300078236","0.372741100029089","0.527449600049295","1","1","1","1","1","1","1","1","1"
"250032","img/neutralC/CFD-LF-250-169-N.jpg","img/neutralC/CFD-IM-653-008-N.jpg","img/neutralC/CFD-BM-005-003-N.jpg","1","1","0","1","0","1","0.527449600049295","0.461452300078236",NA,"1","1","0","1","1","0","1","1","0"
"250032","img/neutralC/CFD-BM-005-003-N.jpg","img/neutralC/CFD-LF-250-169-N.jpg","img/neutralC/CFD-LF-245-166-N.jpg","0","1","0","1","1","1",NA,"0.527449600049295",NA,"0","1","0","0","1","0","0","1","0"
"250032","img/neutralC/CFD-LF-245-166-N.jpg","img/neutralC/CFD-BM-005-003-N.jpg","img/neutralC/CFD-AF-241-141-N.jpg","0","0","0","1","1","1",NA,NA,NA,"0","0","0","0","0","0","0","0","0"
"250032","img/neutralC/CFD-AF-241-141-N.jpg","img/neutralC/CFD-LF-245-166-N.jpg","img/neutralC/CFD-LM-233-171-N.jpg","0","0","0","1","1","0",NA,NA,NA,"0","0","0","0","0","0","0","0","0"
"250032","img/neutralC/CFD-LM-233-171-N.jpg","img/neutralC/CFD-AF-241-141-N.jpg","img/neutralC/CFD-BF-033-028-N.jpg","0","0","0","0","1","0",NA,NA,NA,"0","0","0","0","0","0","0","0","0"
"250032","img/neutralC/CFD-BF-033-028-N.jpg","img/neutralC/CFD-LM-233-171-N.jpg","img/neutralC/CFD-BF-010-001-N.jpg","0","0","1","0","0","1",NA,NA,"0.441646599909291","0","0","1","0","0","1","0","0","1"
"250032","img/neutralC/CFD-BF-010-001-N.jpg","img/neutralC/CFD-BF-033-028-N.jpg","img/neutralC/CFD-BM-231-155-N.jpg","1","0","1","1","0","1","0.441646599909291",NA,"0.403391200001352","1","0","1","1","0","1","1","0","1"
"250032","img/neutralC/CFD-BM-231-155-N.jpg","img/neutralC/CFD-BF-010-001-N.jpg","img/neutralC/CFD-AF-206-079-N.jpg","1","1","0","1","1","1","0.403391200001352","0.441646599909291",NA,"1","1","0","1","1","0","1","1","0"
"250032","img/neutralC/CFD-AF-206-079-N.jpg","img/neutralC/CFD-BM-231-155-N.jpg","img/neutralC/CFD-IM-727-195-N.jpg","0","1","0","1","1","1",NA,"0.403391200001352",NA,"0","1","0","0","1","0","0","1","0"
"250032","img/neutralC/CFD-IM-727-195-N.jpg","img/neutralC/CFD-AF-206-079-N.jpg","img/neutralC/CFD-IM-638-250-1-N.jpg","0","0","1","1","1","1",NA,NA,"0.441381999989972","0","0","1","0","0","1","0","0","1"
"250032","img/neutralC/CFD-IM-638-250-1-N.jpg","img/neutralC/CFD-IM-727-195-N.jpg","img/neutralC/CFD-WM-242-011-N.jpg","1","0","0","1","1","0","0.441381999989972",NA,NA,"1","0","0","1","0","0","1","0","0"
"250032","img/neutralC/CFD-WM-242-011-N.jpg","img/neutralC/CFD-IM-638-250-1-N.jpg","img/neutralC/CFD-MF-313-002-N.jpg","0","1","1","0","1","0",NA,"0.441381999989972","0.573437500046566","0","1","1","0","1","1","0","1","1"
"250032","img/neutralC/CFD-MF-313-002-N.jpg","img/neutralC/CFD-WM-242-011-N.jpg","img/neutralC/CFD-IF-620-218-N.jpg","1","0","0","0","0","0","0.573437500046566",NA,NA,"1","0","0","1","0","0","1","0","0"
"250032","img/neutralC/CFD-IF-620-218-N.jpg","img/neutralC/CFD-MF-313-002-N.jpg",NA,"0","1",NA,"0","0",NA,NA,"0.573437500046566",NA,"0","1",NA,"0","1",NA,"0","1",NA
"250032","img/neutralC/CFD-LF-220-120-N.jpg",NA,"img/neutralC/CFD-IM-703-182-N.jpg","1",NA,"0","1",NA,"1","0.573766199988313",NA,NA,"1",NA,"0","1",NA,"0","1",NA,"0"
"250032","img/neutralC/CFD-IM-703-182-N.jpg","img/neutralC/CFD-LF-220-120-N.jpg","img/neutralC/CFD-WM-235-147-N.jpg","0","1","1","1","1","0",NA,"0.573766199988313","0.380478800041601","0","1","1","0","1","1","0","1","1"
"250032","img/neutralC/CFD-WM-235-147-N.jpg","img/neutralC/CFD-IM-703-182-N.jpg","img/neutralC/CFD-WM-033-025-N.jpg","1","0","1","0","1","1","0.380478800041601",NA,"0.391145600005984","1","0","1","1","0","1","1","0","1"
"250032","img/neutralC/CFD-WM-033-025-N.jpg","img/neutralC/CFD-WM-235-147-N.jpg","img/neutralC/CFD-IF-623-129-N.jpg","1","1","1","1","0","1","0.391145600005984","0.380478800041601","0.332230999949388","1","1","1","1","1","1","1","1","1"
"250032","img/neutralC/CFD-IF-623-129-N.jpg","img/neutralC/CFD-WM-033-025-N.jpg","img/neutralC/CFD-IM-645-001-N.jpg","1","1","1","1","1","0","0.332230999949388","0.391145600005984","0.448869399959221","1","1","1","1","1","1","1","1","1"
"250032","img/neutralC/CFD-IM-645-001-N.jpg","img/neutralC/CFD-IF-623-129-N.jpg","img/neutralC/CFD-IF-650-315-N.jpg","1","1","0","0","1","0","0.448869399959221","0.332230999949388",NA,"1","1","0","1","1","0","1","1","0"
"250032","img/neutralC/CFD-IF-650-315-N.jpg","img/neutralC/CFD-IM-645-001-N.jpg","img/neutralC/CFD-MF-333-012-N.jpg","0","1","1","0","0","0",NA,"0.448869399959221","0.462413499946706","0","1","1","0","1","1","0","1","1"
"250032","img/neutralC/CFD-MF-333-012-N.jpg","img/neutralC/CFD-IF-650-315-N.jpg","img/neutralC/CFD-BF-229-179-N.jpg","1","0","1","0","0","0","0.462413499946706",NA,"0.615287400083616","1","0","1","1","0","1","1","0","1"
"250032","img/neutralC/CFD-BF-229-179-N.jpg","img/neutralC/CFD-MF-333-012-N.jpg","img/neutralC/CFD-BF-226-119-N.jpg","1","1","0","0","0","1","0.615287400083616","0.462413499946706",NA,"1","1","0","1","1","0","1","1","0"
"250032","img/neutralC/CFD-BF-226-119-N.jpg","img/neutralC/CFD-BF-229-179-N.jpg","img/neutralC/CFD-IM-743-006-N.jpg","0","1","1","1","0","1",NA,"0.615287400083616","0.51873579993844","0","1","1","0","1","1","0","1","1"
"250032","img/neutralC/CFD-IM-743-006-N.jpg","img/neutralC/CFD-BF-226-119-N.jpg","img/neutralC/CFD-BF-232-187-N.jpg","1","0","0","1","1","1","0.51873579993844",NA,NA,"1","0","0","1","0","0","1","0","0"
"250032","img/neutralC/CFD-BF-232-187-N.jpg","img/neutralC/CFD-IM-743-006-N.jpg","img/neutralC/CFD-WF-214-122-N.jpg","0","1","0","1","1","1",NA,"0.51873579993844",NA,"0","1","0","0","1","0","0","1","0"
"250032","img/neutralC/CFD-WF-214-122-N.jpg","img/neutralC/CFD-BF-232-187-N.jpg","img/neutralC/CFD-BF-038-037-N.jpg","0","0","0","1","1","1",NA,NA,NA,"0","0","0","0","0","0","0","0","0"
"250032","img/neutralC/CFD-BF-038-037-N.jpg","img/neutralC/CFD-WF-214-122-N.jpg","img/neutralC/CFD-LF-218-072-N.jpg","0","0","0","1","1","0",NA,NA,NA,"0","0","0","0","0","0","0","0","0"
"250032","img/neutralC/CFD-LF-218-072-N.jpg","img/neutralC/CFD-BF-038-037-N.jpg","img/neutralC/CFD-WF-200-099-N.jpg","0","0","1","0","1","0",NA,NA,"0.519766599987634","0","0","1","0","0","1","0","0","1"
"250032","img/neutralC/CFD-WF-200-099-N.jpg","img/neutralC/CFD-LF-218-072-N.jpg","img/neutralC/CFD-BM-253-004-N.jpg","1","0","0","0","0","1","0.519766599987634",NA,NA,"1","0","0","1","0","0","1","0","0"
"250032","img/neutralC/CFD-BM-253-004-N.jpg","img/neutralC/CFD-WF-200-099-N.jpg","img/neutralC/CFD-WM-219-008-N.jpg","0","1","0","1","0","0",NA,"0.519766599987634",NA,"0","1","0","0","1","0","0","1","0"
"250032","img/neutralC/CFD-WM-219-008-N.jpg","img/neutralC/CFD-BM-253-004-N.jpg","img/neutralC/CFD-LM-228-188-N.jpg","0","0","1","0","1","1",NA,NA,"0.429301799973473","0","0","1","0","0","1","0","0","1"
"250032","img/neutralC/CFD-LM-228-188-N.jpg","img/neutralC/CFD-WM-219-008-N.jpg","img/neutralC/CFD-MF-352-054-N.jpg","1","0","0","1","0","0","0.429301799973473",NA,NA,"1","0","0","1","0","0","1","0","0"
"250032","img/neutralC/CFD-MF-352-054-N.jpg","img/neutralC/CFD-LM-228-188-N.jpg","img/neutralC/CFD-LM-237-264-N.jpg","0","1","0","0","1","0",NA,"0.429301799973473",NA,"0","1","0","0","1","0","0","1","0"
"250032","img/neutralC/CFD-LM-237-264-N.jpg","img/neutralC/CFD-MF-352-054-N.jpg","img/neutralC/CFD-IM-616-214-N.jpg","0","0","1","0","0","0",NA,NA,"0.55923479993362","0","0","1","0","0","1","0","0","1"
"250032","img/neutralC/CFD-IM-616-214-N.jpg","img/neutralC/CFD-LM-237-264-N.jpg","img/neutralC/CFD-AM-242-176-N.jpg","1","0","1","0","0","1","0.55923479993362",NA,"0.485823899973184","1","0","1","1","0","1","1","0","1"
"250032","img/neutralC/CFD-AM-242-176-N.jpg","img/neutralC/CFD-IM-616-214-N.jpg","img/neutralC/CFD-WF-036-023-N.jpg","1","1","0","1","0","0","0.485823899973184","0.55923479993362",NA,"1","1","0","1","1","0","1","1","0"
"250032","img/neutralC/CFD-WF-036-023-N.jpg","img/neutralC/CFD-AM-242-176-N.jpg","img/neutralC/CFD-WM-004-010-N.jpg","0","1","1","0","1","0",NA,"0.485823899973184","0.517045899992809","0","1","1","0","1","1","0","1","1"
"250032","img/neutralC/CFD-WM-004-010-N.jpg","img/neutralC/CFD-WF-036-023-N.jpg","img/neutralC/CFD-BM-225-154-N.jpg","1","0","1","0","0","1","0.517045899992809",NA,"0.432825200026855","1","0","1","1","0","1","1","0","1"
"250032","img/neutralC/CFD-BM-225-154-N.jpg","img/neutralC/CFD-WM-004-010-N.jpg","img/neutralC/CFD-IM-671-601-N.jpg","1","1","0","1","0","0","0.432825200026855","0.517045899992809",NA,"1","1","0","1","1","0","1","1","0"
"250032","img/neutralC/CFD-IM-671-601-N.jpg","img/neutralC/CFD-BM-225-154-N.jpg","img/neutralC/CFD-MF-359-019-N.jpg","0","1","0","0","1","0",NA,"0.432825200026855",NA,"0","1","0","0","1","0","0","1","0"
"250032","img/neutralC/CFD-MF-359-019-N.jpg","img/neutralC/CFD-IM-671-601-N.jpg","img/neutralC/CFD-AM-211-052-N.jpg","0","0","1","0","0","1",NA,NA,"0.576553900027648","0","0","1","0","0","1","0","0","1"
"250032","img/neutralC/CFD-AM-211-052-N.jpg","img/neutralC/CFD-MF-359-019-N.jpg","img/neutralC/CFD-AM-251-124-N.jpg","1","0","1","1","0","0","0.576553900027648",NA,"0.528025300009176","1","0","1","1","0","1","1","0","1"
"250032","img/neutralC/CFD-AM-251-124-N.jpg","img/neutralC/CFD-AM-211-052-N.jpg","img/neutralC/CFD-WF-001-003-N.jpg","1","1","0","0","1","1","0.528025300009176","0.576553900027648",NA,"1","1","0","1","1","0","1","1","0"
"250032","img/neutralC/CFD-WF-001-003-N.jpg","img/neutralC/CFD-AM-251-124-N.jpg","img/neutralC/CFD-WM-020-001-N.jpg","0","1","0","1","0","1",NA,"0.528025300009176",NA,"0","1","0","0","1","0","0","1","0"
"250032","img/neutralC/CFD-WM-020-001-N.jpg","img/neutralC/CFD-WF-001-003-N.jpg",NA,"0","0",NA,"1","1",NA,NA,NA,NA,"0","0",NA,"0","0",NA,"0","0",NA
