"participant_id","face","surpAcc","memory_surp_responses","memory_surp_rt","keep_surp_memory_trial_based_on_rt","surp_block_num","exclude_block","number_of_surp_resp_items_used","num_blocks_excluded"
"250001","img/neutralC/CFD-LM-244-068-N.jpg","1","k","17.49437939981",1,1,0,2,0
"250001","img/neutralC/CFD-BF-202-109-N.jpg","0","k","9.67652579955757",1,1,0,2,0
"250001","img/neutralC/CFD-WF-221-005-N.jpg","0","k","3.76303599961102",1,1,0,2,0
"250001","img/neutralC/CFD-BF-041-001-N.jpg","1","k","3.38240279955789",1,1,0,2,0
"250001","img/neutralC/CFD-WF-029-002-N.jpg","1","s","3.56330619985238",1,1,0,2,0
"250001","img/neutralC/CFD-IM-743-006-N.jpg","1","k","5.78821049956605",1,1,0,2,0
"250001","img/neutralC/CFD-IM-635-010-N.jpg","1","s","2.46165789943188",1,1,0,2,0
"250001","img/neutralC/CFD-LF-203-066-N.jpg","1","s","5.20952779985964",1,1,0,2,0
"250001","img/neutralC/CFD-AF-254-167-N.jpg","1","k","3.35629579983652",1,1,0,2,0
"250001","img/neutralC/CFD-WF-228-196-N.jpg","1","k","2.7522972994484",1,1,0,2,0
"250001","img/neutralC/CFD-IF-625-225-N.jpg","0","k","11.6135289995",1,1,0,2,0
"250001","img/neutralC/CFD-BF-236-177-N.jpg","1","k","1.79273039940745",1,1,0,2,0
"250001","img/neutralC/CFD-LF-211-003-N.jpg","1","s","9.15334129985422",1,1,0,2,0
"250001","img/neutralC/CFD-IF-642-295-N.jpg","1","s","2.25818229978904",1,1,0,2,0
"250001","img/neutralC/CFD-LF-239-148-N.jpg","1","s","7.86538339965045",1,1,0,2,0
"250001","img/neutralC/CFD-IM-606-008-N.jpg","1","s","3.08635789947584",1,1,0,2,0
"250001","img/neutralC/CFD-AF-240-206-N.jpg","0","k","4.52778390003368",1,1,0,2,0
"250001","img/neutralC/CFD-BF-217-189-N.jpg","1","k","6.18485269974917",1,1,0,2,0
"250001","img/neutralC/CFD-AF-205-155-N.jpg","1","s","2.23480329941958",1,1,0,2,0
"250001","img/neutralC/CFD-LF-242-121-N.jpg","0","s","2.53952229954302",1,1,0,2,0
"250001","img/neutralC/CFD-WF-245-084-N.jpg","0","s","1.45966229960322",1,1,0,2,0
"250001","img/neutralC/CFD-MF-336-016-N.jpg","1","s","4.31274889968336",1,1,0,2,0
"250001","img/neutralC/CFD-WM-249-239-N.jpg","1","k","3.55338299972937",1,1,0,2,0
"250001","img/neutralC/CFD-AM-221-184-N.jpg","1","s","3.45104499952868",1,1,0,2,0
"250001","img/neutralC/CFD-BF-201-080-N.jpg","1","s","11.8992607994005",1,1,0,2,0
"250001","img/neutralC/CFD-WF-002-004-N.jpg","1","k","8.54550379933789",1,1,0,2,0
"250001","img/neutralC/CFD-WF-243-148-N.jpg","0","s","2.13450169935822",1,1,0,2,0
"250001","img/neutralC/CFD-AM-236-090-N.jpg","1","s","6.49831309961155",1,1,0,2,0
"250001","img/neutralC/CFD-WF-207-014-N.jpg","1","k","1.49073599977419",1,1,0,2,0
"250001","img/neutralC/CFD-BM-027-001-N.jpg","0","s","2.28855219949037",1,1,0,2,0
"250001","img/neutralC/CFD-IM-684-008-N.jpg","1","k","2.96492859954014",1,1,0,2,0
"250001","img/neutralC/CFD-IM-638-250-1-N.jpg","1","s","4.86995099997148",1,1,0,2,0
"250001","img/neutralC/CFD-WM-021-001-N.jpg","1","s","6.4342489996925",1,1,0,2,0
"250001","img/neutralC/CFD-MF-340-026-N.jpg","1","k","7.06750619970262",1,1,0,2,0
"250001","img/neutralC/CFD-AF-233-190-N.jpg","0","k","27.9129351996817",1,1,0,2,0
"250001","img/neutralC/CFD-MF-328-020-N.jpg","1","k","1.52867439948022",1,1,0,2,0
"250001","img/neutralC/CFD-BF-207-004-N.jpg","1","s","7.28457789961249",1,1,0,2,0
"250001","img/neutralC/CFD-BF-014-002-N.jpg","0","s","3.94051430001855",1,1,0,2,0
"250001","img/neutralC/CFD-BM-029-024-N.jpg","0","s","3.12526839924976",1,1,0,2,0
"250001","img/neutralC/CFD-AM-220-134-N.jpg","1","s","2.57365919975564",1,1,0,2,0
"250001","img/neutralC/CFD-BF-237-172-N.jpg","0","s","2.64407179923728",1,1,0,2,0
"250001","img/neutralC/CFD-WF-224-099-N.jpg","0","s","3.33806609967723",1,1,0,2,0
"250001","img/neutralC/CFD-WF-027-003-N.jpg","1","k","7.31547809951007",1,1,0,2,0
"250001","img/neutralC/CFD-WM-225-127-N.jpg","1","s","2.22671499941498",1,1,0,2,0
"250001","img/neutralC/CFD-WF-005-010-N.jpg","1","k","1.71483209962025",1,1,0,2,0
"250001","img/neutralC/CFD-WM-221-091-N.jpg","1","s","4.22621779935434",1,1,0,2,0
"250001","img/neutralC/CFD-LM-252-076-N.jpg","1","s","5.25722599960864",1,1,0,2,0
"250001","img/neutralC/CFD-BM-010-003-N.jpg","1","s","7.03742319950834",1,1,0,2,0
"250001","img/neutralC/CFD-LM-200-045-N.jpg","0","k","6.53973089950159",1,2,0,2,0
"250001","img/neutralC/CFD-LF-222-147-N.jpg","1","k","6.41000839928165",1,2,0,2,0
"250001","img/neutralC/CFD-LM-226-175-N.jpg","0","k","3.56038129981607",1,2,0,2,0
"250001","img/neutralC/CFD-LF-212-066-N.jpg","0","k","1.92381349951029",1,2,0,2,0
"250001","img/neutralC/CFD-WM-018-002-N.jpg","0","s","2.56128579983488",1,2,0,2,0
"250001","img/neutralC/CFD-WF-007-001-N.jpg","0","k","2.32328489981592",1,2,0,2,0
"250001","img/neutralC/CFD-BF-232-187-N.jpg","0","s","2.22487259982154",1,2,0,2,0
"250001","img/neutralC/CFD-AF-221-147-N.jpg","1","k","4.42538639949635",1,2,0,2,0
"250001","img/neutralC/CFD-BM-250-170-N.jpg","1","k","5.07686339970678",1,2,0,2,0
"250001","img/neutralC/CFD-BM-247-240-N.jpg","1","k","8.95041889930144",1,2,0,2,0
"250001","img/neutralC/CFD-BM-013-002-N.jpg","1","k","16.0392871997319",1,2,0,2,0
"250001","img/neutralC/CFD-BM-018-001-N.jpg","1","k","5.75214669946581",1,2,0,2,0
"250001","img/neutralC/CFD-BF-039-031-N.jpg","1","s","3.62859029974788",1,2,0,2,0
"250001","img/neutralC/CFD-WF-006-002-N.jpg","1","s","2.26379759935662",1,2,0,2,0
"250001","img/neutralC/CFD-LF-208-127-N.jpg","0","s","6.39149269973859",1,2,0,2,0
"250001","img/neutralC/CFD-WF-238-023-N.jpg","1","s","2.44879109971225",1,2,0,2,0
"250001","img/neutralC/CFD-AM-230-150-N.jpg","0","k","3.67132499953732",1,2,0,2,0
"250001","img/neutralC/CFD-WM-024-015-N.jpg","0","k","3.91653269948438",1,2,0,2,0
"250001","img/neutralC/CFD-BF-212-315-N.jpg","0","k","2.83501839963719",1,2,0,2,0
"250001","img/neutralC/CFD-IM-703-182-N.jpg","1","k","2.62397639965639",1,2,0,2,0
"250001","img/neutralC/CFD-LM-243-075-N.jpg","1","k","3.65591849992052",1,2,0,2,0
"250001","img/neutralC/CFD-BF-020-002-N.jpg","1","s","4.90702549973503",1,2,0,2,0
"250001","img/neutralC/CFD-BF-028-001-N.jpg","0","s","1.87612859997898",1,2,0,2,0
"250001","img/neutralC/CFD-MF-301-024-N.jpg","1","k","6.03804949996993",1,2,0,2,0
"250001","img/neutralC/CFD-IM-696-001-N.jpg","1","k","1.86159489955753",1,2,0,2,0
"250001","img/neutralC/CFD-LM-238-129-N.jpg","1","k","1.45631549973041",1,2,0,2,0
"250001","img/neutralC/CFD-MF-309-002-N.jpg","0","k","1.96700019948184",1,2,0,2,0
"250001","img/neutralC/CFD-LF-214-090-N.jpg","0","s","4.70128189958632",1,2,0,2,0
"250001","img/neutralC/CFD-AM-247-165-N.jpg","1","s","1.99603139981627",1,2,0,2,0
"250001","img/neutralC/CFD-AF-215-70-N.jpg","1","k","1.76390579948202",1,2,0,2,0
"250001","img/neutralC/CFD-MF-335-002-N.jpg","0","s","4.63568340009078",1,2,0,2,0
"250001","img/neutralC/CFD-WF-226-095-N.jpg","0","s","2.08013319969177",1,2,0,2,0
"250001","img/neutralC/CFD-IM-675-015-N.jpg","1","s","4.88623399985954",1,2,0,2,0
"250001","img/neutralC/CFD-WF-209-052-N.jpg","1","k","3.35188609967008",1,2,0,2,0
"250001","img/neutralC/CFD-BF-226-119-N.jpg","1","k","1.49904329981655",1,2,0,2,0
"250001","img/neutralC/CFD-WF-235-121-N.jpg","1","k","3.16750569967553",1,2,0,2,0
"250001","img/neutralC/CFD-BM-001-014-N.jpg","1","s","1.12350839935243",1,2,0,2,0
"250001","img/neutralC/CFD-AM-245-111-N.jpg","1","s","3.70746209938079",1,2,0,2,0
"250001","img/neutralC/CFD-WM-253-119-N.jpg","0","k","4.85920169949532",1,2,0,2,0
"250001","img/neutralC/CFD-MF-318-022-N.jpg","0","k","2.84896089928225",1,2,0,2,0
"250001","img/neutralC/CFD-AM-235-241-N.jpg","1","s","4.89664659975097",1,2,0,2,0
"250001","img/neutralC/CFD-AF-237-223-N.jpg","1","k","1.47135339956731",1,2,0,2,0
"250001","img/neutralC/CFD-BF-010-001-N.jpg","1","k","5.23989579966292",1,2,0,2,0
"250001","img/neutralC/CFD-AF-229-160-N.jpg","1","s","8.92280599987134",1,2,0,2,0
"250001","img/neutralC/CFD-BF-002-001-N.jpg","1","s","1.57628899998963",1,2,0,2,0
"250001","img/neutralC/CFD-LM-219-295-N.jpg","1","s","2.3638520995155",1,2,0,2,0
"250001","img/neutralC/CFD-LM-218-183-N.jpg","0","k","1.51545139960945",1,2,0,2,0
"250001","img/neutralC/CFD-WM-006-002-N.jpg","0","k","2.46646389970556",1,2,0,2,0
"250001","img/neutralC/CFD-BM-019-002-N.jpg","0","s","2.57031249953434",1,3,0,2,0
"250001","img/neutralC/CFD-BF-042-026-N.jpg","0","k","3.83994109975174",1,3,0,2,0
"250001","img/neutralC/CFD-BF-254-201-N.jpg","1","k","3.38019109936431",1,3,0,2,0
"250001","img/neutralC/CFD-BF-214-308-N.jpg","1","k","1.59631899977103",1,3,0,2,0
"250001","img/neutralC/CFD-IF-676-017-N.jpg","1","k","1.78816439956427",1,3,0,2,0
"250001","img/neutralC/CFD-WF-241-210-N.jpg","1","k","1.62013669963926",1,3,0,2,0
"250001","img/neutralC/CFD-LF-236-221-N.jpg","1","k","2.83022349979728",1,3,0,2,0
"250001","img/neutralC/CFD-MF-343-001-N.jpg","0","k","1.22550359973684",1,3,0,2,0
"250001","img/neutralC/CFD-WF-222-092-N.jpg","0","k","2.54872149974108",1,3,0,2,0
"250001","img/neutralC/CFD-MF-337-026-N.jpg","1","k","2.52053559944034",1,3,0,2,0
"250001","img/neutralC/CFD-LF-218-072-N.jpg","1","s","2.16774329962209",1,3,0,2,0
"250001","img/neutralC/CFD-LM-253-075-N.jpg","1","s","2.29426659969613",1,3,0,2,0
"250001","img/neutralC/CFD-BF-253-202-N.jpg","1","k","3.13155269948766",1,3,0,2,0
"250001","img/neutralC/CFD-BF-222-240-N.jpg","1","k","1.06679189950228",1,3,0,2,0
"250001","img/neutralC/CFD-BM-243-218-N.jpg","1","s","1.07871969975531",1,3,0,2,0
"250001","img/neutralC/CFD-IM-697-015-N.jpg","1","k","2.07415589969605",1,3,0,2,0
"250001","img/neutralC/CFD-LM-215-247-N.jpg","1","s","2.0800714995712",1,3,0,2,0
"250001","img/neutralC/CFD-IM-719-221-N.jpg","1","s","0.941481599584222",1,3,0,2,0
"250001","img/neutralC/CFD-LF-247-051-N.jpg","0","s","3.11694550001994",1,3,0,2,0
"250001","img/neutralC/CFD-IM-604-014-N.jpg","1","k","2.57096989965066",1,3,0,2,0
"250001","img/neutralC/CFD-WM-002-009-N.jpg","1","k","1.52640939969569",1,3,0,2,0
"250001","img/neutralC/CFD-IM-616-214-N.jpg","1","s","2.52614169986919",1,3,0,2,0
"250001","img/neutralC/CFD-BM-225-154-N.jpg","0","s","7.58640989940614",1,3,0,2,0
"250001","img/neutralC/CFD-IF-629-234-N.jpg","0","k","1.31371719995514",1,3,0,2,0
"250001","img/neutralC/CFD-IM-646-023-N.jpg","1","k","2.73733579972759",1,3,0,2,0
"250001","img/neutralC/CFD-LF-230-203-N.jpg","1","k","1.82042819960043",1,3,0,2,0
"250001","img/neutralC/CFD-LF-238-154-N.jpg","0","k","2.08815239975229",1,3,0,2,0
"250001","img/neutralC/CFD-IF-620-218-N.jpg","1","s","1.84208969958127",1,3,0,2,0
"250001","img/neutralC/CFD-BM-241-235-N.jpg","1","s","2.16565259965137",1,3,0,2,0
"250001","img/neutralC/CFD-BM-215-155-N.jpg","1","k","4.01355979964137",1,3,0,2,0
"250001","img/neutralC/CFD-LF-250-169-N.jpg","1","s","3.45489689987153",1,3,0,2,0
"250001","img/neutralC/CFD-LM-214-165-N.jpg","0","s","4.35330629954115",1,3,0,2,0
"250001","img/neutralC/CFD-WM-237-052-N.jpg","1","k","5.24963639955968",1,3,0,2,0
"250001","img/neutralC/CFD-AF-202-122-N.jpg","0","k","7.52483779937029",1,3,0,2,0
"250001","img/neutralC/CFD-WM-041-021-N.jpg","0","k","1.31569549953565",1,3,0,2,0
"250001","img/neutralC/CFD-IF-608-390-N.jpg","0","s","1.39027109974995",1,3,0,2,0
"250001","img/neutralC/CFD-IM-615-167-N.jpg","1","k","2.60393159929663",1,3,0,2,0
"250001","img/neutralC/CFD-LM-233-171-N.jpg","0","s","9.65823230007663",1,3,0,2,0
"250001","img/neutralC/CFD-IM-702-101-N.jpg","1","k","1.19307899940759",1,3,0,2,0
"250001","img/neutralC/CFD-AM-244-222-N.jpg","1","k","1.15031029935926",1,3,0,2,0
"250001","img/neutralC/CFD-BF-006-017-N.jpg","1","s","1.45957169961184",1,3,0,2,0
"250001","img/neutralC/CFD-WF-223-133-N.jpg","0","k","9.9758272995241",1,3,0,2,0
"250001","img/neutralC/CFD-AF-206-079-N.jpg","0","k","1.38233719998971",1,3,0,2,0
"250001","img/neutralC/CFD-MF-302-027-N.jpg","1","k","1.55724109942093",1,3,0,2,0
"250001","img/neutralC/CFD-BM-021-021-N.jpg","1","s","5.11633519968018",1,3,0,2,0
"250001","img/neutralC/CFD-LF-210-220-N.jpg","1","k","1.31416499940678",1,3,0,2,0
"250001","img/neutralC/CFD-IM-637-007-N.jpg","0","k","6.66961719933897",1,3,0,2,0
"250001","img/neutralC/CFD-WF-018-017-N.jpg","1","s","0.91099159931764",1,3,0,2,0
"250001","img/neutralC/CFD-WM-025-002-N.jpg","0","k","1.32577079953626",1,4,0,2,0
"250001","img/neutralC/CFD-MF-342-022-N.jpg","0","k","2.79338889988139",1,4,0,2,0
"250001","img/neutralC/CFD-WF-210-086-N.jpg","0","s","2.55122649949044",1,4,0,2,0
"250001","img/neutralC/CFD-MF-327-002-N.jpg","1","s","2.75839639967307",1,4,0,2,0
"250001","img/neutralC/CFD-BM-211-174-N.jpg","1","s","1.20937669975683",1,4,0,2,0
"250001","img/neutralC/CFD-WM-040-022-N.jpg","1","s","2.36185309989378",1,4,0,2,0
"250001","img/neutralC/CFD-BM-033-003-N.jpg","1","k","1.14805359952152",1,4,0,2,0
"250001","img/neutralC/CFD-MF-303-013-N.jpg","1","k","2.65736769977957",1,4,0,2,0
"250001","img/neutralC/CFD-LF-226-174-N.jpg","1","k","1.97729649953544",1,4,0,2,0
"250001","img/neutralC/CFD-MF-312-002-N.jpg","0","k","2.67464879946783",1,4,0,2,0
"250001","img/neutralC/CFD-IM-653-008-N.jpg","1","k","0.871841399464756",1,4,0,2,0
"250001","img/neutralC/CFD-AM-243-212-N.jpg","1","k","1.45634189946577",1,4,0,2,0
"250001","img/neutralC/CFD-IM-648-337-N.jpg","1","k","0.836369699798524",1,4,0,2,0
"250001","img/neutralC/CFD-WF-012-002-N.jpg","0","k","1.80986299971119",1,4,0,2,0
"250001","img/neutralC/CFD-IM-685-004-N.jpg","0","s","4.76719399960712",1,4,0,2,0
"250001","img/neutralC/CFD-MF-329-001-N.jpg","0","s","2.89338959986344",1,4,0,2,0
"250001","img/neutralC/CFD-AM-249-163-N.jpg","1","s","1.73369399970397",1,4,0,2,0
"250001","img/neutralC/CFD-LF-220-120-N.jpg","0","k","2.9647733992897",1,4,0,2,0
"250001","img/neutralC/CFD-BF-213-188-N.jpg","0","k","3.32552249962464",1,4,0,2,0
"250001","img/neutralC/CFD-WM-257-161-N.jpg","1","k","2.79060149984434",1,4,0,2,0
"250001","img/neutralC/CFD-AM-205-153-N.jpg","0","s","1.43189359968528",1,4,0,2,0
"250001","img/neutralC/CFD-WM-026-001-N.jpg","0","s","3.1342658996582",1,4,0,2,0
"250001","img/neutralC/CFD-IM-727-195-N.jpg","0","s","3.30542019940913",1,4,0,2,0
"250001","img/neutralC/CFD-BF-029-031-N.jpg","1","k","1.26176190003753",1,4,0,2,0
"250001","img/neutralC/CFD-MF-316-001-N.jpg","0","s","1.68636079970747",1,4,0,2,0
"250001","img/neutralC/CFD-LF-205-100-N.jpg","1","k","1.59093579929322",1,4,0,2,0
"250001","img/neutralC/CFD-IM-721-341-N.jpg","0","s","3.13745469972491",1,4,0,2,0
"250001","img/neutralC/CFD-IF-732-260-N.jpg","1","k","1.55616449937224",1,4,0,2,0
"250001","img/neutralC/CFD-AM-201-076-N.jpg","1","k","1.14330299943686",1,4,0,2,0
"250001","img/neutralC/CFD-WF-248-129-N.jpg","1","k","1.53919719951227",1,4,0,2,0
"250001","img/neutralC/CFD-BM-212-117-N.jpg","0","s","20.6409444999881",1,4,0,2,0
"250001","img/neutralC/CFD-IF-742-103-N.jpg","1","k","1.86844419967383",1,4,0,2,0
"250001","img/neutralC/CFD-WM-232-070-N.jpg","0","s","1.30967759992927",1,4,0,2,0
"250001","img/neutralC/CFD-MF-357-002-N.jpg","1","s","2.19093369971961",1,4,0,2,0
"250001","img/neutralC/CFD-BF-224-002-N.jpg","0","k","1.19801229983568",1,4,0,2,0
"250001","img/neutralC/CFD-BM-248-128-N.jpg","1","k","1.64947829954326",1,4,0,2,0
"250001","img/neutralC/CFD-BM-204-003-N.jpg","1","k","1.70998649997637",1,4,0,2,0
"250001","img/neutralC/CFD-AF-241-141-N.jpg","1","k","0.99167549982667",1,4,0,2,0
"250001","img/neutralC/CFD-LM-225-130-N.jpg","0","s","1.44820239953697",1,4,0,2,0
"250001","img/neutralC/CFD-WF-214-122-N.jpg","0","k","1.10388499964029",1,4,0,2,0
"250001","img/neutralC/CFD-WF-009-001-N.jpg","0","k","0.949484799988568",1,4,0,2,0
"250001","img/neutralC/CFD-AF-210-050-N.jpg","0","k","3.16807609936222",1,4,0,2,0
"250001","img/neutralC/CFD-IM-709-103-N.jpg","1","k","0.965634399559349",1,4,0,2,0
"250001","img/neutralC/CFD-IF-729-393-N.jpg","1","k","2.02591650001705",1,4,0,2,0
"250001","img/neutralC/CFD-BF-206-143-N.jpg","1","k","4.61616999935359",1,4,0,2,0
"250001","img/neutralC/CFD-BM-200-046-N.jpg","0","s","2.01484369952232",1,4,0,2,0
"250001","img/neutralC/CFD-IF-650-315-N.jpg","1","k","1.91457539936528",1,4,0,2,0
"250001","img/neutralC/CFD-IM-706-002-N.jpg","1","k","2.21418519923463",1,4,0,2,0
"250001","img/neutralC/CFD-LM-217-162-N.jpg","0","s","1.79812129959464",1,5,0,2,0
"250001","img/neutralC/CFD-WM-014-002-N.jpg","0","k","1.87475759955123",1,5,0,2,0
"250001","img/neutralC/CFD-BM-005-003-N.jpg","1","k","1.36961819976568",1,5,0,2,0
"250001","img/neutralC/CFD-MM-321-021-N.jpg","0","k","1.02293749991804",1,5,0,2,0
"250001","img/neutralC/CFD-BF-255-140-N.jpg","1","s","1.41691019991413",1,5,0,2,0
"250001","img/neutralC/CFD-WM-213-076-N.jpg","1","k","1.46863059978932",1,5,0,2,0
"250001","img/neutralC/CFD-AF-232-078-N.jpg","0","k","2.73636979935691",1,5,0,2,0
"250001","img/neutralC/CFD-IM-701-312-N.jpg","1","k","2.29202309949324",1,5,0,2,0
"250001","img/neutralC/CFD-IF-677-452-1-N.jpg","1","s","1.476325399708",1,5,0,2,0
"250001","img/neutralC/CFD-BF-027-002-N.jpg","1","k","2.17611650004983",1,5,0,2,0
"250001","img/neutralC/CFD-AM-212-050-N.jpg","1","s","5.87376279989258",1,5,0,2,0
"250001","img/neutralC/CFD-BF-038-037-N.jpg","1","s","4.40825099963695",1,5,0,2,0
"250001","img/neutralC/CFD-LF-206-078-N.jpg","1","s","2.69305099966004",1,5,0,2,0
"250001","img/neutralC/CFD-AM-251-124-N.jpg","0","k","0.948454899713397",1,5,0,2,0
"250001","img/neutralC/CFD-MM-316-156-N.jpg","1","s","1.32776779960841",1,5,0,2,0
"250001","img/neutralC/CFD-LM-216-082-N.jpg","0","s","6.01563399937004",1,5,0,2,0
"250001","img/neutralC/CFD-AF-227-207-N.jpg","1","s","4.57903909962624",1,5,0,2,0
"250001","img/neutralC/CFD-WF-008-002-N.jpg","0","k","1.10287499940023",1,5,0,2,0
"250001","img/neutralC/CFD-WM-202-107-N.jpg","1","k","1.80502439988777",1,5,0,2,0
"250001","img/neutralC/CFD-WF-026-002-N.jpg","1","s","1.39695489965379",1,5,0,2,0
"250001","img/neutralC/CFD-LF-241-188-N.jpg","1","k","2.6446595992893",1,5,0,2,0
"250001","img/neutralC/CFD-BF-238-190-N.jpg","0","s","1.39974289946258",1,5,0,2,0
"250001","img/neutralC/CFD-WF-036-023-N.jpg","1","k","2.06492339959368",1,5,0,2,0
"250001","img/neutralC/CFD-AF-213-126-N.jpg","0","s","2.28911889949813",1,5,0,2,0
"250001","img/neutralC/CFD-BM-039-029-N.jpg","0","k","1.16412779968232",1,5,0,2,0
"250001","img/neutralC/CFD-BF-045-003-N.jpg","1","s","1.99162359954789",1,5,0,2,0
"250001","img/neutralC/CFD-BM-251-013-N.jpg","0","s","1.60963089950383",1,5,0,2,0
"250001","img/neutralC/CFD-BF-018-039-N.jpg","1","k","1.63101379945874",1,5,0,2,0
"250001","img/neutralC/CFD-BF-033-028-N.jpg","1","s","1.13212959934026",1,5,0,2,0
"250001","img/neutralC/CFD-WM-209-038-N.jpg","0","s","3.31069779954851",1,5,0,2,0
"250001","img/neutralC/CFD-BF-208-266-N.jpg","1","s","1.61443209974095",1,5,0,2,0
"250001","img/neutralC/CFD-WM-254-152-N.jpg","0","k","2.53191609960049",1,5,0,2,0
"250001","img/neutralC/CFD-AF-244-168-N.jpg","1","k","2.61911939969286",1,5,0,2,0
"250001","img/neutralC/CFD-IF-673-389-N.jpg","1","k","5.17357359966263",1,5,0,2,0
"250001","img/neutralC/CFD-AM-225-102-N.jpg","0","s","2.29986909963191",1,5,0,2,0
"250001","img/neutralC/CFD-IM-639-263-N.jpg","1","s","5.34935439936817",1,5,0,2,0
"250001","img/neutralC/CFD-WM-258-125-N.jpg","1","k","1.48395919986069",1,5,0,2,0
"250001","img/neutralC/CFD-BF-003-003-N.jpg","0","s","1.38279809989035",1,5,0,2,0
"250001","img/neutralC/CFD-AM-242-176-N.jpg","1","k","1.27261189976707",1,5,0,2,0
"250001","img/neutralC/CFD-LF-255-088-N.jpg","0","s","1.46144099952653",1,5,0,2,0
"250001","img/neutralC/CFD-WM-038-003-N.jpg","0","k","1.28000369947404",1,5,0,2,0
"250001","img/neutralC/CFD-WM-255-219-N.jpg","0","k","1.54725169949234",1,5,0,2,0
"250001","img/neutralC/CFD-IM-659-359-N.jpg","1","k","2.34760199999437",1,5,0,2,0
"250001","img/neutralC/CFD-BF-025-002-N.jpg","0","s","2.83978229947388",1,5,0,2,0
"250001","img/neutralC/CFD-IM-680-369-N.jpg","0","k","2.11888339975849",1,5,0,2,0
"250001","img/neutralC/CFD-IM-738-191-N.jpg","1","s","1.06223269971088",1,5,0,2,0
"250001","img/neutralC/CFD-LM-204-001-N.jpg","0","k","1.21309089940041",1,5,0,2,0
"250001","img/neutralC/CFD-BF-004-014-N.jpg","1","k","2.66058199945837",1,5,0,2,0
"250001","img/neutralC/CFD-BF-043-003-N.jpg","1","s","7.22125629941002",1,6,0,2,0
"250001","img/neutralC/CFD-WM-228-065-N.jpg","1","s","6.93615229986608",1,6,0,2,0
"250001","img/neutralC/CFD-BM-207-024-N.jpg","0","k","1.00044919969514",1,6,0,2,0
"250001","img/neutralC/CFD-BF-218-207-N.jpg","1","s","1.93951819976792",1,6,0,2,0
"250001","img/neutralC/CFD-MF-321-003-N.jpg","1","k","1.82705119950697",1,6,0,2,0
"250001","img/neutralC/CFD-BM-217-082-N.jpg","1","k","3.37818349990994",1,6,0,2,0
"250001","img/neutralC/CFD-IF-710-016-N.jpg","0","k","2.66198359942064",1,6,0,2,0
"250001","img/neutralC/CFD-BF-051-035-N.jpg","1","k","3.5668389997445",1,6,0,2,0
"250001","img/neutralC/CFD-WM-017-002-N.jpg","0","k","1.28956939978525",1,6,0,2,0
"250001","img/neutralC/CFD-WM-248-036-N.jpg","1","s","1.50939399935305",1,6,0,2,0
"250001","img/neutralC/CFD-WF-023-003-N.jpg","0","k","1.58766249939799",1,6,0,2,0
"250001","img/neutralC/CFD-IM-669-111-N.jpg","1","s","0.963629900012165",1,6,0,2,0
"250001","img/neutralC/CFD-WM-219-008-N.jpg","0","k","2.29415799956769",1,6,0,2,0
"250001","img/neutralC/CFD-BM-015-015-N.jpg","1","s","1.86004749964923",1,6,0,2,0
"250001","img/neutralC/CFD-IF-672-305-N.jpg","1","k","1.74742149980739",1,6,0,2,0
"250001","img/neutralC/CFD-LM-237-264-N.jpg","1","s","5.44494059961289",1,6,0,2,0
"250001","img/neutralC/CFD-AF-239-171-N.jpg","1","k","1.22158459946513",1,6,0,2,0
"250001","img/neutralC/CFD-IM-689-263-N.jpg","0","s","1.14834939967841",1,6,0,2,0
"250001","img/neutralC/CFD-WM-019-003-N.jpg","0","s","1.01266569970176",1,6,0,2,0
"250001","img/neutralC/CFD-WM-015-002-N.jpg","0","s","1.17946119932458",1,6,0,2,0
"250001","img/neutralC/CFD-AF-250-200-N.jpg","1","k","1.05256149964407",1,6,0,2,0
"250001","img/neutralC/CFD-IF-693-172-N.jpg","1","s","0.908027499914169",1,6,0,2,0
"250001","img/neutralC/CFD-IM-651-308-N.jpg","0","k","0.609346699900925",1,6,0,2,0
"250001","img/neutralC/CFD-AM-211-052-N.jpg","1","k","1.58993539959192",1,6,0,2,0
"250001","img/neutralC/CFD-WM-242-011-N.jpg","0","s","1.4501936994493",1,6,0,2,0
"250001","img/neutralC/CFD-BM-023-029-N.jpg","1","k","1.5444334000349",1,6,0,2,0
"250001","img/neutralC/CFD-MM-306-010-N.jpg","0","k","1.42449929984286",1,6,0,2,0
"250001","img/neutralC/CFD-WF-208-068-N.jpg","1","k","1.98059809952974",1,6,0,2,0
"250001","img/neutralC/CFD-LF-224-176-N.jpg","1","k","2.61295369965956",1,6,0,2,0
"250001","img/neutralC/CFD-BM-003-003-N.jpg","1","s","1.380058999639",1,6,0,2,0
"250001","img/neutralC/CFD-BM-030-003-N.jpg","0","s","1.90988369937986",1,6,0,2,0
"250001","img/neutralC/CFD-LM-241-125-N.jpg","1","k","2.74602919956669",1,6,0,2,0
"250001","img/neutralC/CFD-IF-634-382-N.jpg","1","s","1.48486449941993",1,6,0,2,0
"250001","img/neutralC/CFD-WM-009-002-N.jpg","0","k","2.15696949977428",1,6,0,2,0
"250001","img/neutralC/CFD-BM-026-002-N.jpg","1","s","1.18443049956113",1,6,0,2,0
"250001","img/neutralC/CFD-BM-036-003-N.jpg","1","k","0.832121499814093",1,6,0,2,0
"250001","img/neutralC/CFD-LM-213-061-N.jpg","1","s","1.61718529975042",1,6,0,2,0
"250001","img/neutralC/CFD-BF-044-034-N.jpg","1","s","2.37461919942871",1,6,0,2,0
"250001","img/neutralC/CFD-IF-718-001-N.jpg","0","k","1.43622619984671",1,6,0,2,0
"250001","img/neutralC/CFD-WF-033-002-N.jpg","0","s","1.48645019950345",1,6,0,2,0
"250001","img/neutralC/CFD-IF-665-015-N.jpg","1","k","1.56647919956595",1,6,0,2,0
"250001","img/neutralC/CFD-IM-667-369-N.jpg","1","s","1.84616759978235",1,6,0,2,0
"250001","img/neutralC/CFD-IM-627-178-N.jpg","0","k","1.60845319973305",1,6,0,2,0
"250001","img/neutralC/CFD-MM-319-052-N.jpg","1","s","1.09960359986871",1,6,0,2,0
"250001","img/neutralC/CFD-IM-664-651-N.jpg","1","k","0.849996199831367",1,6,0,2,0
"250001","img/neutralC/CFD-WF-200-099-N.jpg","0","k","0.995564999524504",1,6,0,2,0
"250001","img/neutralC/CFD-WF-240-083-N.jpg","0","s","0.898304400034249",1,6,0,2,0
"250001","img/neutralC/CFD-MF-313-002-N.jpg","0","s","1.15903149964288",1,6,0,2,0
"250001","img/neutralC/CFD-BF-205-141-N.jpg","1","k","2.31726489961147",1,7,0,2,0
"250001","img/neutralC/CFD-IM-657-308-N.jpg","1","s","1.13616609992459",1,7,0,2,0
"250001","img/neutralC/CFD-AM-233-236-N.jpg","1","s","1.95326529955491",1,7,0,2,0
"250001","img/neutralC/CFD-WM-023-001-N.jpg","1","s","5.5857551000081",1,7,0,2,0
"250001","img/neutralC/CFD-MF-305-014-N.jpg","1","k","4.25285999942571",1,7,0,2,0
"250001","img/neutralC/CFD-WM-033-025-N.jpg","1","k","2.45002179965377",1,7,0,2,0
"250001","img/neutralC/CFD-BM-020-001-N.jpg","1","s","1.66574829956517",1,7,0,2,0
"250001","img/neutralC/CFD-WM-212-097-N.jpg","0","k","1.58160469960421",1,7,0,2,0
"250001","img/neutralC/CFD-MM-304-002-N.jpg","0","k","1.41511569963768",1,7,0,2,0
"250001","img/neutralC/CFD-LM-247-095-N.jpg","0","s","0.944876799359918",1,7,0,2,0
"250001","img/neutralC/CFD-BM-239-136-N.jpg","1","s","2.1346975993365",1,7,0,2,0
"250001","img/neutralC/CFD-IM-674-281-N.jpg","1","k","1.62324549956247",1,7,0,2,0
"250001","img/neutralC/CFD-WM-004-010-N.jpg","1","s","1.19666509982198",1,7,0,2,0
"250001","img/neutralC/CFD-WM-020-001-N.jpg","1","s","1.21651079971343",1,7,0,2,0
"250001","img/neutralC/CFD-LF-245-166-N.jpg","0","s","1.61221549939364",1,7,0,2,0
"250001","img/neutralC/CFD-WF-244-163-N.jpg","1","k","1.7692017997615",1,7,0,2,0
"250001","img/neutralC/CFD-LF-225-164-N.jpg","0","s","1.1150032998994",1,7,0,2,0
"250001","img/neutralC/CFD-BF-012-001-N.jpg","0","s","1.2655265997164",1,7,0,2,0
"250001","img/neutralC/CFD-AF-253-130-N.jpg","0","s","1.8552596992813",1,7,0,2,0
"250001","img/neutralC/CFD-WM-034-030-N.jpg","1","s","1.5831931992434",1,7,0,2,0
"250001","img/neutralC/CFD-IM-632-097-N.jpg","1","k","2.96347349928692",1,7,0,2,0
"250001","img/neutralC/CFD-WF-030-002-N.jpg","0","s","0.911347399931401",1,7,0,2,0
"250001","img/neutralC/CFD-IM-700-009-N.jpg","0","k","1.00832189945504",1,7,0,2,0
"250001","img/neutralC/CFD-LF-204-133-N.jpg","1","s","1.28587099956349",1,7,0,2,0
"250001","img/neutralC/CFD-WF-233-112-N.jpg","0","k","1.05053859949112",1,7,0,2,0
"250001","img/neutralC/CFD-AF-246-242-N.jpg","0","s","0.907737699802965",1,7,0,2,0
"250001","img/neutralC/CFD-WM-012-001-N.jpg","1","k","1.44927969947457",1,7,0,2,0
"250001","img/neutralC/CFD-BM-253-004-N.jpg","0","s","2.56771529931575",1,7,0,2,0
"250001","img/neutralC/CFD-BM-238-242-N.jpg","1","k","1.05975469946861",1,7,0,2,0
"250001","img/neutralC/CFD-BM-213-134-N.jpg","0","k","1.92408779961988",1,7,0,2,0
"250001","img/neutralC/CFD-IM-707-105-N.jpg","1","s","1.32140739960596",1,7,0,2,0
"250001","img/neutralC/CFD-WM-028-003-N.jpg","0","k","1.35065559996292",1,7,0,2,0
"250001","img/neutralC/CFD-IF-660-464-N.jpg","1","k","2.04661999968812",1,7,0,2,0
"250001","img/neutralC/CFD-WF-213-031-N.jpg","1","s","1.29335459927097",1,7,0,2,0
"250001","img/neutralC/CFD-IM-617-174-N.jpg","1","s","5.01628299988806",1,7,0,2,0
"250001","img/neutralC/CFD-MF-300-002-N.jpg","1","s","2.5678286999464",1,7,0,2,0
"250001","img/neutralC/CFD-WF-234-086-N.jpg","0","k","1.24594099959359",1,7,0,2,0
"250001","img/neutralC/CFD-BM-004-002-N.jpg","1","s","2.8569757998921",1,7,0,2,0
"250001","img/neutralC/CFD-WM-227-099-N.jpg","0","s","1.06095269974321",1,7,0,2,0
"250001","img/neutralC/CFD-IM-671-601-N.jpg","1","k","1.12470329971984",1,7,0,2,0
"250001","img/neutralC/CFD-BM-009-002-N.jpg","0","k","1.26231469959021",1,7,0,2,0
"250001","img/neutralC/CFD-AM-219-101-N.jpg","1","k","1.86416669981554",1,7,0,2,0
"250001","img/neutralC/CFD-MF-307-002-N.jpg","1","s","1.81511129951104",1,7,0,2,0
"250001","img/neutralC/CFD-IF-744-114-N.jpg","0","k","1.26502519985661",1,7,0,2,0
"250001","img/neutralC/CFD-WF-001-003-N.jpg","1","s","2.29666909947991",1,7,0,2,0
"250001","img/neutralC/CFD-BM-227-191-N.jpg","1","s","1.6951288995333",1,7,0,2,0
"250001","img/neutralC/CFD-WF-250-167-N.jpg","1","s","1.11977919982746",1,7,0,2,0
"250001","img/neutralC/CFD-WM-215-041-N.jpg","1","s","2.14631309965625",1,7,0,2,0
"250001","img/neutralC/CFD-BF-247-179-N.jpg","0","k","1.17917089955881",1,8,0,2,0
"250001","img/neutralC/CFD-BF-023-010-N.jpg","1","k","1.63206319976598",1,8,0,2,0
"250001","img/neutralC/CFD-IM-728-041-N.jpg","1","k","1.35777619993314",1,8,0,2,0
"250001","img/neutralC/CFD-MF-333-012-N.jpg","1","s","1.25530559988692",1,8,0,2,0
"250001","img/neutralC/CFD-AF-234-208-N.jpg","0","k","1.2560578994453",1,8,0,2,0
"250001","img/neutralC/CFD-BF-244-231-N.jpg","1","k","1.08476589946076",1,8,0,2,0
"250001","img/neutralC/CFD-WF-212-050-N.jpg","1","s","1.0636775996536",1,8,0,2,0
"250001","img/neutralC/CFD-WM-218-074-N.jpg","0","s","1.085838499479",1,8,0,2,0
"250001","img/neutralC/CFD-IF-619-197-N.jpg","1","k","0.969558699522167",1,8,0,2,0
"250001","img/neutralC/CFD-BF-036-027-N.jpg","0","k","1.52354789944366",1,8,0,2,0
"250001","img/neutralC/CFD-BF-228-212-N.jpg","0","k","1.28759499965236",1,8,0,2,0
"250001","img/neutralC/CFD-LF-215-157-N.jpg","0","k","1.33734939945862",1,8,0,2,0
"250001","img/neutralC/CFD-BM-231-155-N.jpg","1","s","1.4885428994894",1,8,0,2,0
"250001","img/neutralC/CFD-LF-216-121-N.jpg","0","k","1.73759479960427",1,8,0,2,0
"250001","img/neutralC/CFD-MM-324-069-N.jpg","1","s","1.16487189941108",1,8,0,2,0
"250001","img/neutralC/CFD-AM-215-120-N.jpg","0","k","1.00958089996129",1,8,0,2,0
"250001","img/neutralC/CFD-MF-359-019-N.jpg","1","s","1.06589079927653",1,8,0,2,0
"250001","img/neutralC/CFD-BF-204-189-N.jpg","1","s","1.02815359970555",1,8,0,2,0
"250001","img/neutralC/CFD-WM-011-002-N.jpg","0","s","1.31004409957677",1,8,0,2,0
"250001","img/neutralC/CFD-BM-205-001-N.jpg","0","k","0.734983399510384",1,8,0,2,0
"250001","img/neutralC/CFD-LF-201-035-N.jpg","0","k","0.954176699742675",1,8,0,2,0
"250001","img/neutralC/CFD-BM-041-035-N.jpg","0","k","1.28469249932095",1,8,0,2,0
"250001","img/neutralC/CFD-WF-022-017-N.jpg","0","k","1.97326629934832",1,8,0,2,0
"250001","img/neutralC/CFD-IF-636-011-N.jpg","1","k","1.16664799954742",1,8,0,2,0
"250001","img/neutralC/CFD-BF-229-179-N.jpg","1","k","1.66173069970682",1,8,0,2,0
"250001","img/neutralC/CFD-BM-028-002-N.jpg","0","s","1.5950462995097",1,8,0,2,0
"250001","img/neutralC/CFD-WM-235-147-N.jpg","1","s","2.02454679971561",1,8,0,2,0
"250001","img/neutralC/CFD-WM-201-063-N.jpg","1","s","1.07836079970002",1,8,0,2,0
"250001","img/neutralC/CFD-WF-017-003-N.jpg","1","s","1.57199149951339",1,8,0,2,0
"250001","img/neutralC/CFD-IM-726-248-N.jpg","1","k","1.50175409950316",1,8,0,2,0
"250001","img/neutralC/CFD-MM-317-061-N.jpg","0","s","1.05593029968441",1,8,0,2,0
"250001","img/neutralC/CFD-IM-678-482-N.jpg","0","k","0.98527509951964",1,8,0,2,0
"250001","img/neutralC/CFD-LM-228-188-N.jpg","0","s","1.36498629953712",1,8,0,2,0
"250001","img/neutralC/CFD-LM-240-013-N.jpg","1","k","3.76601879997179",1,8,0,2,0
"250001","img/neutralC/CFD-AF-231-357-N.jpg","1","k","2.61567929992452",1,8,0,2,0
"250001","img/neutralC/CFD-IM-645-001-N.jpg","1","k","1.4451622995548",1,8,0,2,0
"250001","img/neutralC/CFD-WM-013-001-N.jpg","0","s","1.04530469933525",1,8,0,2,0
"250001","img/neutralC/CFD-BF-011-002-N.jpg","1","k","4.91982259973884",1,8,0,2,0
"250001","img/neutralC/CFD-BM-043-071-N.jpg","0","s","1.20300699956715",1,8,0,2,0
"250001","img/neutralC/CFD-IF-626-375-N.jpg","1","k","1.70853659976274",1,8,0,2,0
"250001","img/neutralC/CFD-IM-686-097-N.jpg","0","k","1.59004249982536",1,8,0,2,0
"250001","img/neutralC/CFD-MF-352-054-N.jpg","1","k","1.42110219970345",1,8,0,2,0
"250001","img/neutralC/CFD-IF-623-129-N.jpg","0","k","1.7811323995702",1,8,0,2,0
"250001","img/neutralC/CFD-LM-201-057-N.jpg","1","s","1.01108969934285",1,8,0,2,0
"250001","img/neutralC/CFD-BF-040-003-N.jpg","1","s","1.51177849946544",1,8,0,2,0
"250001","img/neutralC/CFD-BF-235-168-N.jpg","0","k","2.02337659941986",1,8,0,2,0
"250001","img/neutralC/CFD-WF-217-085-N.jpg","0","k","1.21046539954841",1,8,0,2,0
"250001","img/neutralC/CFD-AM-217-085-N.jpg","0","k","1.45404359977692",1,8,0,2,0
