"participant_id","current_trial_face","pre_trial_face","post_trial_face","current_trial_accuracy","pre_trial_accuracy","post_trial_accuracy","current_trial_congruency","pre_trial_congruency","post_trial_congruency","current_trial_rt","pre_trial_rt","post_trial_rt","current_trial_responded","pre_trial_responded","post_trial_responded","current_trial_legitResponse","pre_trial_legitResponse","post_trial_legitResponse","current_trial_resp_nums","pre_trial_resp_nums","post_trial_resp_nums"
"250028","img/neutralC/CFD-AF-254-167-N.jpg",NA,"img/neutralC/CFD-BF-043-003-N.jpg","1",NA,"0","1",NA,"0","0.878256600000896",NA,"0.758794099965598","1",NA,"1","1",NA,"1","1",NA,"1"
"250028","img/neutralC/CFD-BF-043-003-N.jpg","img/neutralC/CFD-AF-254-167-N.jpg","img/neutralC/CFD-BM-243-218-N.jpg","0","1","1","0","1","1","0.758794099965598","0.878256600000896","0.645594200002961","1","1","1","1","1","1","1","1","1"
"250028","img/neutralC/CFD-BM-243-218-N.jpg","img/neutralC/CFD-BF-043-003-N.jpg","img/neutralC/CFD-IM-675-015-N.jpg","1","0","1","1","0","1","0.645594200002961","0.758794099965598","0.715368099976331","1","1","1","1","1","1","1","1","1"
"250028","img/neutralC/CFD-IM-675-015-N.jpg","img/neutralC/CFD-BM-243-218-N.jpg","img/neutralC/CFD-LF-226-174-N.jpg","1","1","1","1","1","0","0.715368099976331","0.645594200002961","0.492364300007466","1","1","1","1","1","1","1","1","1"
"250028","img/neutralC/CFD-LF-226-174-N.jpg","img/neutralC/CFD-IM-675-015-N.jpg","img/neutralC/CFD-IM-604-014-N.jpg","1","1","1","0","1","0","0.492364300007466","0.715368099976331","0.731887299974915","1","1","1","1","1","1","1","1","1"
"250028","img/neutralC/CFD-IM-604-014-N.jpg","img/neutralC/CFD-LF-226-174-N.jpg","img/neutralC/CFD-BM-039-029-N.jpg","1","1","1","0","0","1","0.731887299974915","0.492364300007466","0.469764900044538","1","1","1","1","1","1","1","1","1"
"250028","img/neutralC/CFD-BM-039-029-N.jpg","img/neutralC/CFD-IM-604-014-N.jpg","img/neutralC/CFD-IM-709-103-N.jpg","1","1","1","1","0","0","0.469764900044538","0.731887299974915","0.567776000010781","1","1","1","1","1","1","1","1","1"
"250028","img/neutralC/CFD-IM-709-103-N.jpg","img/neutralC/CFD-BM-039-029-N.jpg","img/neutralC/CFD-MF-340-026-N.jpg","1","1","1","0","1","1","0.567776000010781","0.469764900044538","0.578762399964035","1","1","1","1","1","1","1","1","1"
"250028","img/neutralC/CFD-MF-340-026-N.jpg","img/neutralC/CFD-IM-709-103-N.jpg","img/neutralC/CFD-IM-637-007-N.jpg","1","1","1","1","0","0","0.578762399964035","0.567776000010781","0.579213699966203","1","1","1","1","1","1","1","1","1"
"250028","img/neutralC/CFD-IM-637-007-N.jpg","img/neutralC/CFD-MF-340-026-N.jpg","img/neutralC/CFD-MM-304-002-N.jpg","1","1","1","0","1","1","0.579213699966203","0.578762399964035","0.564129900012631","1","1","1","1","1","1","1","1","1"
"250028","img/neutralC/CFD-MM-304-002-N.jpg","img/neutralC/CFD-IM-637-007-N.jpg","img/neutralC/CFD-WM-232-070-N.jpg","1","1","0","1","0","0","0.564129900012631","0.579213699966203","0.448718199972063","1","1","1","1","1","1","1","1","1"
"250028","img/neutralC/CFD-WM-232-070-N.jpg","img/neutralC/CFD-MM-304-002-N.jpg","img/neutralC/CFD-IM-685-004-N.jpg","0","1","1","0","1","1","0.448718199972063","0.564129900012631","0.58558890002314","1","1","1","1","1","1","1","1","1"
"250028","img/neutralC/CFD-IM-685-004-N.jpg","img/neutralC/CFD-WM-232-070-N.jpg","img/neutralC/CFD-MF-300-002-N.jpg","1","0","1","1","0","0","0.58558890002314","0.448718199972063","0.47712060000049","1","1","1","1","1","1","1","1","1"
"250028","img/neutralC/CFD-MF-300-002-N.jpg","img/neutralC/CFD-IM-685-004-N.jpg","img/neutralC/CFD-WF-008-002-N.jpg","1","1","1","0","1","1","0.47712060000049","0.58558890002314","0.545648299972527","1","1","1","1","1","1","1","1","1"
"250028","img/neutralC/CFD-WF-008-002-N.jpg","img/neutralC/CFD-MF-300-002-N.jpg","img/neutralC/CFD-WM-213-076-N.jpg","1","1","1","1","0","1","0.545648299972527","0.47712060000049","0.415125200001057","1","1","1","1","1","1","1","1","1"
"250028","img/neutralC/CFD-WM-213-076-N.jpg","img/neutralC/CFD-WF-008-002-N.jpg","img/neutralC/CFD-IF-619-197-N.jpg","1","1","0","1","1","0","0.415125200001057","0.545648299972527","0.981207100034226","1","1","1","1","1","1","1","1","1"
"250028","img/neutralC/CFD-IF-619-197-N.jpg","img/neutralC/CFD-WM-213-076-N.jpg","img/neutralC/CFD-IF-608-390-N.jpg","0","1","1","0","1","1","0.981207100034226","0.415125200001057","0.574049400049262","1","1","1","1","1","1","1","1","1"
"250028","img/neutralC/CFD-IF-608-390-N.jpg","img/neutralC/CFD-IF-619-197-N.jpg","img/neutralC/CFD-LF-201-035-N.jpg","1","0","1","1","0","1","0.574049400049262","0.981207100034226","0.474104200024158","1","1","1","1","1","1","1","1","1"
"250028","img/neutralC/CFD-LF-201-035-N.jpg","img/neutralC/CFD-IF-608-390-N.jpg","img/neutralC/CFD-AF-229-160-N.jpg","1","1","1","1","1","0","0.474104200024158","0.574049400049262","0.634986899967771","1","1","1","1","1","1","1","1","1"
"250028","img/neutralC/CFD-AF-229-160-N.jpg","img/neutralC/CFD-LF-201-035-N.jpg","img/neutralC/CFD-WF-248-129-N.jpg","1","1","1","0","1","0","0.634986899967771","0.474104200024158","0.529520000040065","1","1","1","1","1","1","1","1","1"
"250028","img/neutralC/CFD-WF-248-129-N.jpg","img/neutralC/CFD-AF-229-160-N.jpg","img/neutralC/CFD-WF-012-002-N.jpg","1","1","1","0","0","1","0.529520000040065","0.634986899967771","0.50662589998683","1","1","1","1","1","1","1","1","1"
"250028","img/neutralC/CFD-WF-012-002-N.jpg","img/neutralC/CFD-WF-248-129-N.jpg","img/neutralC/CFD-BF-224-002-N.jpg","1","1","1","1","0","1","0.50662589998683","0.529520000040065","0.500774499960244","1","1","1","1","1","1","1","1","1"
"250028","img/neutralC/CFD-BF-224-002-N.jpg","img/neutralC/CFD-WF-012-002-N.jpg","img/neutralC/CFD-AM-236-090-N.jpg","1","1","1","1","1","1","0.500774499960244","0.50662589998683","0.46573769999668","1","1","1","1","1","1","1","1","1"
"250028","img/neutralC/CFD-AM-236-090-N.jpg","img/neutralC/CFD-BF-224-002-N.jpg","img/neutralC/CFD-BF-051-035-N.jpg","1","1","0","1","1","0","0.46573769999668","0.500774499960244","0.676364300015848","1","1","1","1","1","1","1","1","1"
"250028","img/neutralC/CFD-BF-051-035-N.jpg","img/neutralC/CFD-AM-236-090-N.jpg","img/neutralC/CFD-WM-024-015-N.jpg","0","1","1","0","1","1","0.676364300015848","0.46573769999668","0.433107999968342","1","1","1","1","1","1","1","1","1"
"250028","img/neutralC/CFD-WM-024-015-N.jpg","img/neutralC/CFD-BF-051-035-N.jpg","img/neutralC/CFD-AF-215-70-N.jpg","1","0","1","1","0","0","0.433107999968342","0.676364300015848","0.657135700050276","1","1","1","1","1","1","1","1","1"
"250028","img/neutralC/CFD-AF-215-70-N.jpg","img/neutralC/CFD-WM-024-015-N.jpg","img/neutralC/CFD-MF-329-001-N.jpg","1","1","1","0","1","0","0.657135700050276","0.433107999968342","0.446276999951806","1","1","1","1","1","1","1","1","1"
"250028","img/neutralC/CFD-MF-329-001-N.jpg","img/neutralC/CFD-AF-215-70-N.jpg","img/neutralC/CFD-WF-217-085-N.jpg","1","1","0","0","0","1","0.446276999951806","0.657135700050276","0.532825600006618","1","1","1","1","1","1","1","1","1"
"250028","img/neutralC/CFD-WF-217-085-N.jpg","img/neutralC/CFD-MF-329-001-N.jpg","img/neutralC/CFD-LM-217-162-N.jpg","0","1","0","1","0","0","0.532825600006618","0.446276999951806","0.771479399991222","1","1","1","1","1","1","1","1","1"
"250028","img/neutralC/CFD-LM-217-162-N.jpg","img/neutralC/CFD-WF-217-085-N.jpg","img/neutralC/CFD-MF-327-002-N.jpg","0","0","0","0","1","0","0.771479399991222","0.532825600006618","0.735125100007281","1","1","1","1","1","1","1","1","1"
"250028","img/neutralC/CFD-MF-327-002-N.jpg","img/neutralC/CFD-LM-217-162-N.jpg","img/neutralC/CFD-WF-212-050-N.jpg","0","0","1","0","0","0","0.735125100007281","0.771479399991222","0.584744299994782","1","1","1","1","1","1","1","1","1"
"250028","img/neutralC/CFD-WF-212-050-N.jpg","img/neutralC/CFD-MF-327-002-N.jpg",NA,"1","0",NA,"0","0",NA,"0.584744299994782","0.735125100007281",NA,"1","1",NA,"1","1",NA,"1","1",NA
"250028","img/neutralC/CFD-BF-027-002-N.jpg",NA,"img/neutralC/CFD-BM-241-235-N.jpg","1",NA,"0","1",NA,"0","0.623761800001375",NA,"0.924649499997031","1",NA,"1","1",NA,"1","1",NA,"1"
"250028","img/neutralC/CFD-BM-241-235-N.jpg","img/neutralC/CFD-BF-027-002-N.jpg","img/neutralC/CFD-WM-248-036-N.jpg","0","1","1","0","1","1","0.924649499997031","0.623761800001375","1.04583650000859","1","1","1","1","1","1","1","1","1"
"250028","img/neutralC/CFD-WM-248-036-N.jpg","img/neutralC/CFD-BM-241-235-N.jpg","img/neutralC/CFD-BF-207-004-N.jpg","1","0","1","1","0","1","1.04583650000859","0.924649499997031","0.484536900010426","1","1","1","1","1","1","1","1","1"
"250028","img/neutralC/CFD-BF-207-004-N.jpg","img/neutralC/CFD-WM-248-036-N.jpg","img/neutralC/CFD-WF-208-068-N.jpg","1","1","1","1","1","1","0.484536900010426","1.04583650000859","0.523802499985322","1","1","1","1","1","1","1","1","1"
"250028","img/neutralC/CFD-WF-208-068-N.jpg","img/neutralC/CFD-BF-207-004-N.jpg","img/neutralC/CFD-LM-213-061-N.jpg","1","1","0","1","1","0","0.523802499985322","0.484536900010426","0.451330900017638","1","1","1","1","1","1","1","1","1"
"250028","img/neutralC/CFD-LM-213-061-N.jpg","img/neutralC/CFD-WF-208-068-N.jpg","img/neutralC/CFD-AM-230-150-N.jpg","0","1","1","0","1","0","0.451330900017638","0.523802499985322","0.476417400001083","1","1","1","1","1","1","1","1","1"
"250028","img/neutralC/CFD-AM-230-150-N.jpg","img/neutralC/CFD-LM-213-061-N.jpg","img/neutralC/CFD-BM-238-242-N.jpg","1","0","1","0","0","0","0.476417400001083","0.451330900017638","0.486626600031741","1","1","1","1","1","1","1","1","1"
"250028","img/neutralC/CFD-BM-238-242-N.jpg","img/neutralC/CFD-AM-230-150-N.jpg","img/neutralC/CFD-IM-721-341-N.jpg","1","1","1","0","0","1","0.486626600031741","0.476417400001083","0.472262100025546","1","1","1","1","1","1","1","1","1"
"250028","img/neutralC/CFD-IM-721-341-N.jpg","img/neutralC/CFD-BM-238-242-N.jpg","img/neutralC/CFD-BF-247-179-N.jpg","1","1","0","1","0","0","0.472262100025546","0.486626600031741","0.554636600019876","1","1","1","1","1","1","1","1","1"
"250028","img/neutralC/CFD-BF-247-179-N.jpg","img/neutralC/CFD-IM-721-341-N.jpg","img/neutralC/CFD-WF-029-002-N.jpg","0","1","1","0","1","0","0.554636600019876","0.472262100025546","0.616550199978519","1","1","1","1","1","1","1","1","1"
"250028","img/neutralC/CFD-WF-029-002-N.jpg","img/neutralC/CFD-BF-247-179-N.jpg","img/neutralC/CFD-BF-002-001-N.jpg","1","0","1","0","0","0","0.616550199978519","0.554636600019876","0.442901100032032","1","1","1","1","1","1","1","1","1"
"250028","img/neutralC/CFD-BF-002-001-N.jpg","img/neutralC/CFD-WF-029-002-N.jpg","img/neutralC/CFD-BF-236-177-N.jpg","1","1","0","0","0","0","0.442901100032032","0.616550199978519","0.530994500033557","1","1","1","1","1","1","1","1","1"
"250028","img/neutralC/CFD-BF-236-177-N.jpg","img/neutralC/CFD-BF-002-001-N.jpg","img/neutralC/CFD-LF-204-133-N.jpg","0","1","1","0","0","1","0.530994500033557","0.442901100032032","0.514594700012822","1","1","1","1","1","1","1","1","1"
"250028","img/neutralC/CFD-LF-204-133-N.jpg","img/neutralC/CFD-BF-236-177-N.jpg","img/neutralC/CFD-BF-044-034-N.jpg","1","0","1","1","0","0","0.514594700012822","0.530994500033557","1.06838559999596","1","1","1","1","1","1","1","1","1"
"250028","img/neutralC/CFD-BF-044-034-N.jpg","img/neutralC/CFD-LF-204-133-N.jpg","img/neutralC/CFD-WM-034-030-N.jpg","1","1","1","0","1","1","1.06838559999596","0.514594700012822","0.487504200020339","1","1","1","1","1","1","1","1","1"
"250028","img/neutralC/CFD-WM-034-030-N.jpg","img/neutralC/CFD-BF-044-034-N.jpg","img/neutralC/CFD-BF-036-027-N.jpg","1","1","1","1","0","0","0.487504200020339","1.06838559999596","0.626869799976703","1","1","1","1","1","1","1","1","1"
"250028","img/neutralC/CFD-BF-036-027-N.jpg","img/neutralC/CFD-WM-034-030-N.jpg","img/neutralC/CFD-IM-696-001-N.jpg","1","1","1","0","1","0","0.626869799976703","0.487504200020339","0.575722699984908","1","1","1","1","1","1","1","1","1"
"250028","img/neutralC/CFD-IM-696-001-N.jpg","img/neutralC/CFD-BF-036-027-N.jpg","img/neutralC/CFD-WF-234-086-N.jpg","1","1","1","0","0","1","0.575722699984908","0.626869799976703","0.44784229999641","1","1","1","1","1","1","1","1","1"
"250028","img/neutralC/CFD-WF-234-086-N.jpg","img/neutralC/CFD-IM-696-001-N.jpg","img/neutralC/CFD-IM-726-248-N.jpg","1","1","1","1","0","0","0.44784229999641","0.575722699984908","0.611587899969891","1","1","1","1","1","1","1","1","1"
"250028","img/neutralC/CFD-IM-726-248-N.jpg","img/neutralC/CFD-WF-234-086-N.jpg","img/neutralC/CFD-BM-207-024-N.jpg","1","1","1","0","1","1","0.611587899969891","0.44784229999641","0.494896199961659","1","1","1","1","1","1","1","1","1"
"250028","img/neutralC/CFD-BM-207-024-N.jpg","img/neutralC/CFD-IM-726-248-N.jpg","img/neutralC/CFD-BF-006-017-N.jpg","1","1","1","1","0","0","0.494896199961659","0.611587899969891","0.485947699984536","1","1","1","1","1","1","1","1","1"
"250028","img/neutralC/CFD-BF-006-017-N.jpg","img/neutralC/CFD-BM-207-024-N.jpg","img/neutralC/CFD-MF-301-024-N.jpg","1","1","1","0","1","0","0.485947699984536","0.494896199961659","0.478555600042455","1","1","1","1","1","1","1","1","1"
"250028","img/neutralC/CFD-MF-301-024-N.jpg","img/neutralC/CFD-BF-006-017-N.jpg","img/neutralC/CFD-WF-233-112-N.jpg","1","1","1","0","0","1","0.478555600042455","0.485947699984536","0.494839999999385","1","1","1","1","1","1","1","1","1"
"250028","img/neutralC/CFD-WF-233-112-N.jpg","img/neutralC/CFD-MF-301-024-N.jpg","img/neutralC/CFD-BM-036-003-N.jpg","1","1","1","1","0","1","0.494839999999385","0.478555600042455","0.579552799987141","1","1","1","1","1","1","1","1","1"
"250028","img/neutralC/CFD-BM-036-003-N.jpg","img/neutralC/CFD-WF-233-112-N.jpg","img/neutralC/CFD-IM-707-105-N.jpg","1","1","1","1","1","1","0.579552799987141","0.494839999999385","0.488989099976607","1","1","1","1","1","1","1","1","1"
"250028","img/neutralC/CFD-IM-707-105-N.jpg","img/neutralC/CFD-BM-036-003-N.jpg","img/neutralC/CFD-IF-742-103-N.jpg","1","1","1","1","1","1","0.488989099976607","0.579552799987141","0.442672799981665","1","1","1","1","1","1","1","1","1"
"250028","img/neutralC/CFD-IF-742-103-N.jpg","img/neutralC/CFD-IM-707-105-N.jpg","img/neutralC/CFD-IF-729-393-N.jpg","1","1","1","1","1","0","0.442672799981665","0.488989099976607","0.604030499991495","1","1","1","1","1","1","1","1","1"
"250028","img/neutralC/CFD-IF-729-393-N.jpg","img/neutralC/CFD-IF-742-103-N.jpg","img/neutralC/CFD-BF-214-308-N.jpg","1","1","1","0","1","1","0.604030499991495","0.442672799981665","0.459922900015954","1","1","1","1","1","1","1","1","1"
"250028","img/neutralC/CFD-BF-214-308-N.jpg","img/neutralC/CFD-IF-729-393-N.jpg","img/neutralC/CFD-BF-011-002-N.jpg","1","1","1","1","0","1","0.459922900015954","0.604030499991495","0.508622399996966","1","1","1","1","1","1","1","1","1"
"250028","img/neutralC/CFD-BF-011-002-N.jpg","img/neutralC/CFD-BF-214-308-N.jpg","img/neutralC/CFD-WM-014-002-N.jpg","1","1","0","1","1","0","0.508622399996966","0.459922900015954","0.925286100013182","1","1","1","1","1","1","1","1","1"
"250028","img/neutralC/CFD-WM-014-002-N.jpg","img/neutralC/CFD-BF-011-002-N.jpg","img/neutralC/CFD-IF-677-452-1-N.jpg","0","1","1","0","1","1","0.925286100013182","0.508622399996966","0.442311999970116","1","1","1","1","1","1","1","1","1"
"250028","img/neutralC/CFD-IF-677-452-1-N.jpg","img/neutralC/CFD-WM-014-002-N.jpg",NA,"1","0",NA,"1","0",NA,"0.442311999970116","0.925286100013182",NA,"1","1",NA,"1","1",NA,"1","1",NA
"250028","img/neutralC/CFD-IM-684-008-N.jpg",NA,"img/neutralC/CFD-AM-212-050-N.jpg","1",NA,"1","1",NA,"1","0.618775499984622",NA,"0.436019100015983","1",NA,"1","1",NA,"1","1",NA,"1"
"250028","img/neutralC/CFD-AM-212-050-N.jpg","img/neutralC/CFD-IM-684-008-N.jpg","img/neutralC/CFD-WM-021-001-N.jpg","1","1","1","1","1","1","0.436019100015983","0.618775499984622","0.443831600015983","1","1","1","1","1","1","1","1","1"
"250028","img/neutralC/CFD-WM-021-001-N.jpg","img/neutralC/CFD-AM-212-050-N.jpg","img/neutralC/CFD-IM-651-308-N.jpg","1","1","1","1","1","0","0.443831600015983","0.436019100015983","0.542320200009272","1","1","1","1","1","1","1","1","1"
"250028","img/neutralC/CFD-IM-651-308-N.jpg","img/neutralC/CFD-WM-021-001-N.jpg","img/neutralC/CFD-LF-203-066-N.jpg","1","1","1","0","1","0","0.542320200009272","0.443831600015983","0.546057599945925","1","1","1","1","1","1","1","1","1"
"250028","img/neutralC/CFD-LF-203-066-N.jpg","img/neutralC/CFD-IM-651-308-N.jpg","img/neutralC/CFD-BM-041-035-N.jpg","1","1","1","0","0","0","0.546057599945925","0.542320200009272","0.489469400024973","1","1","1","1","1","1","1","1","1"
"250028","img/neutralC/CFD-BM-041-035-N.jpg","img/neutralC/CFD-LF-203-066-N.jpg","img/neutralC/CFD-WF-224-099-N.jpg","1","1","1","0","0","0","0.489469400024973","0.546057599945925","0.495376500010025","1","1","1","1","1","1","1","1","1"
"250028","img/neutralC/CFD-WF-224-099-N.jpg","img/neutralC/CFD-BM-041-035-N.jpg","img/neutralC/CFD-LM-218-183-N.jpg","1","1","1","0","0","1","0.495376500010025","0.489469400024973","0.402027999982238","1","1","1","1","1","1","1","1","1"
"250028","img/neutralC/CFD-LM-218-183-N.jpg","img/neutralC/CFD-WF-224-099-N.jpg","img/neutralC/CFD-AM-201-076-N.jpg","1","1","1","1","0","1","0.402027999982238","0.495376500010025","0.475416100001894","1","1","1","1","1","1","1","1","1"
"250028","img/neutralC/CFD-AM-201-076-N.jpg","img/neutralC/CFD-LM-218-183-N.jpg","img/neutralC/CFD-BM-033-003-N.jpg","1","1","1","1","1","0","0.475416100001894","0.402027999982238","0.633341099950485","1","1","1","1","1","1","1","1","1"
"250028","img/neutralC/CFD-BM-033-003-N.jpg","img/neutralC/CFD-AM-201-076-N.jpg","img/neutralC/CFD-MF-337-026-N.jpg","1","1","1","0","1","1","0.633341099950485","0.475416100001894","0.433885300008114","1","1","1","1","1","1","1","1","1"
"250028","img/neutralC/CFD-MF-337-026-N.jpg","img/neutralC/CFD-BM-033-003-N.jpg","img/neutralC/CFD-BF-205-141-N.jpg","1","1","1","1","0","0","0.433885300008114","0.633341099950485","0.53240150003694","1","1","1","1","1","1","1","1","1"
"250028","img/neutralC/CFD-BF-205-141-N.jpg","img/neutralC/CFD-MF-337-026-N.jpg","img/neutralC/CFD-LF-230-203-N.jpg","1","1","0","0","1","0","0.53240150003694","0.433885300008114","0.392891100025736","1","1","1","1","1","1","1","1","1"
"250028","img/neutralC/CFD-LF-230-203-N.jpg","img/neutralC/CFD-BF-205-141-N.jpg","img/neutralC/CFD-MM-316-156-N.jpg","0","1","1","0","0","1","0.392891100025736","0.53240150003694","0.455729500041343","1","1","1","1","1","1","1","1","1"
"250028","img/neutralC/CFD-MM-316-156-N.jpg","img/neutralC/CFD-LF-230-203-N.jpg","img/neutralC/CFD-BM-019-002-N.jpg","1","0","1","1","0","0","0.455729500041343","0.392891100025736","0.480750899994746","1","1","1","1","1","1","1","1","1"
"250028","img/neutralC/CFD-BM-019-002-N.jpg","img/neutralC/CFD-MM-316-156-N.jpg","img/neutralC/CFD-IF-634-382-N.jpg","1","1","1","0","1","1","0.480750899994746","0.455729500041343","0.412757700018119","1","1","1","1","1","1","1","1","1"
"250028","img/neutralC/CFD-IF-634-382-N.jpg","img/neutralC/CFD-BM-019-002-N.jpg","img/neutralC/CFD-IF-710-016-N.jpg","1","1","1","1","0","0","0.412757700018119","0.480750899994746","0.542258599947672","1","1","1","1","1","1","1","1","1"
"250028","img/neutralC/CFD-IF-710-016-N.jpg","img/neutralC/CFD-IF-634-382-N.jpg","img/neutralC/CFD-WM-011-002-N.jpg","1","1","1","0","1","0","0.542258599947672","0.412757700018119","0.512222399993334","1","1","1","1","1","1","1","1","1"
"250028","img/neutralC/CFD-WM-011-002-N.jpg","img/neutralC/CFD-IF-710-016-N.jpg","img/neutralC/CFD-IF-693-172-N.jpg","1","1","1","0","0","0","0.512222399993334","0.542258599947672","0.458883700019214","1","1","1","1","1","1","1","1","1"
"250028","img/neutralC/CFD-IF-693-172-N.jpg","img/neutralC/CFD-WM-011-002-N.jpg","img/neutralC/CFD-WM-041-021-N.jpg","1","1","1","0","0","0","0.458883700019214","0.512222399993334","0.588625299977139","1","1","1","1","1","1","1","1","1"
"250028","img/neutralC/CFD-WM-041-021-N.jpg","img/neutralC/CFD-IF-693-172-N.jpg","img/neutralC/CFD-BM-239-136-N.jpg","1","1","1","0","0","1","0.588625299977139","0.458883700019214","0.459473999973852","1","1","1","1","1","1","1","1","1"
"250028","img/neutralC/CFD-BM-239-136-N.jpg","img/neutralC/CFD-WM-041-021-N.jpg","img/neutralC/CFD-BF-029-031-N.jpg","1","1","1","1","0","1","0.459473999973852","0.588625299977139","0.445945299987216","1","1","1","1","1","1","1","1","1"
"250028","img/neutralC/CFD-BF-029-031-N.jpg","img/neutralC/CFD-BM-239-136-N.jpg","img/neutralC/CFD-BF-253-202-N.jpg","1","1","1","1","1","0","0.445945299987216","0.459473999973852","0.534656299976632","1","1","1","1","1","1","1","1","1"
"250028","img/neutralC/CFD-BF-253-202-N.jpg","img/neutralC/CFD-BF-029-031-N.jpg","img/neutralC/CFD-WF-213-031-N.jpg","1","1","1","0","1","1","0.534656299976632","0.445945299987216","0.407041999977082","1","1","1","1","1","1","1","1","1"
"250028","img/neutralC/CFD-WF-213-031-N.jpg","img/neutralC/CFD-BF-253-202-N.jpg","img/neutralC/CFD-LF-224-176-N.jpg","1","1","1","1","0","0","0.407041999977082","0.534656299976632","0.577419299981557","1","1","1","1","1","1","1","1","1"
"250028","img/neutralC/CFD-LF-224-176-N.jpg","img/neutralC/CFD-WF-213-031-N.jpg","img/neutralC/CFD-AF-231-357-N.jpg","1","1","1","0","1","1","0.577419299981557","0.407041999977082","0.424991599982604","1","1","1","1","1","1","1","1","1"
"250028","img/neutralC/CFD-AF-231-357-N.jpg","img/neutralC/CFD-LF-224-176-N.jpg","img/neutralC/CFD-BF-039-031-N.jpg","1","1","1","1","0","1","0.424991599982604","0.577419299981557","0.412689499964472","1","1","1","1","1","1","1","1","1"
"250028","img/neutralC/CFD-BF-039-031-N.jpg","img/neutralC/CFD-AF-231-357-N.jpg","img/neutralC/CFD-LM-215-247-N.jpg","1","1","1","1","1","0","0.412689499964472","0.424991599982604","0.534865399997216","1","1","1","1","1","1","1","1","1"
"250028","img/neutralC/CFD-LM-215-247-N.jpg","img/neutralC/CFD-BF-039-031-N.jpg","img/neutralC/CFD-LF-214-090-N.jpg","1","1","1","0","1","0","0.534865399997216","0.412689499964472","0.569561199983582","1","1","1","1","1","1","1","1","1"
"250028","img/neutralC/CFD-LF-214-090-N.jpg","img/neutralC/CFD-LM-215-247-N.jpg","img/neutralC/CFD-BF-213-188-N.jpg","1","1","1","0","0","1","0.569561199983582","0.534865399997216","0.524087900004815","1","1","1","1","1","1","1","1","1"
"250028","img/neutralC/CFD-BF-213-188-N.jpg","img/neutralC/CFD-LF-214-090-N.jpg","img/neutralC/CFD-LF-205-100-N.jpg","1","1","1","1","0","1","0.524087900004815","0.569561199983582","0.474445200001355","1","1","1","1","1","1","1","1","1"
"250028","img/neutralC/CFD-LF-205-100-N.jpg","img/neutralC/CFD-BF-213-188-N.jpg","img/neutralC/CFD-WF-250-167-N.jpg","1","1","1","1","1","1","0.474445200001355","0.524087900004815","0.466734000016004","1","1","1","1","1","1","1","1","1"
"250028","img/neutralC/CFD-WF-250-167-N.jpg","img/neutralC/CFD-LF-205-100-N.jpg",NA,"1","1",NA,"1","1",NA,"0.466734000016004","0.474445200001355",NA,"1","1",NA,"1","1",NA,"1","1",NA
"250028","img/neutralC/CFD-IM-667-369-N.jpg",NA,"img/neutralC/CFD-BM-001-014-N.jpg","0",NA,"1","0",NA,"0","0.601760099991225",NA,"0.479779999994207","1",NA,"1","1",NA,"1","1",NA,"1"
"250028","img/neutralC/CFD-BM-001-014-N.jpg","img/neutralC/CFD-IM-667-369-N.jpg","img/neutralC/CFD-LM-200-045-N.jpg","1","0","1","0","0","1","0.479779999994207","0.601760099991225","0.363106400007382","1","1","1","1","1","1","1","1","1"
"250028","img/neutralC/CFD-LM-200-045-N.jpg","img/neutralC/CFD-BM-001-014-N.jpg","img/neutralC/CFD-AM-220-134-N.jpg","1","1","1","1","0","0","0.363106400007382","0.479779999994207","0.572129500040319","1","1","1","1","1","1","1","1","1"
"250028","img/neutralC/CFD-AM-220-134-N.jpg","img/neutralC/CFD-LM-200-045-N.jpg","img/neutralC/CFD-MF-303-013-N.jpg","1","1","1","0","1","0","0.572129500040319","0.363106400007382","0.441418399976101","1","1","1","1","1","1","1","1","1"
"250028","img/neutralC/CFD-MF-303-013-N.jpg","img/neutralC/CFD-AM-220-134-N.jpg","img/neutralC/CFD-AF-233-190-N.jpg","1","1","0","0","0","0","0.441418399976101","0.572129500040319","0.367143800016493","1","1","1","1","1","1","1","1","1"
"250028","img/neutralC/CFD-AF-233-190-N.jpg","img/neutralC/CFD-MF-303-013-N.jpg","img/neutralC/CFD-MM-324-069-N.jpg","0","1","1","0","0","1","0.367143800016493","0.441418399976101","0.447014800040051","1","1","1","1","1","1","1","1","1"
"250028","img/neutralC/CFD-MM-324-069-N.jpg","img/neutralC/CFD-AF-233-190-N.jpg","img/neutralC/CFD-WM-209-038-N.jpg","1","0","0","1","0","0","0.447014800040051","0.367143800016493","0.408109300013166","1","1","1","1","1","1","1","1","1"
"250028","img/neutralC/CFD-WM-209-038-N.jpg","img/neutralC/CFD-MM-324-069-N.jpg","img/neutralC/CFD-MF-316-001-N.jpg","0","1","1","0","1","0","0.408109300013166","0.447014800040051","0.557231099985074","1","1","1","1","1","1","1","1","1"
"250028","img/neutralC/CFD-MF-316-001-N.jpg","img/neutralC/CFD-WM-209-038-N.jpg","img/neutralC/CFD-IM-664-651-N.jpg","1","0","1","0","0","1","0.557231099985074","0.408109300013166","0.417737199983094","1","1","1","1","1","1","1","1","1"
"250028","img/neutralC/CFD-IM-664-651-N.jpg","img/neutralC/CFD-MF-316-001-N.jpg","img/neutralC/CFD-MF-343-001-N.jpg","1","1","0","1","0","1","0.417737199983094","0.557231099985074","0.410896999994293","1","1","1","1","1","1","1","1","2"
"250028","img/neutralC/CFD-MF-343-001-N.jpg","img/neutralC/CFD-IM-664-651-N.jpg","img/neutralC/CFD-IM-680-369-N.jpg","0","1","1","1","1","1","0.410896999994293","0.417737199983094","0.424576700024772","1","1","1","1","1","1","2","1","1"
"250028","img/neutralC/CFD-IM-680-369-N.jpg","img/neutralC/CFD-MF-343-001-N.jpg","img/neutralC/CFD-MF-305-014-N.jpg","1","0","1","1","1","1","0.424576700024772","0.410896999994293","0.362539900001139","1","1","1","1","1","1","1","2","1"
"250028","img/neutralC/CFD-MF-305-014-N.jpg","img/neutralC/CFD-IM-680-369-N.jpg","img/neutralC/CFD-WF-007-001-N.jpg","1","1","1","1","1","1","0.362539900001139","0.424576700024772","0.424952800036408","1","1","1","1","1","1","1","1","1"
"250028","img/neutralC/CFD-WF-007-001-N.jpg","img/neutralC/CFD-MF-305-014-N.jpg","img/neutralC/CFD-AF-253-130-N.jpg","1","1","1","1","1","1","0.424952800036408","0.362539900001139","0.345792300009634","1","1","1","1","1","1","1","1","1"
"250028","img/neutralC/CFD-AF-253-130-N.jpg","img/neutralC/CFD-WF-007-001-N.jpg","img/neutralC/CFD-BF-014-002-N.jpg","1","1","1","1","1","1","0.345792300009634","0.424952800036408","0.419821599964052","1","1","1","1","1","1","1","1","1"
"250028","img/neutralC/CFD-BF-014-002-N.jpg","img/neutralC/CFD-AF-253-130-N.jpg","img/neutralC/CFD-IF-626-375-N.jpg","1","1","1","1","1","0","0.419821599964052","0.345792300009634","0.416646800003946","1","1","1","1","1","1","1","1","1"
"250028","img/neutralC/CFD-IF-626-375-N.jpg","img/neutralC/CFD-BF-014-002-N.jpg","img/neutralC/CFD-IF-660-464-N.jpg","1","1","1","0","1","0","0.416646800003946","0.419821599964052","0.621635999996215","1","1","1","1","1","1","1","1","1"
"250028","img/neutralC/CFD-IF-660-464-N.jpg","img/neutralC/CFD-IF-626-375-N.jpg","img/neutralC/CFD-LM-225-130-N.jpg","1","1","1","0","0","0","0.621635999996215","0.416646800003946","0.576519999944139","1","1","1","1","1","1","1","1","1"
"250028","img/neutralC/CFD-LM-225-130-N.jpg","img/neutralC/CFD-IF-660-464-N.jpg","img/neutralC/CFD-LF-255-088-N.jpg","1","1","1","0","0","0","0.576519999944139","0.621635999996215","0.47249750001356","1","1","1","1","1","1","1","1","1"
"250028","img/neutralC/CFD-LF-255-088-N.jpg","img/neutralC/CFD-LM-225-130-N.jpg","img/neutralC/CFD-WF-222-092-N.jpg","1","1","1","0","0","1","0.47249750001356","0.576519999944139","0.398688399989624","1","1","1","1","1","1","1","1","1"
"250028","img/neutralC/CFD-WF-222-092-N.jpg","img/neutralC/CFD-LF-255-088-N.jpg","img/neutralC/CFD-IM-702-101-N.jpg","1","1","1","1","0","1","0.398688399989624","0.47249750001356","0.483147399965674","1","1","1","1","1","1","1","1","1"
"250028","img/neutralC/CFD-IM-702-101-N.jpg","img/neutralC/CFD-WF-222-092-N.jpg","img/neutralC/CFD-BM-217-082-N.jpg","1","1","0","1","1","0","0.483147399965674","0.398688399989624","0.359928100020625","1","1","1","1","1","1","1","1","1"
"250028","img/neutralC/CFD-BM-217-082-N.jpg","img/neutralC/CFD-IM-702-101-N.jpg","img/neutralC/CFD-WM-218-074-N.jpg","0","1","1","0","1","1","0.359928100020625","0.483147399965674","0.453315799997654","1","1","1","1","1","1","1","1","1"
"250028","img/neutralC/CFD-WM-218-074-N.jpg","img/neutralC/CFD-BM-217-082-N.jpg","img/neutralC/CFD-BF-237-172-N.jpg","1","0","1","1","0","1","0.453315799997654","0.359928100020625","0.480101199995261","1","1","1","1","1","1","1","1","1"
"250028","img/neutralC/CFD-BF-237-172-N.jpg","img/neutralC/CFD-WM-218-074-N.jpg","img/neutralC/CFD-MF-357-002-N.jpg","1","1","1","1","1","0","0.480101199995261","0.453315799997654","0.641538999974728","1","1","1","1","1","1","1","1","1"
"250028","img/neutralC/CFD-MF-357-002-N.jpg","img/neutralC/CFD-BF-237-172-N.jpg","img/neutralC/CFD-WM-015-002-N.jpg","1","1","1","0","1","0","0.641538999974728","0.480101199995261","0.533466900000349","1","1","1","1","1","1","1","1","1"
"250028","img/neutralC/CFD-WM-015-002-N.jpg","img/neutralC/CFD-MF-357-002-N.jpg","img/neutralC/CFD-WF-030-002-N.jpg","1","1","0","0","0","0","0.533466900000349","0.641538999974728","0.39197910000803","1","1","1","1","1","1","1","1","1"
"250028","img/neutralC/CFD-WF-030-002-N.jpg","img/neutralC/CFD-WM-015-002-N.jpg","img/neutralC/CFD-WF-244-163-N.jpg","0","1","1","0","0","1","0.39197910000803","0.533466900000349","0.531172199989669","1","1","1","1","1","1","1","1","1"
"250028","img/neutralC/CFD-WF-244-163-N.jpg","img/neutralC/CFD-WF-030-002-N.jpg","img/neutralC/CFD-BM-250-170-N.jpg","1","0","1","1","0","1","0.531172199989669","0.39197910000803","0.447837100015022","1","1","1","1","1","1","1","1","1"
"250028","img/neutralC/CFD-BM-250-170-N.jpg","img/neutralC/CFD-WF-244-163-N.jpg","img/neutralC/CFD-LF-206-078-N.jpg","1","1","1","1","1","1","0.447837100015022","0.531172199989669","0.422298500023317","1","1","1","1","1","1","1","1","1"
"250028","img/neutralC/CFD-LF-206-078-N.jpg","img/neutralC/CFD-BM-250-170-N.jpg","img/neutralC/CFD-IM-706-002-N.jpg","1","1","1","1","1","0","0.422298500023317","0.447837100015022","0.634449799952563","1","1","1","1","1","1","1","1","1"
"250028","img/neutralC/CFD-IM-706-002-N.jpg","img/neutralC/CFD-LF-206-078-N.jpg",NA,"1","1",NA,"0","1",NA,"0.634449799952563","0.422298500023317",NA,"1","1",NA,"1","1",NA,"1","1",NA
"250028","img/neutralC/CFD-BF-201-080-N.jpg",NA,"img/neutralC/CFD-AM-235-241-N.jpg","1",NA,"1","1",NA,"0","0.902215200010687",NA,"0.846914199995808","1",NA,"1","1",NA,"1","1",NA,"1"
"250028","img/neutralC/CFD-AM-235-241-N.jpg","img/neutralC/CFD-BF-201-080-N.jpg","img/neutralC/CFD-WM-038-003-N.jpg","1","1","0","0","1","0","0.846914199995808","0.902215200010687","0.751708199968562","1","1","1","1","1","1","1","1","1"
"250028","img/neutralC/CFD-WM-038-003-N.jpg","img/neutralC/CFD-AM-235-241-N.jpg","img/neutralC/CFD-AM-217-085-N.jpg","0","1","1","0","0","0","0.751708199968562","0.846914199995808","1.02862389996881","1","1","1","1","1","1","1","1","1"
"250028","img/neutralC/CFD-AM-217-085-N.jpg","img/neutralC/CFD-WM-038-003-N.jpg","img/neutralC/CFD-LF-216-121-N.jpg","1","0","1","0","0","1","1.02862389996881","0.751708199968562","0.5422363000107","1","1","1","1","1","1","1","1","1"
"250028","img/neutralC/CFD-LF-216-121-N.jpg","img/neutralC/CFD-AM-217-085-N.jpg","img/neutralC/CFD-WF-022-017-N.jpg","1","1","1","1","0","0","0.5422363000107","1.02862389996881","0.581520100007765","1","1","1","1","1","1","1","1","1"
"250028","img/neutralC/CFD-WF-022-017-N.jpg","img/neutralC/CFD-LF-216-121-N.jpg","img/neutralC/CFD-IF-718-001-N.jpg","1","1","1","0","1","1","0.581520100007765","0.5422363000107","0.424860299972352","1","1","1","1","1","1","1","1","1"
"250028","img/neutralC/CFD-IF-718-001-N.jpg","img/neutralC/CFD-WF-022-017-N.jpg","img/neutralC/CFD-WM-225-127-N.jpg","1","1","1","1","0","0","0.424860299972352","0.581520100007765","0.614010900026187","1","1","1","1","1","1","1","1","1"
"250028","img/neutralC/CFD-WM-225-127-N.jpg","img/neutralC/CFD-IF-718-001-N.jpg","img/neutralC/CFD-WM-257-161-N.jpg","1","1","1","0","1","1","0.614010900026187","0.424860299972352","0.653341299970634","1","1","1","1","1","1","1","1","1"
"250028","img/neutralC/CFD-WM-257-161-N.jpg","img/neutralC/CFD-WM-225-127-N.jpg","img/neutralC/CFD-BM-027-001-N.jpg","1","1","1","1","0","0","0.653341299970634","0.614010900026187","0.829333800007589","1","1","1","1","1","1","1","1","1"
"250028","img/neutralC/CFD-BM-027-001-N.jpg","img/neutralC/CFD-WM-257-161-N.jpg","img/neutralC/CFD-WF-026-002-N.jpg","1","1","1","0","1","1","0.829333800007589","0.653341299970634","0.454750199976843","1","1","1","1","1","1","1","1","1"
"250028","img/neutralC/CFD-WF-026-002-N.jpg","img/neutralC/CFD-BM-027-001-N.jpg","img/neutralC/CFD-WM-040-022-N.jpg","1","1","1","1","0","0","0.454750199976843","0.829333800007589","0.644035099947359","1","1","1","1","1","1","1","1","1"
"250028","img/neutralC/CFD-WM-040-022-N.jpg","img/neutralC/CFD-WF-026-002-N.jpg","img/neutralC/CFD-IF-672-305-N.jpg","1","1","1","0","1","0","0.644035099947359","0.454750199976843","0.642448599974159","1","1","1","1","1","1","1","1","1"
"250028","img/neutralC/CFD-IF-672-305-N.jpg","img/neutralC/CFD-WM-040-022-N.jpg","img/neutralC/CFD-LM-252-076-N.jpg","1","1","1","0","0","1","0.642448599974159","0.644035099947359","0.54913190001389","1","1","1","1","1","1","1","1","1"
"250028","img/neutralC/CFD-LM-252-076-N.jpg","img/neutralC/CFD-IF-672-305-N.jpg","img/neutralC/CFD-BF-255-140-N.jpg","1","1","1","1","0","1","0.54913190001389","0.642448599974159","0.48111809999682","1","1","1","1","1","1","1","1","1"
"250028","img/neutralC/CFD-BF-255-140-N.jpg","img/neutralC/CFD-LM-252-076-N.jpg","img/neutralC/CFD-BM-015-015-N.jpg","1","1","1","1","1","0","0.48111809999682","0.54913190001389","0.57216119999066","1","1","1","1","1","1","1","1","1"
"250028","img/neutralC/CFD-BM-015-015-N.jpg","img/neutralC/CFD-BF-255-140-N.jpg","img/neutralC/CFD-BM-029-024-N.jpg","1","1","1","0","1","1","0.57216119999066","0.48111809999682","0.489149800036102","1","1","1","1","1","1","1","1","1"
"250028","img/neutralC/CFD-BM-029-024-N.jpg","img/neutralC/CFD-BM-015-015-N.jpg","img/neutralC/CFD-IM-728-041-N.jpg","1","1","1","1","0","0","0.489149800036102","0.57216119999066","0.601703299966175","1","1","1","1","1","1","1","1","1"
"250028","img/neutralC/CFD-IM-728-041-N.jpg","img/neutralC/CFD-BM-029-024-N.jpg","img/neutralC/CFD-BF-003-003-N.jpg","1","1","1","0","1","0","0.601703299966175","0.489149800036102","0.607185700035188","1","1","1","1","1","1","1","1","1"
"250028","img/neutralC/CFD-BF-003-003-N.jpg","img/neutralC/CFD-IM-728-041-N.jpg","img/neutralC/CFD-MM-319-052-N.jpg","1","1","1","0","0","1","0.607185700035188","0.601703299966175","0.518176499987021","1","1","1","1","1","1","1","1","1"
"250028","img/neutralC/CFD-MM-319-052-N.jpg","img/neutralC/CFD-BF-003-003-N.jpg","img/neutralC/CFD-WF-002-004-N.jpg","1","1","0","1","0","0","0.518176499987021","0.607185700035188","0.423470899986569","1","1","1","1","1","1","1","1","1"
"250028","img/neutralC/CFD-WF-002-004-N.jpg","img/neutralC/CFD-MM-319-052-N.jpg","img/neutralC/CFD-IM-674-281-N.jpg","0","1","1","0","1","1","0.423470899986569","0.518176499987021","0.463945199968293","1","1","1","1","1","1","1","1","1"
"250028","img/neutralC/CFD-IM-674-281-N.jpg","img/neutralC/CFD-WF-002-004-N.jpg","img/neutralC/CFD-AM-215-120-N.jpg","1","0","1","1","0","1","0.463945199968293","0.423470899986569","0.460995699977502","1","1","1","1","1","1","1","1","1"
"250028","img/neutralC/CFD-AM-215-120-N.jpg","img/neutralC/CFD-IM-674-281-N.jpg","img/neutralC/CFD-BF-208-266-N.jpg","1","1","1","1","1","0","0.460995699977502","0.463945199968293","0.644753400003538","1","1","1","1","1","1","1","1","1"
"250028","img/neutralC/CFD-BF-208-266-N.jpg","img/neutralC/CFD-AM-215-120-N.jpg","img/neutralC/CFD-BF-023-010-N.jpg","1","1","1","0","1","1","0.644753400003538","0.460995699977502","0.467175300000235","1","1","1","1","1","1","1","1","1"
"250028","img/neutralC/CFD-BF-023-010-N.jpg","img/neutralC/CFD-BF-208-266-N.jpg","img/neutralC/CFD-BM-247-240-N.jpg","1","1","0","1","0","0","0.467175300000235","0.644753400003538","0.850899699958973","1","1","1","1","1","1","1","1","1"
"250028","img/neutralC/CFD-BM-247-240-N.jpg","img/neutralC/CFD-BF-023-010-N.jpg","img/neutralC/CFD-LF-236-221-N.jpg","0","1","1","0","1","1","0.850899699958973","0.467175300000235","0.503503699961584","1","1","1","1","1","1","1","1","1"
"250028","img/neutralC/CFD-LF-236-221-N.jpg","img/neutralC/CFD-BM-247-240-N.jpg","img/neutralC/CFD-WM-002-009-N.jpg","1","0","1","1","0","0","0.503503699961584","0.850899699958973","0.55131380003877","1","1","1","1","1","1","1","1","1"
"250028","img/neutralC/CFD-WM-002-009-N.jpg","img/neutralC/CFD-LF-236-221-N.jpg","img/neutralC/CFD-BF-028-001-N.jpg","1","1","1","0","1","1","0.55131380003877","0.503503699961584","0.488449099997524","1","1","1","1","1","1","1","1","1"
"250028","img/neutralC/CFD-BF-028-001-N.jpg","img/neutralC/CFD-WM-002-009-N.jpg","img/neutralC/CFD-BM-211-174-N.jpg","1","1","1","1","0","0","0.488449099997524","0.55131380003877","0.573964099981822","1","1","1","1","1","1","1","1","1"
"250028","img/neutralC/CFD-BM-211-174-N.jpg","img/neutralC/CFD-BF-028-001-N.jpg","img/neutralC/CFD-IM-639-263-N.jpg","1","1","1","0","1","1","0.573964099981822","0.488449099997524","0.391608899983112","1","1","1","1","1","1","1","1","1"
"250028","img/neutralC/CFD-IM-639-263-N.jpg","img/neutralC/CFD-BM-211-174-N.jpg","img/neutralC/CFD-BF-204-189-N.jpg","1","1","1","1","0","1","0.391608899983112","0.573964099981822","0.50210280000465","1","1","1","1","1","1","1","1","1"
"250028","img/neutralC/CFD-BF-204-189-N.jpg","img/neutralC/CFD-IM-639-263-N.jpg",NA,"1","1",NA,"1","1",NA,"0.50210280000465","0.391608899983112",NA,"1","1",NA,"1","1",NA,"1","1",NA
"250028","img/neutralC/CFD-LF-210-220-N.jpg",NA,"img/neutralC/CFD-BM-028-002-N.jpg","1",NA,"1","1",NA,"1","0.522262600017712",NA,"0.432542399968952","1",NA,"1","1",NA,"1","1",NA,"1"
"250028","img/neutralC/CFD-BM-028-002-N.jpg","img/neutralC/CFD-LF-210-220-N.jpg","img/neutralC/CFD-AM-221-184-N.jpg","1","1","1","1","1","1","0.432542399968952","0.522262600017712","0.474601599969901","1","1","1","1","1","1","1","1","1"
"250028","img/neutralC/CFD-AM-221-184-N.jpg","img/neutralC/CFD-BM-028-002-N.jpg","img/neutralC/CFD-AF-239-171-N.jpg","1","1","1","1","1","1","0.474601599969901","0.432542399968952","0.365835900011007","1","1","1","1","1","1","1","1","1"
"250028","img/neutralC/CFD-AF-239-171-N.jpg","img/neutralC/CFD-AM-221-184-N.jpg","img/neutralC/CFD-LM-247-095-N.jpg","1","1","1","1","1","0","0.365835900011007","0.474601599969901","0.421839299960993","1","1","1","1","1","1","1","1","1"
"250028","img/neutralC/CFD-LM-247-095-N.jpg","img/neutralC/CFD-AF-239-171-N.jpg","img/neutralC/CFD-BM-213-134-N.jpg","1","1","1","0","1","1","0.421839299960993","0.365835900011007","0.358681899961084","1","1","1","1","1","1","1","1","1"
"250028","img/neutralC/CFD-BM-213-134-N.jpg","img/neutralC/CFD-LM-247-095-N.jpg","img/neutralC/CFD-BM-013-002-N.jpg","1","1","1","1","0","1","0.358681899961084","0.421839299960993","0.3950561999809","1","1","1","1","1","1","1","1","1"
"250028","img/neutralC/CFD-BM-013-002-N.jpg","img/neutralC/CFD-BM-213-134-N.jpg","img/neutralC/CFD-IM-701-312-N.jpg","1","1","1","1","1","0","0.3950561999809","0.358681899961084","0.522033800021745","1","1","1","1","1","1","1","1","1"
"250028","img/neutralC/CFD-IM-701-312-N.jpg","img/neutralC/CFD-BM-013-002-N.jpg","img/neutralC/CFD-IF-744-114-N.jpg","1","1","1","0","1","0","0.522033800021745","0.3950561999809","0.467489500006195","1","1","1","1","1","1","1","1","1"
"250028","img/neutralC/CFD-IF-744-114-N.jpg","img/neutralC/CFD-IM-701-312-N.jpg","img/neutralC/CFD-WF-033-002-N.jpg","1","1","1","0","0","1","0.467489500006195","0.522033800021745","0.401944499986712","1","1","1","1","1","1","1","1","1"
"250028","img/neutralC/CFD-WF-033-002-N.jpg","img/neutralC/CFD-IF-744-114-N.jpg","img/neutralC/CFD-BM-003-003-N.jpg","1","1","1","1","0","0","0.401944499986712","0.467489500006195","0.601080899999943","1","1","1","1","1","1","1","1","1"
"250028","img/neutralC/CFD-BM-003-003-N.jpg","img/neutralC/CFD-WF-033-002-N.jpg","img/neutralC/CFD-MF-336-016-N.jpg","1","1","1","0","1","1","0.601080899999943","0.401944499986712","0.495725799992215","1","1","1","1","1","1","1","1","1"
"250028","img/neutralC/CFD-MF-336-016-N.jpg","img/neutralC/CFD-BM-003-003-N.jpg","img/neutralC/CFD-WM-254-152-N.jpg","1","1","1","1","0","1","0.495725799992215","0.601080899999943","0.42019509995589","1","1","1","1","1","1","1","1","1"
"250028","img/neutralC/CFD-WM-254-152-N.jpg","img/neutralC/CFD-MF-336-016-N.jpg","img/neutralC/CFD-WM-228-065-N.jpg","1","1","1","1","1","0","0.42019509995589","0.495725799992215","0.48109650000697","1","1","1","1","1","1","1","1","1"
"250028","img/neutralC/CFD-WM-228-065-N.jpg","img/neutralC/CFD-WM-254-152-N.jpg","img/neutralC/CFD-BF-045-003-N.jpg","1","1","1","0","1","0","0.48109650000697","0.42019509995589","0.599521399999503","1","1","1","1","1","1","1","1","1"
"250028","img/neutralC/CFD-BF-045-003-N.jpg","img/neutralC/CFD-WM-228-065-N.jpg","img/neutralC/CFD-IM-659-359-N.jpg","1","1","1","0","0","0","0.599521399999503","0.48109650000697","0.429981399967801","1","1","1","1","1","1","1","1","1"
"250028","img/neutralC/CFD-IM-659-359-N.jpg","img/neutralC/CFD-BF-045-003-N.jpg","img/neutralC/CFD-BF-222-240-N.jpg","1","1","1","0","0","0","0.429981399967801","0.599521399999503","0.487439899996389","1","1","1","1","1","1","1","1","1"
"250028","img/neutralC/CFD-BF-222-240-N.jpg","img/neutralC/CFD-IM-659-359-N.jpg","img/neutralC/CFD-AF-210-050-N.jpg","1","1","1","0","0","1","0.487439899996389","0.429981399967801","0.391191500006244","1","1","1","1","1","1","1","1","1"
"250028","img/neutralC/CFD-AF-210-050-N.jpg","img/neutralC/CFD-BF-222-240-N.jpg","img/neutralC/CFD-AF-227-207-N.jpg","1","1","1","1","0","1","0.391191500006244","0.487439899996389","0.384566699969582","1","1","1","1","1","1","1","1","1"
"250028","img/neutralC/CFD-AF-227-207-N.jpg","img/neutralC/CFD-AF-210-050-N.jpg","img/neutralC/CFD-LF-208-127-N.jpg","1","1","1","1","1","0","0.384566699969582","0.391191500006244","0.52035489998525","1","1","1","1","1","1","1","1","1"
"250028","img/neutralC/CFD-LF-208-127-N.jpg","img/neutralC/CFD-AF-227-207-N.jpg","img/neutralC/CFD-WF-006-002-N.jpg","1","1","1","0","1","0","0.52035489998525","0.384566699969582","0.552958099986427","1","1","1","1","1","1","1","1","1"
"250028","img/neutralC/CFD-WF-006-002-N.jpg","img/neutralC/CFD-LF-208-127-N.jpg","img/neutralC/CFD-BM-010-003-N.jpg","1","1","1","0","0","0","0.552958099986427","0.52035489998525","0.690047600015532","1","1","1","1","1","1","1","1","1"
"250028","img/neutralC/CFD-BM-010-003-N.jpg","img/neutralC/CFD-WF-006-002-N.jpg","img/neutralC/CFD-WF-223-133-N.jpg","1","1","1","0","0","0","0.690047600015532","0.552958099986427","0.592589400010183","1","1","1","1","1","1","1","1","1"
"250028","img/neutralC/CFD-WF-223-133-N.jpg","img/neutralC/CFD-BM-010-003-N.jpg","img/neutralC/CFD-WM-202-107-N.jpg","1","1","1","0","0","1","0.592589400010183","0.690047600015532","0.46957570000086","1","1","1","1","1","1","1","1","1"
"250028","img/neutralC/CFD-WM-202-107-N.jpg","img/neutralC/CFD-WF-223-133-N.jpg","img/neutralC/CFD-MF-312-002-N.jpg","1","1","1","1","0","1","0.46957570000086","0.592589400010183","0.426052100025117","1","1","1","1","1","1","1","1","1"
"250028","img/neutralC/CFD-MF-312-002-N.jpg","img/neutralC/CFD-WM-202-107-N.jpg","img/neutralC/CFD-IM-738-191-N.jpg","1","1","1","1","1","0","0.426052100025117","0.46957570000086","0.467485499975737","1","1","1","1","1","1","1","1","1"
"250028","img/neutralC/CFD-IM-738-191-N.jpg","img/neutralC/CFD-MF-312-002-N.jpg","img/neutralC/CFD-LF-241-188-N.jpg","1","1","1","0","1","0","0.467485499975737","0.426052100025117","0.475081800017506","1","1","1","1","1","1","1","1","1"
"250028","img/neutralC/CFD-LF-241-188-N.jpg","img/neutralC/CFD-IM-738-191-N.jpg","img/neutralC/CFD-BF-004-014-N.jpg","1","1","1","0","0","1","0.475081800017506","0.467485499975737","0.381296599982306","1","1","1","1","1","1","1","1","1"
"250028","img/neutralC/CFD-BF-004-014-N.jpg","img/neutralC/CFD-LF-241-188-N.jpg","img/neutralC/CFD-IF-673-389-N.jpg","1","1","1","1","0","0","0.381296599982306","0.475081800017506","0.507580999983475","1","1","1","1","1","1","1","1","1"
"250028","img/neutralC/CFD-IF-673-389-N.jpg","img/neutralC/CFD-BF-004-014-N.jpg","img/neutralC/CFD-IF-625-225-N.jpg","1","1","1","0","1","0","0.507580999983475","0.381296599982306","0.427472500014119","1","1","1","1","1","1","1","1","1"
"250028","img/neutralC/CFD-IF-625-225-N.jpg","img/neutralC/CFD-IF-673-389-N.jpg","img/neutralC/CFD-LF-225-164-N.jpg","1","1","1","0","0","1","0.427472500014119","0.507580999983475","0.446689199947286","1","1","1","1","1","1","1","1","1"
"250028","img/neutralC/CFD-LF-225-164-N.jpg","img/neutralC/CFD-IF-625-225-N.jpg","img/neutralC/CFD-LM-238-129-N.jpg","1","1","1","1","0","1","0.446689199947286","0.427472500014119","0.41889050003374","1","1","1","1","1","1","1","1","1"
"250028","img/neutralC/CFD-LM-238-129-N.jpg","img/neutralC/CFD-LF-225-164-N.jpg",NA,"1","1",NA,"1","1",NA,"0.41889050003374","0.446689199947286",NA,"1","1",NA,"1","1",NA,"1","1",NA
"250028","img/neutralC/CFD-IF-636-011-N.jpg",NA,"img/neutralC/CFD-AF-246-242-N.jpg","1",NA,"0","1",NA,"0","0.441475100000389",NA,"0.432277500047348","1",NA,"1","1",NA,"1","1",NA,"1"
"250028","img/neutralC/CFD-AF-246-242-N.jpg","img/neutralC/CFD-IF-636-011-N.jpg","img/neutralC/CFD-AM-233-236-N.jpg","0","1","1","0","1","1","0.432277500047348","0.441475100000389","0.390825200011022","1","1","1","1","1","1","1","1","1"
"250028","img/neutralC/CFD-AM-233-236-N.jpg","img/neutralC/CFD-AF-246-242-N.jpg","img/neutralC/CFD-AM-245-111-N.jpg","1","0","1","1","0","1","0.390825200011022","0.432277500047348","0.310906399972737","1","1","1","1","1","1","1","1","1"
"250028","img/neutralC/CFD-AM-245-111-N.jpg","img/neutralC/CFD-AM-233-236-N.jpg","img/neutralC/CFD-IM-678-482-N.jpg","1","1","0","1","1","0","0.310906399972737","0.390825200011022","0.44733430002816","1","1","1","1","1","1","1","1","1"
"250028","img/neutralC/CFD-IM-678-482-N.jpg","img/neutralC/CFD-AM-245-111-N.jpg","img/neutralC/CFD-WM-253-119-N.jpg","0","1","1","0","1","1","0.44733430002816","0.310906399972737","0.429361799964681","1","1","1","1","1","1","1","1","1"
"250028","img/neutralC/CFD-WM-253-119-N.jpg","img/neutralC/CFD-IM-678-482-N.jpg","img/neutralC/CFD-MF-307-002-N.jpg","1","0","1","1","0","1","0.429361799964681","0.44733430002816","0.39762730000075","1","1","1","1","1","1","1","1","1"
"250028","img/neutralC/CFD-MF-307-002-N.jpg","img/neutralC/CFD-WM-253-119-N.jpg","img/neutralC/CFD-BM-004-002-N.jpg","1","1","1","1","1","0","0.39762730000075","0.429361799964681","0.46434040000895","1","1","1","1","1","1","1","1","1"
"250028","img/neutralC/CFD-BM-004-002-N.jpg","img/neutralC/CFD-MF-307-002-N.jpg","img/neutralC/CFD-BF-217-189-N.jpg","1","1","0","0","1","0","0.46434040000895","0.39762730000075","0.452374499989673","1","1","1","1","1","1","1","1","1"
"250028","img/neutralC/CFD-BF-217-189-N.jpg","img/neutralC/CFD-BM-004-002-N.jpg","img/neutralC/CFD-IM-635-010-N.jpg","0","1","1","0","0","1","0.452374499989673","0.46434040000895","0.400606799987145","1","1","1","1","1","1","1","1","1"
"250028","img/neutralC/CFD-IM-635-010-N.jpg","img/neutralC/CFD-BF-217-189-N.jpg","img/neutralC/CFD-AF-250-200-N.jpg","1","0","1","1","0","1","0.400606799987145","0.452374499989673","0.467584199970588","1","1","1","1","1","1","1","1","1"
"250028","img/neutralC/CFD-AF-250-200-N.jpg","img/neutralC/CFD-IM-635-010-N.jpg","img/neutralC/CFD-BF-235-168-N.jpg","1","1","1","1","1","1","0.467584199970588","0.400606799987145","0.451472799992189","1","1","1","1","1","1","1","1","1"
"250028","img/neutralC/CFD-BF-235-168-N.jpg","img/neutralC/CFD-AF-250-200-N.jpg","img/neutralC/CFD-AF-213-126-N.jpg","1","1","1","1","1","1","0.451472799992189","0.467584199970588","0.39209400000982","1","1","1","1","1","1","1","1","1"
"250028","img/neutralC/CFD-AF-213-126-N.jpg","img/neutralC/CFD-BF-235-168-N.jpg","img/neutralC/CFD-IM-632-097-N.jpg","1","1","0","1","1","0","0.39209400000982","0.451472799992189","0.50098720000824","1","1","1","1","1","1","1","1","2"
"250028","img/neutralC/CFD-IM-632-097-N.jpg","img/neutralC/CFD-AF-213-126-N.jpg","img/neutralC/CFD-LM-241-125-N.jpg","0","1","1","0","1","1","0.50098720000824","0.39209400000982","0.443845999951009","1","1","1","1","1","1","2","1","1"
"250028","img/neutralC/CFD-LM-241-125-N.jpg","img/neutralC/CFD-IM-632-097-N.jpg","img/neutralC/CFD-WF-235-121-N.jpg","1","0","1","1","0","0","0.443845999951009","0.50098720000824","0.470156499999575","1","1","1","1","1","1","1","2","1"
"250028","img/neutralC/CFD-WF-235-121-N.jpg","img/neutralC/CFD-LM-241-125-N.jpg","img/neutralC/CFD-BF-206-143-N.jpg","1","1","1","0","1","1","0.470156499999575","0.443845999951009","0.357958799984772","1","1","1","1","1","1","1","1","1"
"250028","img/neutralC/CFD-BF-206-143-N.jpg","img/neutralC/CFD-WF-235-121-N.jpg","img/neutralC/CFD-WF-210-086-N.jpg","1","1","1","1","0","0","0.357958799984772","0.470156499999575","0.507172100013122","1","1","1","1","1","1","1","1","1"
"250028","img/neutralC/CFD-WF-210-086-N.jpg","img/neutralC/CFD-BF-206-143-N.jpg","img/neutralC/CFD-AM-225-102-N.jpg","1","1","0","0","1","0","0.507172100013122","0.357958799984772","0.416534100018907","1","1","1","1","1","1","1","1","1"
"250028","img/neutralC/CFD-AM-225-102-N.jpg","img/neutralC/CFD-WF-210-086-N.jpg","img/neutralC/CFD-AF-205-155-N.jpg","0","1","1","0","0","0","0.416534100018907","0.507172100013122","0.452713800012134","1","1","1","1","1","1","1","1","1"
"250028","img/neutralC/CFD-AF-205-155-N.jpg","img/neutralC/CFD-AM-225-102-N.jpg","img/neutralC/CFD-IF-732-260-N.jpg","1","0","1","0","0","0","0.452713800012134","0.416534100018907","0.590032699983567","1","1","1","1","1","1","1","1","1"
"250028","img/neutralC/CFD-IF-732-260-N.jpg","img/neutralC/CFD-AF-205-155-N.jpg","img/neutralC/CFD-LF-239-148-N.jpg","1","1","0","0","0","0","0.590032699983567","0.452713800012134","0.39104940003017","1","1","1","1","1","1","1","1","1"
"250028","img/neutralC/CFD-LF-239-148-N.jpg","img/neutralC/CFD-IF-732-260-N.jpg","img/neutralC/CFD-MF-302-027-N.jpg","0","1","1","0","0","0","0.39104940003017","0.590032699983567","0.484678399981931","1","1","1","1","1","1","1","1","1"
"250028","img/neutralC/CFD-MF-302-027-N.jpg","img/neutralC/CFD-LF-239-148-N.jpg","img/neutralC/CFD-BF-040-003-N.jpg","1","0","1","0","0","1","0.484678399981931","0.39104940003017","0.481561399996281","1","1","1","1","1","1","1","1","1"
"250028","img/neutralC/CFD-BF-040-003-N.jpg","img/neutralC/CFD-MF-302-027-N.jpg","img/neutralC/CFD-AF-234-208-N.jpg","1","1","1","1","0","1","0.481561399996281","0.484678399981931","0.536799900000915","1","1","1","1","1","1","1","1","1"
"250028","img/neutralC/CFD-AF-234-208-N.jpg","img/neutralC/CFD-BF-040-003-N.jpg","img/neutralC/CFD-BM-215-155-N.jpg","1","1","1","1","1","0","0.536799900000915","0.481561399996281","0.470061099971645","1","1","1","1","1","1","1","1","1"
"250028","img/neutralC/CFD-BM-215-155-N.jpg","img/neutralC/CFD-AF-234-208-N.jpg","img/neutralC/CFD-AF-244-168-N.jpg","1","1","1","0","1","0","0.470061099971645","0.536799900000915","0.463274600042496","1","1","1","1","1","1","1","1","1"
"250028","img/neutralC/CFD-AF-244-168-N.jpg","img/neutralC/CFD-BM-215-155-N.jpg","img/neutralC/CFD-BF-042-026-N.jpg","1","1","1","0","0","1","0.463274600042496","0.470061099971645","0.426641699974425","1","1","1","1","1","1","1","1","1"
"250028","img/neutralC/CFD-BF-042-026-N.jpg","img/neutralC/CFD-AF-244-168-N.jpg","img/neutralC/CFD-IM-669-111-N.jpg","1","1","1","1","0","1","0.426641699974425","0.463274600042496","0.358441299991682","1","1","1","1","1","1","1","1","1"
"250028","img/neutralC/CFD-IM-669-111-N.jpg","img/neutralC/CFD-BF-042-026-N.jpg","img/neutralC/CFD-WM-018-002-N.jpg","1","1","0","1","1","0","0.358441299991682","0.426641699974425","0.341323400032707","1","1","1","1","1","1","1","1","1"
"250028","img/neutralC/CFD-WM-018-002-N.jpg","img/neutralC/CFD-IM-669-111-N.jpg","img/neutralC/CFD-LM-204-001-N.jpg","0","1","1","0","1","0","0.341323400032707","0.358441299991682","0.594157300016377","1","1","1","1","1","1","1","1","1"
"250028","img/neutralC/CFD-LM-204-001-N.jpg","img/neutralC/CFD-WM-018-002-N.jpg","img/neutralC/CFD-BF-020-002-N.jpg","1","0","1","0","0","1","0.594157300016377","0.341323400032707","0.414698800013866","1","1","1","1","1","1","1","1","1"
"250028","img/neutralC/CFD-BF-020-002-N.jpg","img/neutralC/CFD-LM-204-001-N.jpg",NA,"1","1",NA,"1","0",NA,"0.414698800013866","0.594157300016377",NA,"1","1",NA,"1","1",NA,"1","1",NA
"250028","img/neutralC/CFD-WM-017-002-N.jpg",NA,"img/neutralC/CFD-LM-219-295-N.jpg","0",NA,"0","0",NA,"1","1.39557269995566",NA,"0.942825699981768","1",NA,"1","1",NA,"1","1",NA,"1"
"250028","img/neutralC/CFD-LM-219-295-N.jpg","img/neutralC/CFD-WM-017-002-N.jpg","img/neutralC/CFD-WM-242-011-N.jpg","0","0","1","1","0","0","0.942825699981768","1.39557269995566","0.562227399961557","1","1","1","1","1","1","1","1","1"
"250028","img/neutralC/CFD-WM-242-011-N.jpg","img/neutralC/CFD-LM-219-295-N.jpg","img/neutralC/CFD-BF-010-001-N.jpg","1","0","1","0","1","1","0.562227399961557","0.942825699981768","0.530232599994633","1","1","1","1","1","1","1","1","1"
"250028","img/neutralC/CFD-BF-010-001-N.jpg","img/neutralC/CFD-WM-242-011-N.jpg","img/neutralC/CFD-IM-617-174-N.jpg","1","1","1","1","0","0","0.530232599994633","0.562227399961557","0.494374500005506","1","1","1","1","1","1","1","1","1"
"250028","img/neutralC/CFD-IM-617-174-N.jpg","img/neutralC/CFD-BF-010-001-N.jpg","img/neutralC/CFD-BF-238-190-N.jpg","1","1","1","0","1","1","0.494374500005506","0.530232599994633","0.428712700027972","1","1","1","1","1","1","1","1","1"
"250028","img/neutralC/CFD-BF-238-190-N.jpg","img/neutralC/CFD-IM-617-174-N.jpg","img/neutralC/CFD-WF-209-052-N.jpg","1","1","1","1","0","1","0.428712700027972","0.494374500005506","0.367755700019188","1","1","1","1","1","1","1","1","1"
"250028","img/neutralC/CFD-WF-209-052-N.jpg","img/neutralC/CFD-BF-238-190-N.jpg","img/neutralC/CFD-BM-231-155-N.jpg","1","1","1","1","1","1","0.367755700019188","0.428712700027972","0.388661699951626","1","1","1","1","1","1","1","1","1"
"250028","img/neutralC/CFD-BM-231-155-N.jpg","img/neutralC/CFD-WF-209-052-N.jpg","img/neutralC/CFD-LM-233-171-N.jpg","1","1","1","1","1","0","0.388661699951626","0.367755700019188","0.495043899980374","1","1","1","1","1","1","1","1","1"
"250028","img/neutralC/CFD-LM-233-171-N.jpg","img/neutralC/CFD-BM-231-155-N.jpg","img/neutralC/CFD-LF-245-166-N.jpg","1","1","1","0","1","1","0.495043899980374","0.388661699951626","0.455941500025801","1","1","1","1","1","1","1","1","1"
"250028","img/neutralC/CFD-LF-245-166-N.jpg","img/neutralC/CFD-LM-233-171-N.jpg","img/neutralC/CFD-AF-241-141-N.jpg","1","1","1","1","0","1","0.455941500025801","0.495043899980374","0.587519099994097","1","1","1","1","1","1","1","1","1"
"250028","img/neutralC/CFD-AF-241-141-N.jpg","img/neutralC/CFD-LF-245-166-N.jpg","img/neutralC/CFD-BF-033-028-N.jpg","1","1","1","1","1","0","0.587519099994097","0.455941500025801","0.637961099972017","1","1","1","1","1","1","1","1","1"
"250028","img/neutralC/CFD-BF-033-028-N.jpg","img/neutralC/CFD-AF-241-141-N.jpg","img/neutralC/CFD-BM-018-001-N.jpg","1","1","1","0","1","1","0.637961099972017","0.587519099994097","0.406285499979276","1","1","1","1","1","1","1","1","1"
"250028","img/neutralC/CFD-BM-018-001-N.jpg","img/neutralC/CFD-BF-033-028-N.jpg","img/neutralC/CFD-LM-226-175-N.jpg","1","1","1","1","0","0","0.406285499979276","0.637961099972017","0.611057899950538","1","1","1","1","1","1","1","1","1"
"250028","img/neutralC/CFD-LM-226-175-N.jpg","img/neutralC/CFD-BM-018-001-N.jpg","img/neutralC/CFD-IF-665-015-N.jpg","1","1","0","0","1","0","0.611057899950538","0.406285499979276","1.20358749997104","1","1","1","1","1","1","1","1","1"
"250028","img/neutralC/CFD-IF-665-015-N.jpg","img/neutralC/CFD-LM-226-175-N.jpg","img/neutralC/CFD-WM-227-099-N.jpg","0","1","1","0","0","1","1.20358749997104","0.611057899950538","0.406408799986821","1","1","1","1","1","1","1","1","1"
"250028","img/neutralC/CFD-WM-227-099-N.jpg","img/neutralC/CFD-IF-665-015-N.jpg","img/neutralC/CFD-LF-250-169-N.jpg","1","0","1","1","0","1","0.406408799986821","1.20358749997104","0.406876099994406","1","1","1","1","1","1","1","1","1"
"250028","img/neutralC/CFD-LF-250-169-N.jpg","img/neutralC/CFD-WM-227-099-N.jpg","img/neutralC/CFD-LF-242-121-N.jpg","1","1","1","1","1","0","0.406876099994406","0.406408799986821","0.484010000014678","1","1","1","1","1","1","1","1","1"
"250028","img/neutralC/CFD-LF-242-121-N.jpg","img/neutralC/CFD-LF-250-169-N.jpg","img/neutralC/CFD-BM-026-002-N.jpg","1","1","1","0","1","0","0.484010000014678","0.406876099994406","0.58930049999617","1","1","1","1","1","1","1","1","1"
"250028","img/neutralC/CFD-BM-026-002-N.jpg","img/neutralC/CFD-LF-242-121-N.jpg","img/neutralC/CFD-MF-313-002-N.jpg","1","1","1","0","0","0","0.58930049999617","0.484010000014678","0.635295299987774","1","1","1","1","1","1","1","1","1"
"250028","img/neutralC/CFD-MF-313-002-N.jpg","img/neutralC/CFD-BM-026-002-N.jpg","img/neutralC/CFD-IF-620-218-N.jpg","1","1","1","0","0","0","0.635295299987774","0.58930049999617","0.856771200022195","1","1","1","1","1","1","1","1","1"
"250028","img/neutralC/CFD-IF-620-218-N.jpg","img/neutralC/CFD-MF-313-002-N.jpg","img/neutralC/CFD-IM-727-195-N.jpg","1","1","1","0","0","1","0.856771200022195","0.635295299987774","0.557384299987461","1","1","1","1","1","1","1","1","1"
"250028","img/neutralC/CFD-IM-727-195-N.jpg","img/neutralC/CFD-IF-620-218-N.jpg","img/neutralC/CFD-AF-202-122-N.jpg","1","1","1","1","0","1","0.557384299987461","0.856771200022195","0.45366360002663","1","1","1","1","1","1","1","1","1"
"250028","img/neutralC/CFD-AF-202-122-N.jpg","img/neutralC/CFD-IM-727-195-N.jpg","img/neutralC/CFD-IM-657-308-N.jpg","1","1","1","1","1","0","0.45366360002663","0.557384299987461","0.530462199996691","1","1","1","1","1","1","1","1","1"
"250028","img/neutralC/CFD-IM-657-308-N.jpg","img/neutralC/CFD-AF-202-122-N.jpg","img/neutralC/CFD-BM-212-117-N.jpg","1","1","1","0","1","0","0.530462199996691","0.45366360002663","0.56513120001182","1","1","1","1","1","1","1","1","1"
"250028","img/neutralC/CFD-BM-212-117-N.jpg","img/neutralC/CFD-IM-657-308-N.jpg","img/neutralC/CFD-LF-247-051-N.jpg","1","1","1","0","0","1","0.56513120001182","0.530462199996691","0.437806499947328","1","1","1","1","1","1","1","1","1"
"250028","img/neutralC/CFD-LF-247-051-N.jpg","img/neutralC/CFD-BM-212-117-N.jpg","img/neutralC/CFD-AF-206-079-N.jpg","1","1","1","1","0","1","0.437806499947328","0.56513120001182","0.399443999980576","1","1","1","1","1","1","1","1","1"
"250028","img/neutralC/CFD-AF-206-079-N.jpg","img/neutralC/CFD-LF-247-051-N.jpg","img/neutralC/CFD-WM-258-125-N.jpg","1","1","1","1","1","0","0.399443999980576","0.437806499947328","0.493538099981379","1","1","1","1","1","1","1","1","1"
"250028","img/neutralC/CFD-WM-258-125-N.jpg","img/neutralC/CFD-AF-206-079-N.jpg","img/neutralC/CFD-BM-005-003-N.jpg","1","1","1","0","1","1","0.493538099981379","0.399443999980576","0.409883299958892","1","1","1","1","1","1","1","1","1"
"250028","img/neutralC/CFD-BM-005-003-N.jpg","img/neutralC/CFD-WM-258-125-N.jpg","img/neutralC/CFD-IM-638-250-1-N.jpg","1","1","1","1","0","1","0.409883299958892","0.493538099981379","0.391241200035438","1","1","1","1","1","1","1","1","1"
"250028","img/neutralC/CFD-IM-638-250-1-N.jpg","img/neutralC/CFD-BM-005-003-N.jpg","img/neutralC/CFD-IM-653-008-N.jpg","1","1","1","1","1","0","0.391241200035438","0.409883299958892","0.490801000036299","1","1","1","1","1","1","1","1","1"
"250028","img/neutralC/CFD-IM-653-008-N.jpg","img/neutralC/CFD-IM-638-250-1-N.jpg","img/neutralC/CFD-IM-686-097-N.jpg","1","1","0","0","1","0","0.490801000036299","0.391241200035438","0.446469399961643","1","1","1","1","1","1","1","1","1"
"250028","img/neutralC/CFD-IM-686-097-N.jpg","img/neutralC/CFD-IM-653-008-N.jpg",NA,"0","1",NA,"0","0",NA,"0.446469399961643","0.490801000036299",NA,"1","1",NA,"1","1",NA,"1","1",NA
"250028","img/neutralC/CFD-WF-001-003-N.jpg",NA,"img/neutralC/CFD-IF-623-129-N.jpg","1",NA,"1","1",NA,"1","0.587428600003477",NA,"0.610359300044365","1",NA,"1","1",NA,"1","1",NA,"1"
"250028","img/neutralC/CFD-IF-623-129-N.jpg","img/neutralC/CFD-WF-001-003-N.jpg","img/neutralC/CFD-LM-237-264-N.jpg","1","1","1","1","1","0","0.610359300044365","0.587428600003477","0.551693400018848","1","1","1","1","1","1","1","1","1"
"250028","img/neutralC/CFD-LM-237-264-N.jpg","img/neutralC/CFD-IF-623-129-N.jpg","img/neutralC/CFD-BF-226-119-N.jpg","1","1","1","0","1","1","0.551693400018848","0.610359300044365","0.499209099973086","1","1","1","1","1","1","1","1","1"
"250028","img/neutralC/CFD-BF-226-119-N.jpg","img/neutralC/CFD-LM-237-264-N.jpg","img/neutralC/CFD-WM-235-147-N.jpg","1","1","1","1","0","0","0.499209099973086","0.551693400018848","0.469190399977379","1","1","1","1","1","1","1","1","1"
"250028","img/neutralC/CFD-WM-235-147-N.jpg","img/neutralC/CFD-BF-226-119-N.jpg","img/neutralC/CFD-LF-218-072-N.jpg","1","1","1","0","1","0","0.469190399977379","0.499209099973086","0.456998199981172","1","1","1","1","1","1","1","1","1"
"250028","img/neutralC/CFD-LF-218-072-N.jpg","img/neutralC/CFD-WM-235-147-N.jpg","img/neutralC/CFD-WM-004-010-N.jpg","1","1","1","0","0","0","0.456998199981172","0.469190399977379","0.491813299944624","1","1","1","1","1","1","1","1","1"
"250028","img/neutralC/CFD-WM-004-010-N.jpg","img/neutralC/CFD-LF-218-072-N.jpg","img/neutralC/CFD-BF-229-179-N.jpg","1","1","0","0","0","0","0.491813299944624","0.456998199981172","0.406338200031314","1","1","1","1","1","1","1","1","1"
"250028","img/neutralC/CFD-BF-229-179-N.jpg","img/neutralC/CFD-WM-004-010-N.jpg","img/neutralC/CFD-AM-211-052-N.jpg","0","1","1","0","0","1","0.406338200031314","0.491813299944624","0.438900000008289","1","1","1","1","1","1","1","1","1"
"250028","img/neutralC/CFD-AM-211-052-N.jpg","img/neutralC/CFD-BF-229-179-N.jpg","img/neutralC/CFD-LM-228-188-N.jpg","1","0","1","1","0","1","0.438900000008289","0.406338200031314","0.354698200011626","1","1","1","1","1","1","1","1","1"
"250028","img/neutralC/CFD-LM-228-188-N.jpg","img/neutralC/CFD-AM-211-052-N.jpg","img/neutralC/CFD-MF-352-054-N.jpg","1","1","1","1","1","0","0.354698200011626","0.438900000008289","0.414174699981231","1","1","1","1","1","1","1","1","1"
"250028","img/neutralC/CFD-MF-352-054-N.jpg","img/neutralC/CFD-LM-228-188-N.jpg","img/neutralC/CFD-IM-645-001-N.jpg","1","1","1","0","1","0","0.414174699981231","0.354698200011626","0.503930100006983","1","1","1","1","1","1","1","1","1"
"250028","img/neutralC/CFD-IM-645-001-N.jpg","img/neutralC/CFD-MF-352-054-N.jpg","img/neutralC/CFD-WM-219-008-N.jpg","1","1","0","0","0","0","0.503930100006983","0.414174699981231","1.16013239999302","1","1","1","1","1","1","1","1","1"
"250028","img/neutralC/CFD-WM-219-008-N.jpg","img/neutralC/CFD-IM-645-001-N.jpg","img/neutralC/CFD-IM-743-006-N.jpg","0","1","1","0","0","1","1.16013239999302","0.503930100006983","0.509239599981811","1","1","1","1","1","1","1","1","1"
"250028","img/neutralC/CFD-IM-743-006-N.jpg","img/neutralC/CFD-WM-219-008-N.jpg","img/neutralC/CFD-WF-214-122-N.jpg","1","0","1","1","0","1","0.509239599981811","1.16013239999302","0.472573100007139","1","1","1","1","1","1","1","1","1"
"250028","img/neutralC/CFD-WF-214-122-N.jpg","img/neutralC/CFD-IM-743-006-N.jpg","img/neutralC/CFD-IM-703-182-N.jpg","1","1","1","1","1","1","0.472573100007139","0.509239599981811","0.397104600036983","1","1","1","1","1","1","1","1","1"
"250028","img/neutralC/CFD-IM-703-182-N.jpg","img/neutralC/CFD-WF-214-122-N.jpg","img/neutralC/CFD-AM-242-176-N.jpg","1","1","1","1","1","1","0.397104600036983","0.472573100007139","0.380799099977594","1","1","1","1","1","1","1","1","1"
"250028","img/neutralC/CFD-AM-242-176-N.jpg","img/neutralC/CFD-IM-703-182-N.jpg","img/neutralC/CFD-WF-036-023-N.jpg","1","1","1","1","1","0","0.380799099977594","0.397104600036983","0.579127200006042","1","1","1","1","1","1","1","1","1"
"250028","img/neutralC/CFD-WF-036-023-N.jpg","img/neutralC/CFD-AM-242-176-N.jpg","img/neutralC/CFD-WM-033-025-N.jpg","1","1","1","0","1","1","0.579127200006042","0.380799099977594","0.437115399981849","1","1","1","1","1","1","1","1","1"
"250028","img/neutralC/CFD-WM-033-025-N.jpg","img/neutralC/CFD-WF-036-023-N.jpg","img/neutralC/CFD-BF-232-187-N.jpg","1","1","1","1","0","1","0.437115399981849","0.579127200006042","0.394648999965284","1","1","1","1","1","1","1","1","1"
"250028","img/neutralC/CFD-BF-232-187-N.jpg","img/neutralC/CFD-WM-033-025-N.jpg","img/neutralC/CFD-WM-020-001-N.jpg","1","1","1","1","1","1","0.394648999965284","0.437115399981849","0.391245899954811","1","1","1","1","1","1","1","1","1"
"250028","img/neutralC/CFD-WM-020-001-N.jpg","img/neutralC/CFD-BF-232-187-N.jpg","img/neutralC/CFD-MF-359-019-N.jpg","1","1","0","1","1","0","0.391245899954811","0.394648999965284","0.582580099988263","1","1","1","1","1","1","1","1","1"
"250028","img/neutralC/CFD-MF-359-019-N.jpg","img/neutralC/CFD-WM-020-001-N.jpg","img/neutralC/CFD-WF-200-099-N.jpg","0","1","1","0","1","0","0.582580099988263","0.391245899954811","0.564197700005025","1","1","1","1","1","1","1","1","1"
"250028","img/neutralC/CFD-WF-200-099-N.jpg","img/neutralC/CFD-MF-359-019-N.jpg","img/neutralC/CFD-MF-333-012-N.jpg","1","0","1","0","0","0","0.564197700005025","0.582580099988263","0.451702999998815","1","1","1","1","1","1","1","1","1"
"250028","img/neutralC/CFD-MF-333-012-N.jpg","img/neutralC/CFD-WF-200-099-N.jpg","img/neutralC/CFD-BF-038-037-N.jpg","1","1","1","0","0","1","0.451702999998815","0.564197700005025","0.499308900034521","1","1","1","1","1","1","1","1","1"
"250028","img/neutralC/CFD-BF-038-037-N.jpg","img/neutralC/CFD-MF-333-012-N.jpg","img/neutralC/CFD-IM-671-601-N.jpg","1","1","0","1","0","0","0.499308900034521","0.451702999998815","0.319435899960808","1","1","1","1","1","1","1","1","1"
"250028","img/neutralC/CFD-IM-671-601-N.jpg","img/neutralC/CFD-BF-038-037-N.jpg","img/neutralC/CFD-LF-220-120-N.jpg","0","1","1","0","1","1","0.319435899960808","0.499308900034521","0.460437699977774","1","1","1","1","1","1","1","1","1"
"250028","img/neutralC/CFD-LF-220-120-N.jpg","img/neutralC/CFD-IM-671-601-N.jpg","img/neutralC/CFD-IF-650-315-N.jpg","1","0","1","1","0","0","0.460437699977774","0.319435899960808","0.454171799996402","1","1","1","1","1","1","1","1","1"
"250028","img/neutralC/CFD-IF-650-315-N.jpg","img/neutralC/CFD-LF-220-120-N.jpg","img/neutralC/CFD-IM-616-214-N.jpg","1","1","1","0","1","0","0.454171799996402","0.460437699977774","0.432932599971537","1","1","1","1","1","1","1","1","1"
"250028","img/neutralC/CFD-IM-616-214-N.jpg","img/neutralC/CFD-IF-650-315-N.jpg","img/neutralC/CFD-AM-251-124-N.jpg","1","1","0","0","0","0","0.432932599971537","0.454171799996402","0.333990100014489","1","1","1","1","1","1","1","1","1"
"250028","img/neutralC/CFD-AM-251-124-N.jpg","img/neutralC/CFD-IM-616-214-N.jpg","img/neutralC/CFD-BM-225-154-N.jpg","0","1","1","0","0","1","0.333990100014489","0.432932599971537","0.529750999994576","1","1","1","1","1","1","1","1","1"
"250028","img/neutralC/CFD-BM-225-154-N.jpg","img/neutralC/CFD-AM-251-124-N.jpg","img/neutralC/CFD-BM-253-004-N.jpg","1","0","1","1","0","1","0.529750999994576","0.333990100014489","0.448455999954604","1","1","1","1","1","1","1","1","1"
"250028","img/neutralC/CFD-BM-253-004-N.jpg","img/neutralC/CFD-BM-225-154-N.jpg",NA,"1","1",NA,"1","1",NA,"0.448455999954604","0.529750999994576",NA,"1","1",NA,"1","1",NA,"1","1",NA
"250028","img/neutralC/CFD-BF-254-201-N.jpg",NA,"img/neutralC/CFD-IM-700-009-N.jpg","0",NA,"1","0",NA,"1","0.908291800005827",NA,"0.503812499984633","1",NA,"1","1",NA,"1","1",NA,"1"
"250028","img/neutralC/CFD-IM-700-009-N.jpg","img/neutralC/CFD-BF-254-201-N.jpg","img/neutralC/CFD-WF-238-023-N.jpg","1","0","1","1","0","0","0.503812499984633","0.908291800005827","0.610228899982758","1","1","1","1","1","1","1","1","1"
"250028","img/neutralC/CFD-WF-238-023-N.jpg","img/neutralC/CFD-IM-700-009-N.jpg","img/neutralC/CFD-MF-321-003-N.jpg","1","1","1","0","1","0","0.610228899982758","0.503812499984633","0.437887899985071","1","1","1","1","1","1","1","1","1"
"250028","img/neutralC/CFD-MF-321-003-N.jpg","img/neutralC/CFD-WF-238-023-N.jpg","img/neutralC/CFD-BM-200-046-N.jpg","1","1","1","0","0","0","0.437887899985071","0.610228899982758","0.446153500000946","1","1","1","1","1","1","1","1","1"
"250028","img/neutralC/CFD-BM-200-046-N.jpg","img/neutralC/CFD-MF-321-003-N.jpg","img/neutralC/CFD-BF-018-039-N.jpg","1","1","1","0","0","1","0.446153500000946","0.437887899985071","0.508316699997522","1","1","1","1","1","1","1","1","1"
"250028","img/neutralC/CFD-BF-018-039-N.jpg","img/neutralC/CFD-BM-200-046-N.jpg","img/neutralC/CFD-WF-023-003-N.jpg","1","1","1","1","0","1","0.508316699997522","0.446153500000946","0.38938639999833","1","1","1","1","1","1","1","1","1"
"250028","img/neutralC/CFD-WF-023-003-N.jpg","img/neutralC/CFD-BF-018-039-N.jpg","img/neutralC/CFD-WF-018-017-N.jpg","1","1","1","1","1","1","0.38938639999833","0.508316699997522","0.479124400008004","1","1","1","1","1","1","1","1","1"
"250028","img/neutralC/CFD-WF-018-017-N.jpg","img/neutralC/CFD-WF-023-003-N.jpg","img/neutralC/CFD-BM-023-029-N.jpg","1","1","1","1","1","1","0.479124400008004","0.38938639999833","0.459247199993115","1","1","1","1","1","1","1","1","1"
"250028","img/neutralC/CFD-BM-023-029-N.jpg","img/neutralC/CFD-WF-018-017-N.jpg","img/neutralC/CFD-IF-629-234-N.jpg","1","1","0","1","1","0","0.459247199993115","0.479124400008004","0.480387400020845","1","1","1","1","1","1","1","1","1"
"250028","img/neutralC/CFD-IF-629-234-N.jpg","img/neutralC/CFD-BM-023-029-N.jpg","img/neutralC/CFD-WF-226-095-N.jpg","0","1","1","0","1","1","0.480387400020845","0.459247199993115","0.67534199997317","1","1","1","1","1","1","1","1","1"
"250028","img/neutralC/CFD-WF-226-095-N.jpg","img/neutralC/CFD-IF-629-234-N.jpg","img/neutralC/CFD-MF-318-022-N.jpg","1","0","1","1","0","1","0.67534199997317","0.480387400020845","0.421147799992468","1","1","1","1","1","1","1","1","1"
"250028","img/neutralC/CFD-MF-318-022-N.jpg","img/neutralC/CFD-WF-226-095-N.jpg","img/neutralC/CFD-WF-027-003-N.jpg","1","1","1","1","1","1","0.421147799992468","0.67534199997317","0.397108699951787","1","1","1","1","1","1","1","1","1"
"250028","img/neutralC/CFD-WF-027-003-N.jpg","img/neutralC/CFD-MF-318-022-N.jpg","img/neutralC/CFD-MM-321-021-N.jpg","1","1","1","1","1","0","0.397108699951787","0.421147799992468","0.550475700001698","1","1","1","1","1","1","1","1","1"
"250028","img/neutralC/CFD-MM-321-021-N.jpg","img/neutralC/CFD-WF-027-003-N.jpg","img/neutralC/CFD-WM-255-219-N.jpg","1","1","1","0","1","0","0.550475700001698","0.397108699951787","0.724854299973231","1","1","1","1","1","1","1","1","1"
"250028","img/neutralC/CFD-WM-255-219-N.jpg","img/neutralC/CFD-MM-321-021-N.jpg","img/neutralC/CFD-AF-221-147-N.jpg","1","1","0","0","0","0","0.724854299973231","0.550475700001698","0.444697400031146","1","1","1","1","1","1","1","1","1"
"250028","img/neutralC/CFD-AF-221-147-N.jpg","img/neutralC/CFD-WM-255-219-N.jpg","img/neutralC/CFD-IM-719-221-N.jpg","0","1","1","0","0","0","0.444697400031146","0.724854299973231","0.510261200019158","1","1","1","1","1","1","1","1","1"
"250028","img/neutralC/CFD-IM-719-221-N.jpg","img/neutralC/CFD-AF-221-147-N.jpg","img/neutralC/CFD-BM-204-003-N.jpg","1","0","1","0","0","0","0.510261200019158","0.444697400031146","0.459631499950774","1","1","1","1","1","1","1","1","1"
"250028","img/neutralC/CFD-BM-204-003-N.jpg","img/neutralC/CFD-IM-719-221-N.jpg","img/neutralC/CFD-LF-215-157-N.jpg","1","1","1","0","0","0","0.459631499950774","0.510261200019158","0.48228289996041","1","1","1","1","1","1","1","1","1"
"250028","img/neutralC/CFD-LF-215-157-N.jpg","img/neutralC/CFD-BM-204-003-N.jpg","img/neutralC/CFD-WF-245-084-N.jpg","1","1","1","0","0","1","0.48228289996041","0.459631499950774","0.387057600019034","1","1","1","1","1","1","1","1","1"
"250028","img/neutralC/CFD-WF-245-084-N.jpg","img/neutralC/CFD-LF-215-157-N.jpg","img/neutralC/CFD-BF-218-207-N.jpg","1","1","1","1","0","1","0.387057600019034","0.48228289996041","0.425055500003509","1","1","1","1","1","1","1","1","1"
"250028","img/neutralC/CFD-BF-218-207-N.jpg","img/neutralC/CFD-WF-245-084-N.jpg","img/neutralC/CFD-WM-013-001-N.jpg","1","1","1","1","1","1","0.425055500003509","0.387057600019034","0.419426399981603","1","1","1","1","1","1","1","1","1"
"250028","img/neutralC/CFD-WM-013-001-N.jpg","img/neutralC/CFD-BF-218-207-N.jpg","img/neutralC/CFD-LF-211-003-N.jpg","1","1","1","1","1","0","0.419426399981603","0.425055500003509","0.491470200009644","1","1","1","1","1","1","1","1","1"
"250028","img/neutralC/CFD-LF-211-003-N.jpg","img/neutralC/CFD-WM-013-001-N.jpg","img/neutralC/CFD-WM-237-052-N.jpg","1","1","1","0","1","1","0.491470200009644","0.419426399981603","0.527606300020125","1","1","1","1","1","1","1","1","1"
"250028","img/neutralC/CFD-WM-237-052-N.jpg","img/neutralC/CFD-LF-211-003-N.jpg","img/neutralC/CFD-WM-221-091-N.jpg","1","1","1","1","0","0","0.527606300020125","0.491470200009644","0.602059400000144","1","1","1","1","1","1","1","1","1"
"250028","img/neutralC/CFD-WM-221-091-N.jpg","img/neutralC/CFD-WM-237-052-N.jpg","img/neutralC/CFD-AF-232-078-N.jpg","1","1","1","0","1","1","0.602059400000144","0.527606300020125","0.420259399979841","1","1","1","1","1","1","1","1","1"
"250028","img/neutralC/CFD-AF-232-078-N.jpg","img/neutralC/CFD-WM-221-091-N.jpg","img/neutralC/CFD-LM-253-075-N.jpg","1","1","1","1","0","0","0.420259399979841","0.602059400000144","0.509754300001077","1","1","1","1","1","1","1","1","1"
"250028","img/neutralC/CFD-LM-253-075-N.jpg","img/neutralC/CFD-AF-232-078-N.jpg","img/neutralC/CFD-AM-244-222-N.jpg","1","1","1","0","1","0","0.509754300001077","0.420259399979841","0.560528500005603","1","1","1","1","1","1","1","1","1"
"250028","img/neutralC/CFD-AM-244-222-N.jpg","img/neutralC/CFD-LM-253-075-N.jpg","img/neutralC/CFD-WM-201-063-N.jpg","1","1","1","0","0","1","0.560528500005603","0.509754300001077","0.444454099982977","1","1","1","1","1","1","1","1","1"
"250028","img/neutralC/CFD-WM-201-063-N.jpg","img/neutralC/CFD-AM-244-222-N.jpg","img/neutralC/CFD-MF-342-022-N.jpg","1","1","1","1","0","1","0.444454099982977","0.560528500005603","0.390556400001515","1","1","1","1","1","1","1","1","1"
"250028","img/neutralC/CFD-MF-342-022-N.jpg","img/neutralC/CFD-WM-201-063-N.jpg","img/neutralC/CFD-WM-009-002-N.jpg","1","1","1","1","1","0","0.390556400001515","0.444454099982977","0.516783499973826","1","1","1","1","1","1","1","1","1"
"250028","img/neutralC/CFD-WM-009-002-N.jpg","img/neutralC/CFD-MF-342-022-N.jpg","img/neutralC/CFD-IM-627-178-N.jpg","1","1","1","0","1","1","0.516783499973826","0.390556400001515","0.411955600022338","1","1","1","1","1","1","1","1","1"
"250028","img/neutralC/CFD-IM-627-178-N.jpg","img/neutralC/CFD-WM-009-002-N.jpg",NA,"1","1",NA,"1","0",NA,"0.411955600022338","0.516783499973826",NA,"1","1",NA,"1","1",NA,"1","1",NA
"250028","img/neutralC/CFD-WM-026-001-N.jpg",NA,"img/neutralC/CFD-MM-317-061-N.jpg","1",NA,"1","1",NA,"1","0.56296069995733",NA,"0.469990699959453","1",NA,"1","1",NA,"1","1",NA,"1"
"250028","img/neutralC/CFD-MM-317-061-N.jpg","img/neutralC/CFD-WM-026-001-N.jpg","img/neutralC/CFD-WF-228-196-N.jpg","1","1","1","1","1","0","0.469990699959453","0.56296069995733","0.463949199998751","1","1","1","1","1","1","1","1","1"
"250028","img/neutralC/CFD-WF-228-196-N.jpg","img/neutralC/CFD-MM-317-061-N.jpg","img/neutralC/CFD-IM-648-337-N.jpg","1","1","0","0","1","0","0.463949199998751","0.469990699959453","0.5226488999906","1","1","1","1","1","1","1","1","1"
"250028","img/neutralC/CFD-IM-648-337-N.jpg","img/neutralC/CFD-WF-228-196-N.jpg","img/neutralC/CFD-AF-240-206-N.jpg","0","1","1","0","0","0","0.5226488999906","0.463949199998751","0.41762069996912","1","1","1","1","1","1","1","1","1"
"250028","img/neutralC/CFD-AF-240-206-N.jpg","img/neutralC/CFD-IM-648-337-N.jpg","img/neutralC/CFD-WM-019-003-N.jpg","1","0","1","0","0","1","0.41762069996912","0.5226488999906","0.345314200036228","1","1","1","1","1","1","1","1","1"
"250028","img/neutralC/CFD-WM-019-003-N.jpg","img/neutralC/CFD-AF-240-206-N.jpg","img/neutralC/CFD-WM-249-239-N.jpg","1","1","1","1","0","1","0.345314200036228","0.41762069996912","0.40855749999173","1","1","1","1","1","1","1","1","1"
"250028","img/neutralC/CFD-WM-249-239-N.jpg","img/neutralC/CFD-WM-019-003-N.jpg","img/neutralC/CFD-BF-228-212-N.jpg","1","1","0","1","1","0","0.40855749999173","0.345314200036228","0.435394200030714","1","1","1","1","1","1","1","1","1"
"250028","img/neutralC/CFD-BF-228-212-N.jpg","img/neutralC/CFD-WM-249-239-N.jpg","img/neutralC/CFD-BF-041-001-N.jpg","0","1","1","0","1","1","0.435394200030714","0.40855749999173","0.466453699977137","1","1","1","1","1","1","1","1","1"
"250028","img/neutralC/CFD-BF-041-001-N.jpg","img/neutralC/CFD-BF-228-212-N.jpg","img/neutralC/CFD-WM-215-041-N.jpg","1","0","1","1","0","0","0.466453699977137","0.435394200030714","1.13535950001096","1","1","1","1","1","1","1","1","1"
"250028","img/neutralC/CFD-WM-215-041-N.jpg","img/neutralC/CFD-BF-041-001-N.jpg","img/neutralC/CFD-MF-309-002-N.jpg","1","1","1","0","1","0","1.13535950001096","0.466453699977137","0.441973499953747","1","1","1","1","1","1","1","1","1"
"250028","img/neutralC/CFD-MF-309-002-N.jpg","img/neutralC/CFD-WM-215-041-N.jpg","img/neutralC/CFD-WM-012-001-N.jpg","1","1","1","0","0","1","0.441973499953747","1.13535950001096","0.33651930000633","1","1","1","1","1","1","1","1","1"
"250028","img/neutralC/CFD-WM-012-001-N.jpg","img/neutralC/CFD-MF-309-002-N.jpg","img/neutralC/CFD-IF-642-295-N.jpg","1","1","1","1","0","1","0.33651930000633","0.441973499953747","0.36022089998005","1","1","1","1","1","1","1","1","1"
"250028","img/neutralC/CFD-IF-642-295-N.jpg","img/neutralC/CFD-WM-012-001-N.jpg","img/neutralC/CFD-WF-017-003-N.jpg","1","1","1","1","1","1","0.36022089998005","0.33651930000633","0.393536799994763","1","1","1","1","1","1","1","1","1"
"250028","img/neutralC/CFD-WF-017-003-N.jpg","img/neutralC/CFD-IF-642-295-N.jpg","img/neutralC/CFD-MF-335-002-N.jpg","1","1","1","1","1","0","0.393536799994763","0.36022089998005","0.490169299999252","1","1","1","1","1","1","1","1","1"
"250028","img/neutralC/CFD-MF-335-002-N.jpg","img/neutralC/CFD-WF-017-003-N.jpg","img/neutralC/CFD-AM-247-165-N.jpg","1","1","1","0","1","1","0.490169299999252","0.393536799994763","0.383204200014006","1","1","1","1","1","1","1","1","1"
"250028","img/neutralC/CFD-AM-247-165-N.jpg","img/neutralC/CFD-MF-335-002-N.jpg","img/neutralC/CFD-LM-216-082-N.jpg","1","1","1","1","0","0","0.383204200014006","0.490169299999252","0.449195599998347","1","1","1","1","1","1","1","1","1"
"250028","img/neutralC/CFD-LM-216-082-N.jpg","img/neutralC/CFD-AM-247-165-N.jpg","img/neutralC/CFD-LM-244-068-N.jpg","1","1","1","0","1","1","0.449195599998347","0.383204200014006","0.342407599964645","1","1","1","1","1","1","1","1","1"
"250028","img/neutralC/CFD-LM-244-068-N.jpg","img/neutralC/CFD-LM-216-082-N.jpg","img/neutralC/CFD-WM-212-097-N.jpg","1","1","1","1","0","0","0.342407599964645","0.449195599998347","0.370432299969252","1","1","1","1","1","1","1","1","1"
"250028","img/neutralC/CFD-WM-212-097-N.jpg","img/neutralC/CFD-LM-244-068-N.jpg","img/neutralC/CFD-BM-205-001-N.jpg","1","1","1","0","1","0","0.370432299969252","0.342407599964645","0.604569599963725","1","1","1","1","1","1","1","1","1"
"250028","img/neutralC/CFD-BM-205-001-N.jpg","img/neutralC/CFD-WM-212-097-N.jpg","img/neutralC/CFD-WF-005-010-N.jpg","1","1","0","0","0","0","0.604569599963725","0.370432299969252","0.39913469995372","1","1","1","1","1","1","1","1","1"
"250028","img/neutralC/CFD-WF-005-010-N.jpg","img/neutralC/CFD-BM-205-001-N.jpg","img/neutralC/CFD-BF-025-002-N.jpg","0","1","1","0","0","0","0.39913469995372","0.604569599963725","0.747747300018091","1","1","1","1","1","1","1","1","1"
"250028","img/neutralC/CFD-BF-025-002-N.jpg","img/neutralC/CFD-WF-005-010-N.jpg","img/neutralC/CFD-LM-214-165-N.jpg","1","0","1","0","0","1","0.747747300018091","0.39913469995372","0.551424100005534","1","1","1","1","1","1","1","1","1"
"250028","img/neutralC/CFD-LM-214-165-N.jpg","img/neutralC/CFD-BF-025-002-N.jpg","img/neutralC/CFD-BM-248-128-N.jpg","1","1","1","1","0","0","0.551424100005534","0.747747300018091","0.457413500000257","1","1","1","1","1","1","1","1","1"
"250028","img/neutralC/CFD-BM-248-128-N.jpg","img/neutralC/CFD-LM-214-165-N.jpg","img/neutralC/CFD-WM-006-002-N.jpg","1","1","1","0","1","0","0.457413500000257","0.551424100005534","0.489853499981109","1","1","1","1","1","1","1","1","1"
"250028","img/neutralC/CFD-WM-006-002-N.jpg","img/neutralC/CFD-BM-248-128-N.jpg","img/neutralC/CFD-WF-240-083-N.jpg","1","1","1","0","0","0","0.489853499981109","0.457413500000257","0.614871300000232","1","1","1","1","1","1","1","1","1"
"250028","img/neutralC/CFD-WF-240-083-N.jpg","img/neutralC/CFD-WM-006-002-N.jpg","img/neutralC/CFD-BF-212-315-N.jpg","1","1","1","0","0","1","0.614871300000232","0.489853499981109","0.415850999997929","1","1","1","1","1","1","1","1","1"
"250028","img/neutralC/CFD-BF-212-315-N.jpg","img/neutralC/CFD-WF-240-083-N.jpg","img/neutralC/CFD-BF-202-109-N.jpg","1","1","1","1","0","1","0.415850999997929","0.614871300000232","0.413051699986681","1","1","1","1","1","1","1","1","1"
"250028","img/neutralC/CFD-BF-202-109-N.jpg","img/neutralC/CFD-BF-212-315-N.jpg","img/neutralC/CFD-BM-251-013-N.jpg","1","1","1","1","1","1","0.413051699986681","0.415850999997929","0.415362400002778","1","1","1","1","1","1","1","1","1"
"250028","img/neutralC/CFD-BM-251-013-N.jpg","img/neutralC/CFD-BF-202-109-N.jpg","img/neutralC/CFD-LM-243-075-N.jpg","1","1","1","1","1","0","0.415362400002778","0.413051699986681","0.482723499997519","1","1","1","1","1","1","1","1","1"
"250028","img/neutralC/CFD-LM-243-075-N.jpg","img/neutralC/CFD-BM-251-013-N.jpg","img/neutralC/CFD-IM-646-023-N.jpg","1","1","1","0","1","1","0.482723499997519","0.415362400002778","0.376410399971064","1","1","1","1","1","1","1","1","1"
"250028","img/neutralC/CFD-IM-646-023-N.jpg","img/neutralC/CFD-LM-243-075-N.jpg","img/neutralC/CFD-LM-201-057-N.jpg","1","1","1","1","0","1","0.376410399971064","0.482723499997519","0.344307399995159","1","1","1","1","1","1","1","1","1"
"250028","img/neutralC/CFD-LM-201-057-N.jpg","img/neutralC/CFD-IM-646-023-N.jpg",NA,"1","1",NA,"1","1",NA,"0.344307399995159","0.376410399971064",NA,"1","1",NA,"1","1",NA,"1","1",NA
"250028","img/neutralC/CFD-BM-009-002-N.jpg",NA,"img/neutralC/CFD-IM-697-015-N.jpg","1",NA,"1","1",NA,"1","0.670428899989929",NA,"0.42801029997645","1",NA,"1","1",NA,"1","1",NA,"1"
"250028","img/neutralC/CFD-IM-697-015-N.jpg","img/neutralC/CFD-BM-009-002-N.jpg","img/neutralC/CFD-MM-306-010-N.jpg","1","1","1","1","1","0","0.42801029997645","0.670428899989929","0.480857599992305","1","1","1","1","1","1","1","1","1"
"250028","img/neutralC/CFD-MM-306-010-N.jpg","img/neutralC/CFD-IM-697-015-N.jpg","img/neutralC/CFD-WM-023-001-N.jpg","1","1","1","0","1","0","0.480857599992305","0.42801029997645","0.422922300000209","1","1","1","1","1","1","1","1","1"
"250028","img/neutralC/CFD-WM-023-001-N.jpg","img/neutralC/CFD-MM-306-010-N.jpg","img/neutralC/CFD-AF-237-223-N.jpg","1","1","1","0","0","0","0.422922300000209","0.480857599992305","0.556401299952995","1","1","1","1","1","1","1","1","1"
"250028","img/neutralC/CFD-AF-237-223-N.jpg","img/neutralC/CFD-WM-023-001-N.jpg","img/neutralC/CFD-LF-212-066-N.jpg","1","1","1","0","0","1","0.556401299952995","0.422922300000209","0.449397600023076","1","1","1","1","1","1","1","1","1"
"250028","img/neutralC/CFD-LF-212-066-N.jpg","img/neutralC/CFD-AF-237-223-N.jpg","img/neutralC/CFD-WF-243-148-N.jpg","1","1","0","1","0","0","0.449397600023076","0.556401299952995","0.71757570002228","1","1","1","1","1","1","1","1","1"
"250028","img/neutralC/CFD-WF-243-148-N.jpg","img/neutralC/CFD-LF-212-066-N.jpg","img/neutralC/CFD-AM-219-101-N.jpg","0","1","1","0","1","0","0.71757570002228","0.449397600023076","0.447493500018027","1","1","1","1","1","1","1","1","1"
"250028","img/neutralC/CFD-AM-219-101-N.jpg","img/neutralC/CFD-WF-243-148-N.jpg","img/neutralC/CFD-BM-030-003-N.jpg","1","0","1","0","0","0","0.447493500018027","0.71757570002228","0.483312500000466","1","1","1","1","1","1","1","1","1"
"250028","img/neutralC/CFD-BM-030-003-N.jpg","img/neutralC/CFD-AM-219-101-N.jpg","img/neutralC/CFD-BM-020-001-N.jpg","1","1","1","0","0","0","0.483312500000466","0.447493500018027","0.480752299947198","1","1","1","1","1","1","1","1","1"
"250028","img/neutralC/CFD-BM-020-001-N.jpg","img/neutralC/CFD-BM-030-003-N.jpg","img/neutralC/CFD-IM-606-008-N.jpg","1","1","1","0","0","0","0.480752299947198","0.483312500000466","0.448873899993487","1","1","1","1","1","1","1","1","1"
"250028","img/neutralC/CFD-IM-606-008-N.jpg","img/neutralC/CFD-BM-020-001-N.jpg","img/neutralC/CFD-BM-227-191-N.jpg","1","1","1","0","0","1","0.448873899993487","0.480752299947198","0.441710900049657","1","1","1","1","1","1","1","1","1"
"250028","img/neutralC/CFD-BM-227-191-N.jpg","img/neutralC/CFD-IM-606-008-N.jpg","img/neutralC/CFD-BM-021-021-N.jpg","1","1","1","1","0","1","0.441710900049657","0.448873899993487","0.466713600035291","1","1","1","1","1","1","1","1","1"
"250028","img/neutralC/CFD-BM-021-021-N.jpg","img/neutralC/CFD-BM-227-191-N.jpg","img/neutralC/CFD-WF-207-014-N.jpg","1","1","1","1","1","1","0.466713600035291","0.441710900049657","0.364388499991037","1","1","1","1","1","1","1","1","1"
"250028","img/neutralC/CFD-WF-207-014-N.jpg","img/neutralC/CFD-BM-021-021-N.jpg","img/neutralC/CFD-LF-222-147-N.jpg","1","1","0","1","1","0","0.364388499991037","0.466713600035291","0.424123500008136","1","1","1","1","1","1","1","1","3"
"250028","img/neutralC/CFD-LF-222-147-N.jpg","img/neutralC/CFD-WF-207-014-N.jpg","img/neutralC/CFD-BF-012-001-N.jpg","0","1","1","0","1","0","0.424123500008136","0.364388499991037","0.642118900024798","1","1","1","1","1","1","3","1","1"
"250028","img/neutralC/CFD-BF-012-001-N.jpg","img/neutralC/CFD-LF-222-147-N.jpg","img/neutralC/CFD-AM-249-163-N.jpg","1","0","1","0","0","1","0.642118900024798","0.424123500008136","0.434055600024294","1","1","1","1","1","1","1","3","1"
"250028","img/neutralC/CFD-AM-249-163-N.jpg","img/neutralC/CFD-BF-012-001-N.jpg","img/neutralC/CFD-WF-241-210-N.jpg","1","1","1","1","0","0","0.434055600024294","0.642118900024798","0.417512200016063","1","1","1","1","1","1","1","1","1"
"250028","img/neutralC/CFD-WF-241-210-N.jpg","img/neutralC/CFD-AM-249-163-N.jpg","img/neutralC/CFD-LM-240-013-N.jpg","1","1","1","0","1","1","0.417512200016063","0.434055600024294","0.337069900007918","1","1","1","1","1","1","1","1","1"
"250028","img/neutralC/CFD-LM-240-013-N.jpg","img/neutralC/CFD-WF-241-210-N.jpg","img/neutralC/CFD-IF-676-017-N.jpg","1","1","1","1","0","1","0.337069900007918","0.417512200016063","0.423028999997769","1","1","1","1","1","1","1","1","1"
"250028","img/neutralC/CFD-IF-676-017-N.jpg","img/neutralC/CFD-LM-240-013-N.jpg","img/neutralC/CFD-IM-615-167-N.jpg","1","1","1","1","1","0","0.423028999997769","0.337069900007918","0.399432799953502","1","1","1","1","1","1","1","1","1"
"250028","img/neutralC/CFD-IM-615-167-N.jpg","img/neutralC/CFD-IF-676-017-N.jpg","img/neutralC/CFD-LF-238-154-N.jpg","1","1","1","0","1","1","0.399432799953502","0.423028999997769","0.397310000029392","1","1","1","1","1","1","1","1","1"
"250028","img/neutralC/CFD-LF-238-154-N.jpg","img/neutralC/CFD-IM-615-167-N.jpg","img/neutralC/CFD-BM-043-071-N.jpg","1","1","0","1","0","0","0.397310000029392","0.399432799953502","0.3988185999915","1","1","1","1","1","1","1","1","1"
"250028","img/neutralC/CFD-BM-043-071-N.jpg","img/neutralC/CFD-LF-238-154-N.jpg","img/neutralC/CFD-IM-689-263-N.jpg","0","1","1","0","1","1","0.3988185999915","0.397310000029392","0.473789799958467","1","1","1","1","1","1","1","1","1"
"250028","img/neutralC/CFD-IM-689-263-N.jpg","img/neutralC/CFD-BM-043-071-N.jpg","img/neutralC/CFD-WM-028-003-N.jpg","1","0","1","1","0","1","0.473789799958467","0.3988185999915","0.408402000030037","1","1","1","1","1","1","1","1","1"
"250028","img/neutralC/CFD-WM-028-003-N.jpg","img/neutralC/CFD-IM-689-263-N.jpg","img/neutralC/CFD-BF-244-231-N.jpg","1","1","1","1","1","1","0.408402000030037","0.473789799958467","0.478520499949809","1","1","1","1","1","1","1","1","1"
"250028","img/neutralC/CFD-BF-244-231-N.jpg","img/neutralC/CFD-WM-028-003-N.jpg","img/neutralC/CFD-WM-025-002-N.jpg","1","1","0","1","1","0","0.478520499949809","0.408402000030037","0.463354900013655","1","1","1","1","1","1","1","1","1"
"250028","img/neutralC/CFD-WM-025-002-N.jpg","img/neutralC/CFD-BF-244-231-N.jpg","img/neutralC/CFD-WF-009-001-N.jpg","0","1","1","0","1","1","0.463354900013655","0.478520499949809","0.449883900000714","1","1","1","1","1","1","1","1","1"
"250028","img/neutralC/CFD-WF-009-001-N.jpg","img/neutralC/CFD-WM-025-002-N.jpg","img/neutralC/CFD-AM-205-153-N.jpg","1","0","1","1","0","1","0.449883900000714","0.463354900013655","0.485149500018451","1","1","1","1","1","1","1","1","1"
"250028","img/neutralC/CFD-AM-205-153-N.jpg","img/neutralC/CFD-WF-009-001-N.jpg","img/neutralC/CFD-WF-221-005-N.jpg","1","1","0","1","1","0","0.485149500018451","0.449883900000714","0.493864999967627","1","1","1","1","1","1","1","1","1"
"250028","img/neutralC/CFD-WF-221-005-N.jpg","img/neutralC/CFD-AM-205-153-N.jpg","img/neutralC/CFD-AM-243-212-N.jpg","0","1","1","0","1","1","0.493864999967627","0.485149500018451","0.607303500000853","1","1","1","1","1","1","1","1","1"
"250028","img/neutralC/CFD-AM-243-212-N.jpg","img/neutralC/CFD-WF-221-005-N.jpg","img/neutralC/CFD-MF-328-020-N.jpg","1","0","1","1","0","0","0.607303500000853","0.493864999967627","0.463999599975068","1","1","1","1","1","1","1","1","1"
"250028","img/neutralC/CFD-MF-328-020-N.jpg","img/neutralC/CFD-AM-243-212-N.jpg",NA,"1","1",NA,"0","1",NA,"0.463999599975068","0.607303500000853",NA,"1","1",NA,"1","1",NA,"1","1",NA
