"participant_id","current_trial_face","pre_trial_face","post_trial_face","current_trial_accuracy","pre_trial_accuracy","post_trial_accuracy","current_trial_congruency","pre_trial_congruency","post_trial_congruency","current_trial_rt","pre_trial_rt","post_trial_rt","current_trial_responded","pre_trial_responded","post_trial_responded","current_trial_legitResponse","pre_trial_legitResponse","post_trial_legitResponse","current_trial_resp_nums","pre_trial_resp_nums","post_trial_resp_nums"
"250057","img/neutralC/CFD-WM-011-002-N.jpg",NA,"img/neutralC/CFD-IM-684-008-N.jpg","0",NA,"1","0",NA,"1","0.665811699989717",NA,"0.507632799970452","1",NA,"1","1",NA,"1","1",NA,"1"
"250057","img/neutralC/CFD-IM-684-008-N.jpg","img/neutralC/CFD-WM-011-002-N.jpg","img/neutralC/CFD-WF-224-099-N.jpg","1","0","1","1","0","0","0.507632799970452","0.665811699989717","0.500363299972378","1","1","1","1","1","1","1","1","1"
"250057","img/neutralC/CFD-WF-224-099-N.jpg","img/neutralC/CFD-IM-684-008-N.jpg","img/neutralC/CFD-IF-634-382-N.jpg","1","1","1","0","1","1","0.500363299972378","0.507632799970452","0.608972800022457","1","1","1","1","1","1","1","1","1"
"250057","img/neutralC/CFD-IF-634-382-N.jpg","img/neutralC/CFD-WF-224-099-N.jpg","img/neutralC/CFD-LM-218-183-N.jpg","1","1","1","1","0","1","0.608972800022457","0.500363299972378","0.57629719999386","1","1","1","1","1","1","1","1","1"
"250057","img/neutralC/CFD-LM-218-183-N.jpg","img/neutralC/CFD-IF-634-382-N.jpg","img/neutralC/CFD-BM-239-136-N.jpg","1","1","1","1","1","1","0.57629719999386","0.608972800022457","0.448342899966519","1","1","1","1","1","1","1","1","1"
"250057","img/neutralC/CFD-BM-239-136-N.jpg","img/neutralC/CFD-LM-218-183-N.jpg","img/neutralC/CFD-BM-033-003-N.jpg","1","1","1","1","1","0","0.448342899966519","0.57629719999386","0.661609200004023","1","1","1","1","1","1","1","1","1"
"250057","img/neutralC/CFD-BM-033-003-N.jpg","img/neutralC/CFD-BM-239-136-N.jpg","img/neutralC/CFD-LF-203-066-N.jpg","1","1","1","0","1","0","0.661609200004023","0.448342899966519","0.653662700031418","1","1","1","1","1","1","1","1","1"
"250057","img/neutralC/CFD-LF-203-066-N.jpg","img/neutralC/CFD-BM-033-003-N.jpg","img/neutralC/CFD-WF-213-031-N.jpg","1","1","1","0","0","1","0.653662700031418","0.661609200004023","0.615781300002709","1","1","1","1","1","1","1","1","1"
"250057","img/neutralC/CFD-WF-213-031-N.jpg","img/neutralC/CFD-LF-203-066-N.jpg","img/neutralC/CFD-WM-021-001-N.jpg","1","1","1","1","0","1","0.615781300002709","0.653662700031418","0.616597699990962","1","1","1","1","1","1","1","1","1"
"250057","img/neutralC/CFD-WM-021-001-N.jpg","img/neutralC/CFD-WF-213-031-N.jpg","img/neutralC/CFD-AF-231-357-N.jpg","1","1","1","1","1","1","0.616597699990962","0.615781300002709","0.573695900035091","1","1","1","1","1","1","1","1","1"
"250057","img/neutralC/CFD-AF-231-357-N.jpg","img/neutralC/CFD-WM-021-001-N.jpg","img/neutralC/CFD-IF-710-016-N.jpg","1","1","1","1","1","0","0.573695900035091","0.616597699990962","0.776460800028872","1","1","1","1","1","1","1","1","1"
"250057","img/neutralC/CFD-IF-710-016-N.jpg","img/neutralC/CFD-AF-231-357-N.jpg","img/neutralC/CFD-BF-029-031-N.jpg","1","1","1","0","1","1","0.776460800028872","0.573695900035091","0.828274100029375","1","1","1","1","1","1","1","1","1"
"250057","img/neutralC/CFD-BF-029-031-N.jpg","img/neutralC/CFD-IF-710-016-N.jpg","img/neutralC/CFD-LF-214-090-N.jpg","1","1","1","1","0","0","0.828274100029375","0.776460800028872","0.633388300018851","1","1","1","1","1","1","1","1","1"
"250057","img/neutralC/CFD-LF-214-090-N.jpg","img/neutralC/CFD-BF-029-031-N.jpg","img/neutralC/CFD-LF-224-176-N.jpg","1","1","1","0","1","0","0.633388300018851","0.828274100029375","0.914714799961075","1","1","1","1","1","1","1","1","1"
"250057","img/neutralC/CFD-LF-224-176-N.jpg","img/neutralC/CFD-LF-214-090-N.jpg","img/neutralC/CFD-LF-230-203-N.jpg","1","1","1","0","0","0","0.914714799961075","0.633388300018851","0.598953099979553","1","1","1","1","1","1","1","1","1"
"250057","img/neutralC/CFD-LF-230-203-N.jpg","img/neutralC/CFD-LF-224-176-N.jpg","img/neutralC/CFD-BF-205-141-N.jpg","1","1","1","0","0","0","0.598953099979553","0.914714799961075","0.574913599994034","1","1","1","1","1","1","1","1","1"
"250057","img/neutralC/CFD-BF-205-141-N.jpg","img/neutralC/CFD-LF-230-203-N.jpg","img/neutralC/CFD-LF-205-100-N.jpg","1","1","1","0","0","1","0.574913599994034","0.598953099979553","0.684216300025582","1","1","1","1","1","1","1","1","1"
"250057","img/neutralC/CFD-LF-205-100-N.jpg","img/neutralC/CFD-BF-205-141-N.jpg","img/neutralC/CFD-BF-213-188-N.jpg","1","1","1","1","0","1","0.684216300025582","0.574913599994034","0.723153099999763","1","1","1","1","1","1","1","1","1"
"250057","img/neutralC/CFD-BF-213-188-N.jpg","img/neutralC/CFD-LF-205-100-N.jpg","img/neutralC/CFD-AM-212-050-N.jpg","1","1","1","1","1","1","0.723153099999763","0.684216300025582","0.649177499988582","1","1","1","1","1","1","1","1","1"
"250057","img/neutralC/CFD-AM-212-050-N.jpg","img/neutralC/CFD-BF-213-188-N.jpg","img/neutralC/CFD-MM-316-156-N.jpg","1","1","1","1","1","1","0.649177499988582","0.723153099999763","0.673464299994521","1","1","1","1","1","1","1","1","1"
"250057","img/neutralC/CFD-MM-316-156-N.jpg","img/neutralC/CFD-AM-212-050-N.jpg","img/neutralC/CFD-LM-215-247-N.jpg","1","1","1","1","1","0","0.673464299994521","0.649177499988582","0.973505700007081","1","1","1","1","1","1","1","1","1"
"250057","img/neutralC/CFD-LM-215-247-N.jpg","img/neutralC/CFD-MM-316-156-N.jpg","img/neutralC/CFD-IF-693-172-N.jpg","1","1","1","0","1","0","0.973505700007081","0.673464299994521","0.612937199999578","1","1","1","1","1","1","1","1","1"
"250057","img/neutralC/CFD-IF-693-172-N.jpg","img/neutralC/CFD-LM-215-247-N.jpg","img/neutralC/CFD-IM-651-308-N.jpg","1","1","1","0","0","0","0.612937199999578","0.973505700007081","0.620278100017458","1","1","1","1","1","1","1","1","1"
"250057","img/neutralC/CFD-IM-651-308-N.jpg","img/neutralC/CFD-IF-693-172-N.jpg","img/neutralC/CFD-BF-253-202-N.jpg","1","1","1","0","0","0","0.620278100017458","0.612937199999578","0.648216899950057","1","1","1","1","1","1","1","1","1"
"250057","img/neutralC/CFD-BF-253-202-N.jpg","img/neutralC/CFD-IM-651-308-N.jpg","img/neutralC/CFD-BF-039-031-N.jpg","1","1","1","0","0","1","0.648216899950057","0.620278100017458","0.7861746000126","1","1","1","1","1","1","1","1","1"
"250057","img/neutralC/CFD-BF-039-031-N.jpg","img/neutralC/CFD-BF-253-202-N.jpg","img/neutralC/CFD-MF-337-026-N.jpg","1","1","1","1","0","1","0.7861746000126","0.648216899950057","0.613260700018145","1","1","1","1","1","1","1","1","1"
"250057","img/neutralC/CFD-MF-337-026-N.jpg","img/neutralC/CFD-BF-039-031-N.jpg","img/neutralC/CFD-BM-019-002-N.jpg","1","1","1","1","1","0","0.613260700018145","0.7861746000126","0.621941699995659","1","1","1","1","1","1","1","1","1"
"250057","img/neutralC/CFD-BM-019-002-N.jpg","img/neutralC/CFD-MF-337-026-N.jpg","img/neutralC/CFD-WM-041-021-N.jpg","1","1","1","0","1","0","0.621941699995659","0.613260700018145","0.75184729998","1","1","1","1","1","1","1","1","1"
"250057","img/neutralC/CFD-WM-041-021-N.jpg","img/neutralC/CFD-BM-019-002-N.jpg","img/neutralC/CFD-BM-041-035-N.jpg","1","1","1","0","0","0","0.75184729998","0.621941699995659","0.545127100020181","1","1","1","1","1","1","1","1","1"
"250057","img/neutralC/CFD-BM-041-035-N.jpg","img/neutralC/CFD-WM-041-021-N.jpg","img/neutralC/CFD-WF-250-167-N.jpg","1","1","1","0","0","1","0.545127100020181","0.75184729998","0.696433999983128","1","1","1","1","1","1","1","1","1"
"250057","img/neutralC/CFD-WF-250-167-N.jpg","img/neutralC/CFD-BM-041-035-N.jpg","img/neutralC/CFD-AM-201-076-N.jpg","1","1","1","1","0","1","0.696433999983128","0.545127100020181","0.587306800007354","1","1","1","1","1","1","1","1","1"
"250057","img/neutralC/CFD-AM-201-076-N.jpg","img/neutralC/CFD-WF-250-167-N.jpg",NA,"1","1",NA,"1","1",NA,"0.587306800007354","0.696433999983128",NA,"1","1",NA,"1","1",NA,"1","1",NA
"250057","img/neutralC/CFD-IF-623-129-N.jpg",NA,"img/neutralC/CFD-LF-220-120-N.jpg","1",NA,"1","1",NA,"1","0.50967950001359",NA,"0.453959200007375","1",NA,"1","1",NA,"1","1",NA,"1"
"250057","img/neutralC/CFD-LF-220-120-N.jpg","img/neutralC/CFD-IF-623-129-N.jpg","img/neutralC/CFD-WM-033-025-N.jpg","1","1","1","1","1","1","0.453959200007375","0.50967950001359","0.383451999980025","1","1","1","1","1","1","1","1","1"
"250057","img/neutralC/CFD-WM-033-025-N.jpg","img/neutralC/CFD-LF-220-120-N.jpg","img/neutralC/CFD-WM-020-001-N.jpg","1","1","1","1","1","1","0.383451999980025","0.453959200007375","0.372711099975277","1","1","1","1","1","1","1","1","1"
"250057","img/neutralC/CFD-WM-020-001-N.jpg","img/neutralC/CFD-WM-033-025-N.jpg","img/neutralC/CFD-IM-743-006-N.jpg","1","1","1","1","1","1","0.372711099975277","0.383451999980025","0.381175700051244","1","1","1","1","1","1","1","1","1"
"250057","img/neutralC/CFD-IM-743-006-N.jpg","img/neutralC/CFD-WM-020-001-N.jpg","img/neutralC/CFD-WM-235-147-N.jpg","1","1","0","1","1","0","0.381175700051244","0.372711099975277","0.378607100050431","1","1","1","1","1","1","1","1","1"
"250057","img/neutralC/CFD-WM-235-147-N.jpg","img/neutralC/CFD-IM-743-006-N.jpg","img/neutralC/CFD-WF-001-003-N.jpg","0","1","1","0","1","1","0.378607100050431","0.381175700051244","0.746616299962625","1","1","1","1","1","1","1","1","1"
"250057","img/neutralC/CFD-WF-001-003-N.jpg","img/neutralC/CFD-WM-235-147-N.jpg","img/neutralC/CFD-WM-004-010-N.jpg","1","0","1","1","0","0","0.746616299962625","0.378607100050431","0.594854400027543","1","1","1","1","1","1","1","1","1"
"250057","img/neutralC/CFD-WM-004-010-N.jpg","img/neutralC/CFD-WF-001-003-N.jpg","img/neutralC/CFD-BF-038-037-N.jpg","1","1","1","0","1","1","0.594854400027543","0.746616299962625","0.516413800010923","1","1","1","1","1","1","1","1","1"
"250057","img/neutralC/CFD-BF-038-037-N.jpg","img/neutralC/CFD-WM-004-010-N.jpg","img/neutralC/CFD-IF-650-315-N.jpg","1","1","1","1","0","0","0.516413800010923","0.594854400027543","0.580419999954756","1","1","1","1","1","1","1","1","1"
"250057","img/neutralC/CFD-IF-650-315-N.jpg","img/neutralC/CFD-BF-038-037-N.jpg","img/neutralC/CFD-WM-219-008-N.jpg","1","1","1","0","1","0","0.580419999954756","0.516413800010923","0.62237759999698","1","1","1","1","1","1","1","1","1"
"250057","img/neutralC/CFD-WM-219-008-N.jpg","img/neutralC/CFD-IF-650-315-N.jpg","img/neutralC/CFD-MF-333-012-N.jpg","1","1","1","0","0","0","0.62237759999698","0.580419999954756","0.504674099967815","1","1","1","1","1","1","1","1","1"
"250057","img/neutralC/CFD-MF-333-012-N.jpg","img/neutralC/CFD-WM-219-008-N.jpg","img/neutralC/CFD-MF-359-019-N.jpg","1","1","1","0","0","0","0.504674099967815","0.62237759999698","0.539530900015961","1","1","1","1","1","1","1","1","1"
"250057","img/neutralC/CFD-MF-359-019-N.jpg","img/neutralC/CFD-MF-333-012-N.jpg","img/neutralC/CFD-MF-352-054-N.jpg","1","1","1","0","0","0","0.539530900015961","0.504674099967815","0.579704899981152","1","1","1","1","1","1","1","1","1"
"250057","img/neutralC/CFD-MF-352-054-N.jpg","img/neutralC/CFD-MF-359-019-N.jpg","img/neutralC/CFD-AM-211-052-N.jpg","1","1","1","0","0","1","0.579704899981152","0.539530900015961","0.553039100021124","1","1","1","1","1","1","1","1","1"
"250057","img/neutralC/CFD-AM-211-052-N.jpg","img/neutralC/CFD-MF-352-054-N.jpg","img/neutralC/CFD-IM-645-001-N.jpg","1","1","1","1","0","0","0.553039100021124","0.579704899981152","0.644098999968264","1","1","1","1","1","1","1","1","1"
"250057","img/neutralC/CFD-IM-645-001-N.jpg","img/neutralC/CFD-AM-211-052-N.jpg","img/neutralC/CFD-IM-616-214-N.jpg","1","1","1","0","1","0","0.644098999968264","0.553039100021124","0.544639100029599","1","1","1","1","1","1","1","1","1"
"250057","img/neutralC/CFD-IM-616-214-N.jpg","img/neutralC/CFD-IM-645-001-N.jpg","img/neutralC/CFD-IM-671-601-N.jpg","1","1","1","0","0","0","0.544639100029599","0.644098999968264","0.626786100037862","1","1","1","1","1","1","1","1","1"
"250057","img/neutralC/CFD-IM-671-601-N.jpg","img/neutralC/CFD-IM-616-214-N.jpg","img/neutralC/CFD-AM-251-124-N.jpg","1","1","1","0","0","0","0.626786100037862","0.544639100029599","0.525094000040554","1","1","1","1","1","1","1","1","1"
"250057","img/neutralC/CFD-AM-251-124-N.jpg","img/neutralC/CFD-IM-671-601-N.jpg","img/neutralC/CFD-BM-225-154-N.jpg","1","1","1","0","0","1","0.525094000040554","0.626786100037862","0.518245499988552","1","1","1","1","1","1","1","1","1"
"250057","img/neutralC/CFD-BM-225-154-N.jpg","img/neutralC/CFD-AM-251-124-N.jpg","img/neutralC/CFD-LM-228-188-N.jpg","1","1","1","1","0","1","0.518245499988552","0.525094000040554","0.463861399970483","1","1","1","1","1","1","1","1","1"
"250057","img/neutralC/CFD-LM-228-188-N.jpg","img/neutralC/CFD-BM-225-154-N.jpg","img/neutralC/CFD-IM-703-182-N.jpg","1","1","1","1","1","1","0.463861399970483","0.518245499988552","0.732790199981537","1","1","1","1","1","1","1","1","1"
"250057","img/neutralC/CFD-IM-703-182-N.jpg","img/neutralC/CFD-LM-228-188-N.jpg","img/neutralC/CFD-BM-253-004-N.jpg","1","1","1","1","1","1","0.732790199981537","0.463861399970483","0.563696199969854","1","1","1","1","1","1","1","1","1"
"250057","img/neutralC/CFD-BM-253-004-N.jpg","img/neutralC/CFD-IM-703-182-N.jpg","img/neutralC/CFD-LF-218-072-N.jpg","1","1","1","1","1","0","0.563696199969854","0.732790199981537","0.48373790003825","1","1","1","1","1","1","1","1","1"
"250057","img/neutralC/CFD-LF-218-072-N.jpg","img/neutralC/CFD-BM-253-004-N.jpg","img/neutralC/CFD-BF-226-119-N.jpg","1","1","1","0","1","1","0.48373790003825","0.563696199969854","0.498990299995057","1","1","1","1","1","1","1","1","1"
"250057","img/neutralC/CFD-BF-226-119-N.jpg","img/neutralC/CFD-LF-218-072-N.jpg","img/neutralC/CFD-BF-232-187-N.jpg","1","1","1","1","0","1","0.498990299995057","0.48373790003825","0.456114700005855","1","1","1","1","1","1","1","1","1"
"250057","img/neutralC/CFD-BF-232-187-N.jpg","img/neutralC/CFD-BF-226-119-N.jpg","img/neutralC/CFD-BF-229-179-N.jpg","1","1","1","1","1","0","0.456114700005855","0.498990299995057","0.601483300037216","1","1","1","1","1","1","1","1","1"
"250057","img/neutralC/CFD-BF-229-179-N.jpg","img/neutralC/CFD-BF-232-187-N.jpg","img/neutralC/CFD-WF-214-122-N.jpg","1","1","1","0","1","1","0.601483300037216","0.456114700005855","0.477556199999526","1","1","1","1","1","1","1","1","1"
"250057","img/neutralC/CFD-WF-214-122-N.jpg","img/neutralC/CFD-BF-229-179-N.jpg","img/neutralC/CFD-WF-036-023-N.jpg","1","1","0","1","0","0","0.477556199999526","0.601483300037216","0.911274599959142","1","1","1","1","1","1","1","1","1"
"250057","img/neutralC/CFD-WF-036-023-N.jpg","img/neutralC/CFD-WF-214-122-N.jpg","img/neutralC/CFD-AM-242-176-N.jpg","0","1","1","0","1","1","0.911274599959142","0.477556199999526","0.509498100029305","1","1","1","1","1","1","1","1","1"
"250057","img/neutralC/CFD-AM-242-176-N.jpg","img/neutralC/CFD-WF-036-023-N.jpg","img/neutralC/CFD-LM-237-264-N.jpg","1","0","1","1","0","0","0.509498100029305","0.911274599959142","0.539462100015953","1","1","1","1","1","1","1","1","1"
"250057","img/neutralC/CFD-LM-237-264-N.jpg","img/neutralC/CFD-AM-242-176-N.jpg","img/neutralC/CFD-WF-200-099-N.jpg","1","1","1","0","1","0","0.539462100015953","0.509498100029305","0.502038300037384","1","1","1","1","1","1","1","1","1"
"250057","img/neutralC/CFD-WF-200-099-N.jpg","img/neutralC/CFD-LM-237-264-N.jpg",NA,"1","1",NA,"0","0",NA,"0.502038300037384","0.539462100015953",NA,"1","1",NA,"1","1",NA,"1","1",NA
"250057","img/neutralC/CFD-WF-248-129-N.jpg",NA,"img/neutralC/CFD-WF-217-085-N.jpg","0",NA,"1","0",NA,"1",NA,NA,"0.542978199955542","0",NA,"1","0",NA,"1","0",NA,"1"
"250057","img/neutralC/CFD-WF-217-085-N.jpg","img/neutralC/CFD-WF-248-129-N.jpg","img/neutralC/CFD-MF-327-002-N.jpg","1","0","1","1","0","0","0.542978199955542",NA,"0.5833535999991","1","0","1","1","0","1","1","0","1"
"250057","img/neutralC/CFD-MF-327-002-N.jpg","img/neutralC/CFD-WF-217-085-N.jpg","img/neutralC/CFD-WF-012-002-N.jpg","1","1","1","0","1","1","0.5833535999991","0.542978199955542","0.454341500008013","1","1","1","1","1","1","1","1","1"
"250057","img/neutralC/CFD-WF-012-002-N.jpg","img/neutralC/CFD-MF-327-002-N.jpg","img/neutralC/CFD-MM-304-002-N.jpg","1","1","1","1","0","1","0.454341500008013","0.5833535999991","0.455176200019196","1","1","1","1","1","1","1","1","1"
"250057","img/neutralC/CFD-MM-304-002-N.jpg","img/neutralC/CFD-WF-012-002-N.jpg","img/neutralC/CFD-AF-254-167-N.jpg","1","1","1","1","1","1","0.455176200019196","0.454341500008013","0.480308800004423","1","1","1","1","1","1","1","1","1"
"250057","img/neutralC/CFD-AF-254-167-N.jpg","img/neutralC/CFD-MM-304-002-N.jpg","img/neutralC/CFD-IM-637-007-N.jpg","1","1","1","1","1","0","0.480308800004423","0.455176200019196","0.479249400028493","1","1","1","1","1","1","1","1","1"
"250057","img/neutralC/CFD-IM-637-007-N.jpg","img/neutralC/CFD-AF-254-167-N.jpg","img/neutralC/CFD-MF-329-001-N.jpg","1","1","1","0","1","0","0.479249400028493","0.480308800004423","0.420859300007578","1","1","1","1","1","1","1","1","1"
"250057","img/neutralC/CFD-MF-329-001-N.jpg","img/neutralC/CFD-IM-637-007-N.jpg","img/neutralC/CFD-LF-226-174-N.jpg","1","1","1","0","0","0","0.420859300007578","0.479249400028493","0.45605889998842","1","1","1","1","1","1","1","1","1"
"250057","img/neutralC/CFD-LF-226-174-N.jpg","img/neutralC/CFD-MF-329-001-N.jpg","img/neutralC/CFD-IF-608-390-N.jpg","1","1","1","0","0","1","0.45605889998842","0.420859300007578","0.512793099973351","1","1","1","1","1","1","1","1","1"
"250057","img/neutralC/CFD-IF-608-390-N.jpg","img/neutralC/CFD-LF-226-174-N.jpg","img/neutralC/CFD-BF-224-002-N.jpg","1","1","1","1","0","1","0.512793099973351","0.45605889998842","0.365871299989522","1","1","1","1","1","1","1","1","1"
"250057","img/neutralC/CFD-BF-224-002-N.jpg","img/neutralC/CFD-IF-608-390-N.jpg","img/neutralC/CFD-MF-300-002-N.jpg","1","1","1","1","1","0","0.365871299989522","0.512793099973351","0.513276599987876","1","1","1","1","1","1","1","1","1"
"250057","img/neutralC/CFD-MF-300-002-N.jpg","img/neutralC/CFD-BF-224-002-N.jpg","img/neutralC/CFD-BF-051-035-N.jpg","1","1","1","0","1","0","0.513276599987876","0.365871299989522","0.486684400006197","1","1","1","1","1","1","1","1","1"
"250057","img/neutralC/CFD-BF-051-035-N.jpg","img/neutralC/CFD-MF-300-002-N.jpg","img/neutralC/CFD-AM-236-090-N.jpg","1","1","1","0","0","1","0.486684400006197","0.513276599987876","0.465406300034374","1","1","1","1","1","1","1","1","1"
"250057","img/neutralC/CFD-AM-236-090-N.jpg","img/neutralC/CFD-BF-051-035-N.jpg","img/neutralC/CFD-IF-619-197-N.jpg","1","1","1","1","0","0","0.465406300034374","0.486684400006197","0.455746399995405","1","1","1","1","1","1","1","1","1"
"250057","img/neutralC/CFD-IF-619-197-N.jpg","img/neutralC/CFD-AM-236-090-N.jpg","img/neutralC/CFD-LF-201-035-N.jpg","1","1","1","0","1","1","0.455746399995405","0.465406300034374","0.425844599958509","1","1","1","1","1","1","1","1","1"
"250057","img/neutralC/CFD-LF-201-035-N.jpg","img/neutralC/CFD-IF-619-197-N.jpg","img/neutralC/CFD-AF-229-160-N.jpg","1","1","1","1","0","0","0.425844599958509","0.455746399995405","0.501930299971718","1","1","1","1","1","1","1","1","1"
"250057","img/neutralC/CFD-AF-229-160-N.jpg","img/neutralC/CFD-LF-201-035-N.jpg","img/neutralC/CFD-AF-215-70-N.jpg","1","1","1","0","1","0","0.501930299971718","0.425844599958509","0.806008599989582","1","1","1","1","1","1","1","1","1"
"250057","img/neutralC/CFD-AF-215-70-N.jpg","img/neutralC/CFD-AF-229-160-N.jpg","img/neutralC/CFD-BM-243-218-N.jpg","1","1","1","0","0","1","0.806008599989582","0.501930299971718","0.638883200008422","1","1","1","1","1","1","1","1","1"
"250057","img/neutralC/CFD-BM-243-218-N.jpg","img/neutralC/CFD-AF-215-70-N.jpg","img/neutralC/CFD-BF-043-003-N.jpg","1","1","1","1","0","0","0.638883200008422","0.806008599989582","0.505847699998412","1","1","1","1","1","1","1","1","1"
"250057","img/neutralC/CFD-BF-043-003-N.jpg","img/neutralC/CFD-BM-243-218-N.jpg","img/neutralC/CFD-WM-232-070-N.jpg","1","1","1","0","1","0","0.505847699998412","0.638883200008422","0.50580230000196","1","1","1","1","1","1","1","1","1"
"250057","img/neutralC/CFD-WM-232-070-N.jpg","img/neutralC/CFD-BF-043-003-N.jpg","img/neutralC/CFD-MF-340-026-N.jpg","1","1","1","0","0","1","0.50580230000196","0.505847699998412","0.495549899991602","1","1","1","1","1","1","1","1","1"
"250057","img/neutralC/CFD-MF-340-026-N.jpg","img/neutralC/CFD-WM-232-070-N.jpg","img/neutralC/CFD-WM-213-076-N.jpg","1","1","1","1","0","1","0.495549899991602","0.50580230000196","0.478607800032478","1","1","1","1","1","1","1","1","1"
"250057","img/neutralC/CFD-WM-213-076-N.jpg","img/neutralC/CFD-MF-340-026-N.jpg","img/neutralC/CFD-IM-604-014-N.jpg","1","1","1","1","1","0","0.478607800032478","0.495549899991602","0.642633099982049","1","1","1","1","1","1","1","1","1"
"250057","img/neutralC/CFD-IM-604-014-N.jpg","img/neutralC/CFD-WM-213-076-N.jpg","img/neutralC/CFD-IM-675-015-N.jpg","1","1","1","0","1","1","0.642633099982049","0.478607800032478","0.580867199983913","1","1","1","1","1","1","1","1","1"
"250057","img/neutralC/CFD-IM-675-015-N.jpg","img/neutralC/CFD-IM-604-014-N.jpg","img/neutralC/CFD-IM-685-004-N.jpg","1","1","1","1","0","1","0.580867199983913","0.642633099982049","0.611698099994101","1","1","1","1","1","1","1","1","1"
"250057","img/neutralC/CFD-IM-685-004-N.jpg","img/neutralC/CFD-IM-675-015-N.jpg","img/neutralC/CFD-WF-008-002-N.jpg","1","1","1","1","1","1","0.611698099994101","0.580867199983913","0.505485799978487","1","1","1","1","1","1","1","1","1"
"250057","img/neutralC/CFD-WF-008-002-N.jpg","img/neutralC/CFD-IM-685-004-N.jpg","img/neutralC/CFD-WM-024-015-N.jpg","1","1","1","1","1","1","0.505485799978487","0.611698099994101","0.509582399972714","1","1","1","1","1","1","1","1","1"
"250057","img/neutralC/CFD-WM-024-015-N.jpg","img/neutralC/CFD-WF-008-002-N.jpg","img/neutralC/CFD-BM-039-029-N.jpg","1","1","1","1","1","1","0.509582399972714","0.505485799978487","0.585114299959969","1","1","1","1","1","1","1","1","1"
"250057","img/neutralC/CFD-BM-039-029-N.jpg","img/neutralC/CFD-WM-024-015-N.jpg","img/neutralC/CFD-IM-709-103-N.jpg","1","1","1","1","1","0","0.585114299959969","0.509582399972714","0.516225700033829","1","1","1","1","1","1","1","1","1"
"250057","img/neutralC/CFD-IM-709-103-N.jpg","img/neutralC/CFD-BM-039-029-N.jpg","img/neutralC/CFD-LM-217-162-N.jpg","1","1","1","0","1","0","0.516225700033829","0.585114299959969","0.551954900030978","1","1","1","1","1","1","1","1","1"
"250057","img/neutralC/CFD-LM-217-162-N.jpg","img/neutralC/CFD-IM-709-103-N.jpg","img/neutralC/CFD-WF-212-050-N.jpg","1","1","1","0","0","0","0.551954900030978","0.516225700033829","0.534802700043656","1","1","1","1","1","1","1","1","1"
"250057","img/neutralC/CFD-WF-212-050-N.jpg","img/neutralC/CFD-LM-217-162-N.jpg",NA,"1","1",NA,"0","0",NA,"0.534802700043656","0.551954900030978",NA,"1","1",NA,"1","1",NA,"1","1",NA
"250057","img/neutralC/CFD-MF-335-002-N.jpg",NA,"img/neutralC/CFD-WF-240-083-N.jpg","0",NA,"1","0",NA,"0","0.993814399989788",NA,"0.667502800002694","1",NA,"1","1",NA,"1","1",NA,"1"
"250057","img/neutralC/CFD-WF-240-083-N.jpg","img/neutralC/CFD-MF-335-002-N.jpg","img/neutralC/CFD-AM-247-165-N.jpg","1","0","1","0","0","1","0.667502800002694","0.993814399989788","0.417814999993425","1","1","1","1","1","1","1","1","1"
"250057","img/neutralC/CFD-AM-247-165-N.jpg","img/neutralC/CFD-WF-240-083-N.jpg","img/neutralC/CFD-WM-212-097-N.jpg","1","1","1","1","0","0","0.417814999993425","0.667502800002694","0.566082600038499","1","1","1","1","1","1","1","1","1"
"250057","img/neutralC/CFD-WM-212-097-N.jpg","img/neutralC/CFD-AM-247-165-N.jpg","img/neutralC/CFD-WM-006-002-N.jpg","1","1","0","0","1","0","0.566082600038499","0.417814999993425","0.478807100036647","1","1","1","1","1","1","1","1","1"
"250057","img/neutralC/CFD-WM-006-002-N.jpg","img/neutralC/CFD-WM-212-097-N.jpg","img/neutralC/CFD-IF-642-295-N.jpg","0","1","1","0","0","1","0.478807100036647","0.566082600038499","0.485992500034627","1","1","1","1","1","1","1","1","1"
"250057","img/neutralC/CFD-IF-642-295-N.jpg","img/neutralC/CFD-WM-006-002-N.jpg","img/neutralC/CFD-WM-249-239-N.jpg","1","0","1","1","0","1","0.485992500034627","0.478807100036647","0.531609800003935","1","1","1","1","1","1","1","1","1"
"250057","img/neutralC/CFD-WM-249-239-N.jpg","img/neutralC/CFD-IF-642-295-N.jpg","img/neutralC/CFD-IM-648-337-N.jpg","1","1","1","1","1","0","0.531609800003935","0.485992500034627","0.742862300015986","1","1","1","1","1","1","1","1","1"
"250057","img/neutralC/CFD-IM-648-337-N.jpg","img/neutralC/CFD-WM-249-239-N.jpg","img/neutralC/CFD-BF-041-001-N.jpg","1","1","1","0","1","1","0.742862300015986","0.531609800003935","0.536092399968766","1","1","1","1","1","1","1","1","1"
"250057","img/neutralC/CFD-BF-041-001-N.jpg","img/neutralC/CFD-IM-648-337-N.jpg","img/neutralC/CFD-MF-309-002-N.jpg","1","1","1","1","0","0","0.536092399968766","0.742862300015986","0.652059799991548","1","1","1","1","1","1","1","1","1"
"250057","img/neutralC/CFD-MF-309-002-N.jpg","img/neutralC/CFD-BF-041-001-N.jpg","img/neutralC/CFD-MM-317-061-N.jpg","1","1","1","0","1","1","0.652059799991548","0.536092399968766","0.529806800012011","1","1","1","1","1","1","1","1","1"
"250057","img/neutralC/CFD-MM-317-061-N.jpg","img/neutralC/CFD-MF-309-002-N.jpg","img/neutralC/CFD-LM-201-057-N.jpg","1","1","1","1","0","1","0.529806800012011","0.652059799991548","0.536535599967465","1","1","1","1","1","1","1","1","1"
"250057","img/neutralC/CFD-LM-201-057-N.jpg","img/neutralC/CFD-MM-317-061-N.jpg","img/neutralC/CFD-BF-228-212-N.jpg","1","1","1","1","1","0","0.536535599967465","0.529806800012011","0.720149600005243","1","1","1","1","1","1","1","1","1"
"250057","img/neutralC/CFD-BF-228-212-N.jpg","img/neutralC/CFD-LM-201-057-N.jpg","img/neutralC/CFD-BM-205-001-N.jpg","1","1","1","0","1","0","0.720149600005243","0.536535599967465","0.55221709999023","1","1","1","1","1","1","1","1","1"
"250057","img/neutralC/CFD-BM-205-001-N.jpg","img/neutralC/CFD-BF-228-212-N.jpg","img/neutralC/CFD-WF-228-196-N.jpg","1","1","1","0","0","0","0.55221709999023","0.720149600005243","0.481342400016729","1","1","1","1","1","1","1","1","1"
"250057","img/neutralC/CFD-WF-228-196-N.jpg","img/neutralC/CFD-BM-205-001-N.jpg","img/neutralC/CFD-BF-202-109-N.jpg","1","1","1","0","0","1","0.481342400016729","0.55221709999023","0.420455000014044","1","1","1","1","1","1","1","1","1"
"250057","img/neutralC/CFD-BF-202-109-N.jpg","img/neutralC/CFD-WF-228-196-N.jpg","img/neutralC/CFD-WF-017-003-N.jpg","1","1","1","1","0","1","0.420455000014044","0.481342400016729","0.464177200046834","1","1","1","1","1","1","1","1","1"
"250057","img/neutralC/CFD-WF-017-003-N.jpg","img/neutralC/CFD-BF-202-109-N.jpg","img/neutralC/CFD-WM-026-001-N.jpg","1","1","1","1","1","1","0.464177200046834","0.420455000014044","0.480547900020611","1","1","1","1","1","1","1","1","1"
"250057","img/neutralC/CFD-WM-026-001-N.jpg","img/neutralC/CFD-WF-017-003-N.jpg","img/neutralC/CFD-LM-244-068-N.jpg","1","1","1","1","1","1","0.480547900020611","0.464177200046834","0.492109800048638","1","1","1","1","1","1","1","1","1"
"250057","img/neutralC/CFD-LM-244-068-N.jpg","img/neutralC/CFD-WM-026-001-N.jpg","img/neutralC/CFD-LM-243-075-N.jpg","1","1","1","1","1","0","0.492109800048638","0.480547900020611","0.531013900006656","1","1","1","1","1","1","1","1","1"
"250057","img/neutralC/CFD-LM-243-075-N.jpg","img/neutralC/CFD-LM-244-068-N.jpg","img/neutralC/CFD-WF-005-010-N.jpg","1","1","1","0","1","0","0.531013900006656","0.492109800048638","0.523763700039126","1","1","1","1","1","1","1","1","1"
"250057","img/neutralC/CFD-WF-005-010-N.jpg","img/neutralC/CFD-LM-243-075-N.jpg","img/neutralC/CFD-BF-025-002-N.jpg","1","1","1","0","0","0","0.523763700039126","0.531013900006656","0.537550899956841","1","1","1","1","1","1","1","1","1"
"250057","img/neutralC/CFD-BF-025-002-N.jpg","img/neutralC/CFD-WF-005-010-N.jpg","img/neutralC/CFD-WM-019-003-N.jpg","1","1","1","0","0","1","0.537550899956841","0.523763700039126","0.522369400016032","1","1","1","1","1","1","1","1","1"
"250057","img/neutralC/CFD-WM-019-003-N.jpg","img/neutralC/CFD-BF-025-002-N.jpg","img/neutralC/CFD-BM-248-128-N.jpg","1","1","1","1","0","0","0.522369400016032","0.537550899956841","0.503862800018396","1","1","1","1","1","1","1","1","1"
"250057","img/neutralC/CFD-BM-248-128-N.jpg","img/neutralC/CFD-WM-019-003-N.jpg","img/neutralC/CFD-LM-214-165-N.jpg","1","1","1","0","1","1","0.503862800018396","0.522369400016032","0.502096700016409","1","1","1","1","1","1","1","1","1"
"250057","img/neutralC/CFD-LM-214-165-N.jpg","img/neutralC/CFD-BM-248-128-N.jpg","img/neutralC/CFD-BM-251-013-N.jpg","1","1","1","1","0","1","0.502096700016409","0.503862800018396","0.460859400045592","1","1","1","1","1","1","1","1","1"
"250057","img/neutralC/CFD-BM-251-013-N.jpg","img/neutralC/CFD-LM-214-165-N.jpg","img/neutralC/CFD-BF-212-315-N.jpg","1","1","1","1","1","1","0.460859400045592","0.502096700016409","0.457787799998186","1","1","1","1","1","1","1","1","1"
"250057","img/neutralC/CFD-BF-212-315-N.jpg","img/neutralC/CFD-BM-251-013-N.jpg","img/neutralC/CFD-AF-240-206-N.jpg","1","1","1","1","1","0","0.457787799998186","0.460859400045592","0.52150019997498","1","1","1","1","1","1","1","1","1"
"250057","img/neutralC/CFD-AF-240-206-N.jpg","img/neutralC/CFD-BF-212-315-N.jpg","img/neutralC/CFD-LM-216-082-N.jpg","1","1","1","0","1","0","0.52150019997498","0.457787799998186","0.576852800033521","1","1","1","1","1","1","1","1","1"
"250057","img/neutralC/CFD-LM-216-082-N.jpg","img/neutralC/CFD-AF-240-206-N.jpg","img/neutralC/CFD-WM-012-001-N.jpg","1","1","1","0","0","1","0.576852800033521","0.52150019997498","0.473683799966238","1","1","1","1","1","1","1","1","1"
"250057","img/neutralC/CFD-WM-012-001-N.jpg","img/neutralC/CFD-LM-216-082-N.jpg","img/neutralC/CFD-IM-646-023-N.jpg","1","1","1","1","0","1","0.473683799966238","0.576852800033521","0.484750599949621","1","1","1","1","1","1","1","1","1"
"250057","img/neutralC/CFD-IM-646-023-N.jpg","img/neutralC/CFD-WM-012-001-N.jpg","img/neutralC/CFD-WM-215-041-N.jpg","1","1","1","1","1","0","0.484750599949621","0.473683799966238","0.416059300012421","1","1","1","1","1","1","1","1","1"
"250057","img/neutralC/CFD-WM-215-041-N.jpg","img/neutralC/CFD-IM-646-023-N.jpg",NA,"1","1",NA,"0","1",NA,"0.416059300012421","0.484750599949621",NA,"1","1",NA,"1","1",NA,"1","1",NA
"250057","img/neutralC/CFD-IM-706-002-N.jpg",NA,"img/neutralC/CFD-BM-217-082-N.jpg","1",NA,"0","0",NA,"0","0.999101100023836",NA,"0.491467499989085","1",NA,"1","1",NA,"1","1",NA,"1"
"250057","img/neutralC/CFD-BM-217-082-N.jpg","img/neutralC/CFD-IM-706-002-N.jpg","img/neutralC/CFD-WM-209-038-N.jpg","0","1","1","0","0","0","0.491467499989085","0.999101100023836","0.560579799988773","1","1","1","1","1","1","1","1","1"
"250057","img/neutralC/CFD-WM-209-038-N.jpg","img/neutralC/CFD-BM-217-082-N.jpg","img/neutralC/CFD-MF-303-013-N.jpg","1","0","1","0","0","0","0.560579799988773","0.491467499989085","0.493539199989755","1","1","1","1","1","1","1","1","1"
"250057","img/neutralC/CFD-MF-303-013-N.jpg","img/neutralC/CFD-WM-209-038-N.jpg","img/neutralC/CFD-WM-015-002-N.jpg","1","1","1","0","0","0","0.493539199989755","0.560579799988773","0.461170399968978","1","1","1","1","1","1","1","1","1"
"250057","img/neutralC/CFD-WM-015-002-N.jpg","img/neutralC/CFD-MF-303-013-N.jpg","img/neutralC/CFD-IF-626-375-N.jpg","1","1","1","0","0","0","0.461170399968978","0.493539199989755","0.547816500009503","1","1","1","1","1","1","1","1","1"
"250057","img/neutralC/CFD-IF-626-375-N.jpg","img/neutralC/CFD-WM-015-002-N.jpg","img/neutralC/CFD-IM-680-369-N.jpg","1","1","1","0","0","1","0.547816500009503","0.461170399968978","0.452491000003647","1","1","1","1","1","1","1","1","1"
"250057","img/neutralC/CFD-IM-680-369-N.jpg","img/neutralC/CFD-IF-626-375-N.jpg","img/neutralC/CFD-MF-357-002-N.jpg","1","1","1","1","0","0","0.452491000003647","0.547816500009503","0.519443300028797","1","1","1","1","1","1","1","1","1"
"250057","img/neutralC/CFD-MF-357-002-N.jpg","img/neutralC/CFD-IM-680-369-N.jpg","img/neutralC/CFD-IF-660-464-N.jpg","1","1","1","0","1","0","0.519443300028797","0.452491000003647","0.490245399996638","1","1","1","1","1","1","1","1","1"
"250057","img/neutralC/CFD-IF-660-464-N.jpg","img/neutralC/CFD-MF-357-002-N.jpg","img/neutralC/CFD-WM-218-074-N.jpg","1","1","1","0","0","1","0.490245399996638","0.519443300028797","0.418519300001208","1","1","1","1","1","1","1","1","1"
"250057","img/neutralC/CFD-WM-218-074-N.jpg","img/neutralC/CFD-IF-660-464-N.jpg","img/neutralC/CFD-IM-664-651-N.jpg","1","1","1","1","0","1","0.418519300001208","0.490245399996638","0.516114700003527","1","1","1","1","1","1","1","1","1"
"250057","img/neutralC/CFD-IM-664-651-N.jpg","img/neutralC/CFD-WM-218-074-N.jpg","img/neutralC/CFD-AF-253-130-N.jpg","1","1","1","1","1","1","0.516114700003527","0.418519300001208","0.511696100002155","1","1","1","1","1","1","1","1","1"
"250057","img/neutralC/CFD-AF-253-130-N.jpg","img/neutralC/CFD-IM-664-651-N.jpg","img/neutralC/CFD-BF-237-172-N.jpg","1","1","1","1","1","1","0.511696100002155","0.516114700003527","0.546837900008541","1","1","1","1","1","1","1","1","1"
"250057","img/neutralC/CFD-BF-237-172-N.jpg","img/neutralC/CFD-AF-253-130-N.jpg","img/neutralC/CFD-WF-007-001-N.jpg","1","1","1","1","1","1","0.546837900008541","0.511696100002155","0.484767299960367","1","1","1","1","1","1","1","1","1"
"250057","img/neutralC/CFD-WF-007-001-N.jpg","img/neutralC/CFD-BF-237-172-N.jpg","img/neutralC/CFD-WF-222-092-N.jpg","1","1","1","1","1","1","0.484767299960367","0.546837900008541","0.502974400005769","1","1","1","1","1","1","1","1","1"
"250057","img/neutralC/CFD-WF-222-092-N.jpg","img/neutralC/CFD-WF-007-001-N.jpg","img/neutralC/CFD-MF-316-001-N.jpg","1","1","1","1","1","0","0.502974400005769","0.484767299960367","0.366761499957647","1","1","1","1","1","1","1","1","1"
"250057","img/neutralC/CFD-MF-316-001-N.jpg","img/neutralC/CFD-WF-222-092-N.jpg","img/neutralC/CFD-MF-343-001-N.jpg","1","1","1","0","1","1","0.366761499957647","0.502974400005769","0.490925699996296","1","1","1","1","1","1","1","1","1"
"250057","img/neutralC/CFD-MF-343-001-N.jpg","img/neutralC/CFD-MF-316-001-N.jpg","img/neutralC/CFD-AM-220-134-N.jpg","1","1","1","1","0","0","0.490925699996296","0.366761499957647","0.666065099998377","1","1","1","1","1","1","1","1","1"
"250057","img/neutralC/CFD-AM-220-134-N.jpg","img/neutralC/CFD-MF-343-001-N.jpg","img/neutralC/CFD-BM-250-170-N.jpg","1","1","1","0","1","1","0.666065099998377","0.490925699996296","0.417383199965116","1","1","1","1","1","1","1","1","1"
"250057","img/neutralC/CFD-BM-250-170-N.jpg","img/neutralC/CFD-AM-220-134-N.jpg","img/neutralC/CFD-BM-001-014-N.jpg","1","1","1","1","0","0","0.417383199965116","0.666065099998377","0.560406500007957","1","1","1","1","1","1","1","1","1"
"250057","img/neutralC/CFD-BM-001-014-N.jpg","img/neutralC/CFD-BM-250-170-N.jpg","img/neutralC/CFD-AF-233-190-N.jpg","1","1","1","0","1","0","0.560406500007957","0.417383199965116","0.608468700025696","1","1","1","1","1","1","1","1","1"
"250057","img/neutralC/CFD-AF-233-190-N.jpg","img/neutralC/CFD-BM-001-014-N.jpg","img/neutralC/CFD-LF-255-088-N.jpg","1","1","1","0","0","0","0.608468700025696","0.560406500007957","0.664376800006721","1","1","1","1","1","1","1","1","1"
"250057","img/neutralC/CFD-LF-255-088-N.jpg","img/neutralC/CFD-AF-233-190-N.jpg","img/neutralC/CFD-BF-014-002-N.jpg","1","1","1","0","0","1","0.664376800006721","0.608468700025696","0.687136499967892","1","1","1","1","1","1","1","1","1"
"250057","img/neutralC/CFD-BF-014-002-N.jpg","img/neutralC/CFD-LF-255-088-N.jpg","img/neutralC/CFD-WF-244-163-N.jpg","1","1","1","1","0","1","0.687136499967892","0.664376800006721","0.552711000025738","1","1","1","1","1","1","1","1","1"
"250057","img/neutralC/CFD-WF-244-163-N.jpg","img/neutralC/CFD-BF-014-002-N.jpg","img/neutralC/CFD-MM-324-069-N.jpg","1","1","1","1","1","1","0.552711000025738","0.687136499967892","0.495157500030473","1","1","1","1","1","1","1","1","1"
"250057","img/neutralC/CFD-MM-324-069-N.jpg","img/neutralC/CFD-WF-244-163-N.jpg","img/neutralC/CFD-LF-206-078-N.jpg","1","1","1","1","1","1","0.495157500030473","0.552711000025738","0.521562000038102","1","1","1","1","1","1","1","1","1"
"250057","img/neutralC/CFD-LF-206-078-N.jpg","img/neutralC/CFD-MM-324-069-N.jpg","img/neutralC/CFD-IM-702-101-N.jpg","1","1","1","1","1","1","0.521562000038102","0.495157500030473","0.516187400033232","1","1","1","1","1","1","1","1","1"
"250057","img/neutralC/CFD-IM-702-101-N.jpg","img/neutralC/CFD-LF-206-078-N.jpg","img/neutralC/CFD-MF-305-014-N.jpg","1","1","1","1","1","1","0.516187400033232","0.521562000038102","0.363198700011708","1","1","1","1","1","1","1","1","1"
"250057","img/neutralC/CFD-MF-305-014-N.jpg","img/neutralC/CFD-IM-702-101-N.jpg","img/neutralC/CFD-IM-667-369-N.jpg","1","1","1","1","1","0","0.363198700011708","0.516187400033232","0.665722500008997","1","1","1","1","1","1","1","1","1"
"250057","img/neutralC/CFD-IM-667-369-N.jpg","img/neutralC/CFD-MF-305-014-N.jpg","img/neutralC/CFD-LM-200-045-N.jpg","1","1","1","0","1","1","0.665722500008997","0.363198700011708","0.468698299955577","1","1","1","1","1","1","1","1","1"
"250057","img/neutralC/CFD-LM-200-045-N.jpg","img/neutralC/CFD-IM-667-369-N.jpg","img/neutralC/CFD-LM-225-130-N.jpg","1","1","1","1","0","0","0.468698299955577","0.665722500008997","0.487249500001781","1","1","1","1","1","1","1","1","1"
"250057","img/neutralC/CFD-LM-225-130-N.jpg","img/neutralC/CFD-LM-200-045-N.jpg","img/neutralC/CFD-WF-030-002-N.jpg","1","1","1","0","1","0","0.487249500001781","0.468698299955577","0.465703999972902","1","1","1","1","1","1","1","1","1"
"250057","img/neutralC/CFD-WF-030-002-N.jpg","img/neutralC/CFD-LM-225-130-N.jpg",NA,"1","1",NA,"0","0",NA,"0.465703999972902","0.487249500001781",NA,"1","1",NA,"1","1",NA,"1","1",NA
"250057","img/neutralC/CFD-BF-238-190-N.jpg",NA,"img/neutralC/CFD-AF-206-079-N.jpg","1",NA,"1","1",NA,"1","0.641030700004194",NA,"0.457354699959978","1",NA,"1","1",NA,"1","1",NA,"1"
"250057","img/neutralC/CFD-AF-206-079-N.jpg","img/neutralC/CFD-BF-238-190-N.jpg","img/neutralC/CFD-WM-242-011-N.jpg","1","1","1","1","1","0","0.457354699959978","0.641030700004194","0.693704900040757","1","1","1","1","1","1","1","1","1"
"250057","img/neutralC/CFD-WM-242-011-N.jpg","img/neutralC/CFD-AF-206-079-N.jpg","img/neutralC/CFD-BM-018-001-N.jpg","1","1","1","0","1","1","0.693704900040757","0.457354699959978","0.523362700012513","1","1","1","1","1","1","1","1","1"
"250057","img/neutralC/CFD-BM-018-001-N.jpg","img/neutralC/CFD-WM-242-011-N.jpg","img/neutralC/CFD-BF-033-028-N.jpg","1","1","1","1","0","0","0.523362700012513","0.693704900040757","0.511853000032715","1","1","1","1","1","1","1","1","1"
"250057","img/neutralC/CFD-BF-033-028-N.jpg","img/neutralC/CFD-BM-018-001-N.jpg","img/neutralC/CFD-IM-686-097-N.jpg","1","1","1","0","1","0","0.511853000032715","0.523362700012513","0.622652099991683","1","1","1","1","1","1","1","1","1"
"250057","img/neutralC/CFD-IM-686-097-N.jpg","img/neutralC/CFD-BF-033-028-N.jpg","img/neutralC/CFD-WF-209-052-N.jpg","1","1","1","0","0","1","0.622652099991683","0.511853000032715","0.56142829998862","1","1","1","1","1","1","1","1","1"
"250057","img/neutralC/CFD-WF-209-052-N.jpg","img/neutralC/CFD-IM-686-097-N.jpg","img/neutralC/CFD-IM-727-195-N.jpg","1","1","1","1","0","1","0.56142829998862","0.622652099991683","0.502677499956917","1","1","1","1","1","1","1","1","1"
"250057","img/neutralC/CFD-IM-727-195-N.jpg","img/neutralC/CFD-WF-209-052-N.jpg","img/neutralC/CFD-IM-657-308-N.jpg","1","1","1","1","1","0","0.502677499956917","0.56142829998862","0.479709500039462","1","1","1","1","1","1","1","1","1"
"250057","img/neutralC/CFD-IM-657-308-N.jpg","img/neutralC/CFD-IM-727-195-N.jpg","img/neutralC/CFD-BM-005-003-N.jpg","1","1","1","0","1","1","0.479709500039462","0.502677499956917","0.45777870004531","1","1","1","1","1","1","1","1","1"
"250057","img/neutralC/CFD-BM-005-003-N.jpg","img/neutralC/CFD-IM-657-308-N.jpg","img/neutralC/CFD-IM-638-250-1-N.jpg","1","1","1","1","0","1","0.45777870004531","0.479709500039462","0.450140199973248","1","1","1","1","1","1","1","1","1"
"250057","img/neutralC/CFD-IM-638-250-1-N.jpg","img/neutralC/CFD-BM-005-003-N.jpg","img/neutralC/CFD-BM-231-155-N.jpg","1","1","1","1","1","1","0.450140199973248","0.45777870004531","0.563048199983314","1","1","1","1","1","1","1","1","1"
"250057","img/neutralC/CFD-BM-231-155-N.jpg","img/neutralC/CFD-IM-638-250-1-N.jpg","img/neutralC/CFD-IM-617-174-N.jpg","1","1","1","1","1","0","0.563048199983314","0.450140199973248","0.606293899996672","1","1","1","1","1","1","1","1","1"
"250057","img/neutralC/CFD-IM-617-174-N.jpg","img/neutralC/CFD-BM-231-155-N.jpg","img/neutralC/CFD-LF-245-166-N.jpg","1","1","1","0","1","1","0.606293899996672","0.563048199983314","0.513925999985076","1","1","1","1","1","1","1","1","1"
"250057","img/neutralC/CFD-LF-245-166-N.jpg","img/neutralC/CFD-IM-617-174-N.jpg","img/neutralC/CFD-LM-226-175-N.jpg","1","1","1","1","0","0","0.513925999985076","0.606293899996672","0.631750100001227","1","1","1","1","1","1","1","1","1"
"250057","img/neutralC/CFD-LM-226-175-N.jpg","img/neutralC/CFD-LF-245-166-N.jpg","img/neutralC/CFD-WM-227-099-N.jpg","1","1","1","0","1","1","0.631750100001227","0.513925999985076","0.406168600020465","1","1","1","1","1","1","1","1","1"
"250057","img/neutralC/CFD-WM-227-099-N.jpg","img/neutralC/CFD-LM-226-175-N.jpg","img/neutralC/CFD-LM-219-295-N.jpg","1","1","1","1","0","1","0.406168600020465","0.631750100001227","0.425295199966058","1","1","1","1","1","1","1","1","1"
"250057","img/neutralC/CFD-LM-219-295-N.jpg","img/neutralC/CFD-WM-227-099-N.jpg","img/neutralC/CFD-BM-026-002-N.jpg","1","1","1","1","1","0","0.425295199966058","0.406168600020465","0.365418800036423","1","1","1","1","1","1","1","1","1"
"250057","img/neutralC/CFD-BM-026-002-N.jpg","img/neutralC/CFD-LM-219-295-N.jpg","img/neutralC/CFD-BF-010-001-N.jpg","1","1","1","0","1","1","0.365418800036423","0.425295199966058","0.529468799999449","1","1","1","1","1","1","1","1","1"
"250057","img/neutralC/CFD-BF-010-001-N.jpg","img/neutralC/CFD-BM-026-002-N.jpg","img/neutralC/CFD-IF-620-218-N.jpg","1","1","1","1","0","0","0.529468799999449","0.365418800036423","0.539814099960495","1","1","1","1","1","1","1","1","1"
"250057","img/neutralC/CFD-IF-620-218-N.jpg","img/neutralC/CFD-BF-010-001-N.jpg","img/neutralC/CFD-LM-233-171-N.jpg","1","1","1","0","1","0","0.539814099960495","0.529468799999449","0.574512699968182","1","1","1","1","1","1","1","1","1"
"250057","img/neutralC/CFD-LM-233-171-N.jpg","img/neutralC/CFD-IF-620-218-N.jpg","img/neutralC/CFD-WM-258-125-N.jpg","1","1","1","0","0","0","0.574512699968182","0.539814099960495","0.541679100017063","1","1","1","1","1","1","1","1","1"
"250057","img/neutralC/CFD-WM-258-125-N.jpg","img/neutralC/CFD-LM-233-171-N.jpg","img/neutralC/CFD-AF-241-141-N.jpg","1","1","1","0","0","1","0.541679100017063","0.574512699968182","0.533033800020348","1","1","1","1","1","1","1","1","1"
"250057","img/neutralC/CFD-AF-241-141-N.jpg","img/neutralC/CFD-WM-258-125-N.jpg","img/neutralC/CFD-BM-212-117-N.jpg","1","1","1","1","0","0","0.533033800020348","0.541679100017063","0.569297900015954","1","1","1","1","1","1","1","1","1"
"250057","img/neutralC/CFD-BM-212-117-N.jpg","img/neutralC/CFD-AF-241-141-N.jpg","img/neutralC/CFD-IM-653-008-N.jpg","1","1","1","0","1","0","0.569297900015954","0.533033800020348","0.628009100037161","1","1","1","1","1","1","1","1","1"
"250057","img/neutralC/CFD-IM-653-008-N.jpg","img/neutralC/CFD-BM-212-117-N.jpg","img/neutralC/CFD-AF-202-122-N.jpg","1","1","1","0","0","1","0.628009100037161","0.569297900015954","0.49476189998677","1","1","1","1","1","1","1","1","1"
"250057","img/neutralC/CFD-AF-202-122-N.jpg","img/neutralC/CFD-IM-653-008-N.jpg","img/neutralC/CFD-LF-242-121-N.jpg","1","1","1","1","0","0","0.49476189998677","0.628009100037161","0.57664649997605","1","1","1","1","1","1","1","1","1"
"250057","img/neutralC/CFD-LF-242-121-N.jpg","img/neutralC/CFD-AF-202-122-N.jpg","img/neutralC/CFD-IF-665-015-N.jpg","1","1","1","0","1","0","0.57664649997605","0.49476189998677","0.503702100017108","1","1","1","1","1","1","1","1","1"
"250057","img/neutralC/CFD-IF-665-015-N.jpg","img/neutralC/CFD-LF-242-121-N.jpg","img/neutralC/CFD-LF-247-051-N.jpg","1","1","1","0","0","1","0.503702100017108","0.57664649997605","0.546377899998333","1","1","1","1","1","1","1","1","1"
"250057","img/neutralC/CFD-LF-247-051-N.jpg","img/neutralC/CFD-IF-665-015-N.jpg","img/neutralC/CFD-LF-250-169-N.jpg","1","1","1","1","0","1","0.546377899998333","0.503702100017108","0.504993400012609","1","1","1","1","1","1","1","1","1"
"250057","img/neutralC/CFD-LF-250-169-N.jpg","img/neutralC/CFD-LF-247-051-N.jpg","img/neutralC/CFD-WM-017-002-N.jpg","1","1","1","1","1","0","0.504993400012609","0.546377899998333","0.521964300016407","1","1","1","1","1","1","1","1","1"
"250057","img/neutralC/CFD-WM-017-002-N.jpg","img/neutralC/CFD-LF-250-169-N.jpg","img/neutralC/CFD-MF-313-002-N.jpg","1","1","1","0","1","0","0.521964300016407","0.504993400012609","0.456953999993857","1","1","1","1","1","1","1","1","1"
"250057","img/neutralC/CFD-MF-313-002-N.jpg","img/neutralC/CFD-WM-017-002-N.jpg",NA,"1","1",NA,"0","0",NA,"0.456953999993857","0.521964300016407",NA,"1","1",NA,"1","1",NA,"1","1",NA
"250057","img/neutralC/CFD-IM-606-008-N.jpg",NA,"img/neutralC/CFD-BM-020-001-N.jpg","1",NA,"1","0",NA,"0","0.558061800024007",NA,"0.443680199969094","1",NA,"1","1",NA,"1","1",NA,"1"
"250057","img/neutralC/CFD-BM-020-001-N.jpg","img/neutralC/CFD-IM-606-008-N.jpg","img/neutralC/CFD-AF-237-223-N.jpg","1","1","0","0","0","0","0.443680199969094","0.558061800024007","0.360033100005239","1","1","1","1","1","1","1","1","2"
"250057","img/neutralC/CFD-AF-237-223-N.jpg","img/neutralC/CFD-BM-020-001-N.jpg","img/neutralC/CFD-BM-043-071-N.jpg","0","1","1","0","0","0","0.360033100005239","0.443680199969094","0.579672899970319","1","1","1","1","1","1","2","1","1"
"250057","img/neutralC/CFD-BM-043-071-N.jpg","img/neutralC/CFD-AF-237-223-N.jpg","img/neutralC/CFD-LF-222-147-N.jpg","1","0","1","0","0","0","0.579672899970319","0.360033100005239","0.614060599997174","1","1","1","1","1","1","1","2","1"
"250057","img/neutralC/CFD-LF-222-147-N.jpg","img/neutralC/CFD-BM-043-071-N.jpg","img/neutralC/CFD-BM-227-191-N.jpg","1","1","1","0","0","1","0.614060599997174","0.579672899970319","0.419103100022767","1","1","1","1","1","1","1","1","1"
"250057","img/neutralC/CFD-BM-227-191-N.jpg","img/neutralC/CFD-LF-222-147-N.jpg","img/neutralC/CFD-IM-615-167-N.jpg","1","1","1","1","0","0","0.419103100022767","0.614060599997174","0.475027500011493","1","1","1","1","1","1","1","1","1"
"250057","img/neutralC/CFD-IM-615-167-N.jpg","img/neutralC/CFD-BM-227-191-N.jpg","img/neutralC/CFD-WM-023-001-N.jpg","1","1","1","0","1","0","0.475027500011493","0.419103100022767","0.510794300003909","1","1","1","1","1","1","1","1","1"
"250057","img/neutralC/CFD-WM-023-001-N.jpg","img/neutralC/CFD-IM-615-167-N.jpg","img/neutralC/CFD-WM-025-002-N.jpg","1","1","1","0","0","0","0.510794300003909","0.475027500011493","0.474772099987604","1","1","1","1","1","1","1","1","1"
"250057","img/neutralC/CFD-WM-025-002-N.jpg","img/neutralC/CFD-WM-023-001-N.jpg","img/neutralC/CFD-BM-030-003-N.jpg","1","1","1","0","0","0","0.474772099987604","0.510794300003909","0.520725800015498","1","1","1","1","1","1","1","1","1"
"250057","img/neutralC/CFD-BM-030-003-N.jpg","img/neutralC/CFD-WM-025-002-N.jpg","img/neutralC/CFD-BF-012-001-N.jpg","1","1","1","0","0","0","0.520725800015498","0.474772099987604","0.456041500030551","1","1","1","1","1","1","1","1","1"
"250057","img/neutralC/CFD-BF-012-001-N.jpg","img/neutralC/CFD-BM-030-003-N.jpg","img/neutralC/CFD-LF-212-066-N.jpg","1","1","1","0","0","1","0.456041500030551","0.520725800015498","0.405940999975428","1","1","1","1","1","1","1","1","1"
"250057","img/neutralC/CFD-LF-212-066-N.jpg","img/neutralC/CFD-BF-012-001-N.jpg","img/neutralC/CFD-BM-009-002-N.jpg","1","1","1","1","0","1","0.405940999975428","0.456041500030551","0.446693799982313","1","1","1","1","1","1","1","1","1"
"250057","img/neutralC/CFD-BM-009-002-N.jpg","img/neutralC/CFD-LF-212-066-N.jpg","img/neutralC/CFD-WF-241-210-N.jpg","1","1","1","1","1","0","0.446693799982313","0.405940999975428","0.592042400036007","1","1","1","1","1","1","1","1","1"
"250057","img/neutralC/CFD-WF-241-210-N.jpg","img/neutralC/CFD-BM-009-002-N.jpg","img/neutralC/CFD-WM-028-003-N.jpg","1","1","1","0","1","1","0.592042400036007","0.446693799982313","0.489039099949878","1","1","1","1","1","1","1","1","1"
"250057","img/neutralC/CFD-WM-028-003-N.jpg","img/neutralC/CFD-WF-241-210-N.jpg","img/neutralC/CFD-WF-207-014-N.jpg","1","1","1","1","0","1","0.489039099949878","0.592042400036007","0.488209799979813","1","1","1","1","1","1","1","1","1"
"250057","img/neutralC/CFD-WF-207-014-N.jpg","img/neutralC/CFD-WM-028-003-N.jpg","img/neutralC/CFD-IM-689-263-N.jpg","1","1","1","1","1","1","0.488209799979813","0.489039099949878","0.484768099966459","1","1","1","1","1","1","1","1","1"
"250057","img/neutralC/CFD-IM-689-263-N.jpg","img/neutralC/CFD-WF-207-014-N.jpg","img/neutralC/CFD-AM-205-153-N.jpg","1","1","1","1","1","1","0.484768099966459","0.488209799979813","0.467044099990744","1","1","1","1","1","1","1","1","1"
"250057","img/neutralC/CFD-AM-205-153-N.jpg","img/neutralC/CFD-IM-689-263-N.jpg","img/neutralC/CFD-WF-221-005-N.jpg","1","1","1","1","1","0","0.467044099990744","0.484768099966459","0.502991000015754","1","1","1","1","1","1","1","1","1"
"250057","img/neutralC/CFD-WF-221-005-N.jpg","img/neutralC/CFD-AM-205-153-N.jpg","img/neutralC/CFD-IM-697-015-N.jpg","1","1","1","0","1","1","0.502991000015754","0.467044099990744","0.516976599988993","1","1","1","1","1","1","1","1","1"
"250057","img/neutralC/CFD-IM-697-015-N.jpg","img/neutralC/CFD-WF-221-005-N.jpg","img/neutralC/CFD-MM-306-010-N.jpg","1","1","1","1","0","0","0.516976599988993","0.502991000015754","0.452149400021881","1","1","1","1","1","1","1","1","1"
"250057","img/neutralC/CFD-MM-306-010-N.jpg","img/neutralC/CFD-IM-697-015-N.jpg","img/neutralC/CFD-BF-244-231-N.jpg","1","1","1","0","1","1","0.452149400021881","0.516976599988993","0.48657180002192","1","1","1","1","1","1","1","1","1"
"250057","img/neutralC/CFD-BF-244-231-N.jpg","img/neutralC/CFD-MM-306-010-N.jpg","img/neutralC/CFD-AM-249-163-N.jpg","1","1","1","1","0","1","0.48657180002192","0.452149400021881","0.507326300023124","1","1","1","1","1","1","1","1","1"
"250057","img/neutralC/CFD-AM-249-163-N.jpg","img/neutralC/CFD-BF-244-231-N.jpg","img/neutralC/CFD-LF-238-154-N.jpg","1","1","1","1","1","1","0.507326300023124","0.48657180002192","0.586006700003054","1","1","1","1","1","1","1","1","1"
"250057","img/neutralC/CFD-LF-238-154-N.jpg","img/neutralC/CFD-AM-249-163-N.jpg","img/neutralC/CFD-AM-243-212-N.jpg","1","1","1","1","1","1","0.586006700003054","0.507326300023124","0.542961600003764","1","1","1","1","1","1","1","1","1"
"250057","img/neutralC/CFD-AM-243-212-N.jpg","img/neutralC/CFD-LF-238-154-N.jpg","img/neutralC/CFD-WF-009-001-N.jpg","1","1","1","1","1","1","0.542961600003764","0.586006700003054","0.460019699996337","1","1","1","1","1","1","1","1","1"
"250057","img/neutralC/CFD-WF-009-001-N.jpg","img/neutralC/CFD-AM-243-212-N.jpg","img/neutralC/CFD-WF-243-148-N.jpg","1","1","1","1","1","0","0.460019699996337","0.542961600003764","0.568332800001372","1","1","1","1","1","1","1","1","1"
"250057","img/neutralC/CFD-WF-243-148-N.jpg","img/neutralC/CFD-WF-009-001-N.jpg","img/neutralC/CFD-MF-328-020-N.jpg","1","1","1","0","1","0","0.568332800001372","0.460019699996337","0.681838600023184","1","1","1","1","1","1","1","1","1"
"250057","img/neutralC/CFD-MF-328-020-N.jpg","img/neutralC/CFD-WF-243-148-N.jpg","img/neutralC/CFD-BM-021-021-N.jpg","1","1","1","0","0","1","0.681838600023184","0.568332800001372","0.424260300002061","1","1","1","1","1","1","1","1","1"
"250057","img/neutralC/CFD-BM-021-021-N.jpg","img/neutralC/CFD-MF-328-020-N.jpg","img/neutralC/CFD-LM-240-013-N.jpg","1","1","1","1","0","1","0.424260300002061","0.681838600023184","0.493164600047748","1","1","1","1","1","1","1","1","1"
"250057","img/neutralC/CFD-LM-240-013-N.jpg","img/neutralC/CFD-BM-021-021-N.jpg","img/neutralC/CFD-IF-676-017-N.jpg","1","1","1","1","1","1","0.493164600047748","0.424260300002061","0.518129800038878","1","1","1","1","1","1","1","1","1"
"250057","img/neutralC/CFD-IF-676-017-N.jpg","img/neutralC/CFD-LM-240-013-N.jpg","img/neutralC/CFD-AM-219-101-N.jpg","1","1","1","1","1","0","0.518129800038878","0.493164600047748","0.457944599969778","1","1","1","1","1","1","1","1","1"
"250057","img/neutralC/CFD-AM-219-101-N.jpg","img/neutralC/CFD-IF-676-017-N.jpg",NA,"1","1",NA,"0","1",NA,"0.457944599969778","0.518129800038878",NA,"1","1",NA,"1","1",NA,"1","1",NA
"250057","img/neutralC/CFD-BM-207-024-N.jpg",NA,"img/neutralC/CFD-IF-729-393-N.jpg","1",NA,"1","1",NA,"0","0.485892299970146",NA,"0.475910999986809","1",NA,"1","1",NA,"1","1",NA,"1"
"250057","img/neutralC/CFD-IF-729-393-N.jpg","img/neutralC/CFD-BM-207-024-N.jpg","img/neutralC/CFD-IM-726-248-N.jpg","1","1","1","0","1","0","0.475910999986809","0.485892299970146","0.453484199999366","1","1","1","1","1","1","1","1","1"
"250057","img/neutralC/CFD-IM-726-248-N.jpg","img/neutralC/CFD-IF-729-393-N.jpg","img/neutralC/CFD-IF-677-452-1-N.jpg","1","1","1","0","0","1","0.453484199999366","0.475910999986809","0.335893700015731","1","1","1","1","1","1","1","1","1"
"250057","img/neutralC/CFD-IF-677-452-1-N.jpg","img/neutralC/CFD-IM-726-248-N.jpg","img/neutralC/CFD-IM-696-001-N.jpg","1","1","1","1","0","0","0.335893700015731","0.453484199999366","0.457703899999615","1","1","1","1","1","1","1","1","1"
"250057","img/neutralC/CFD-IM-696-001-N.jpg","img/neutralC/CFD-IF-677-452-1-N.jpg","img/neutralC/CFD-IM-707-105-N.jpg","1","1","1","0","1","1","0.457703899999615","0.335893700015731","0.722181799996179","1","1","1","1","1","1","1","1","1"
"250057","img/neutralC/CFD-IM-707-105-N.jpg","img/neutralC/CFD-IM-696-001-N.jpg","img/neutralC/CFD-BF-036-027-N.jpg","1","1","0","1","0","0","0.722181799996179","0.457703899999615","0.330051800003275","1","1","1","1","1","1","1","1","2"
"250057","img/neutralC/CFD-BF-036-027-N.jpg","img/neutralC/CFD-IM-707-105-N.jpg","img/neutralC/CFD-BF-236-177-N.jpg","0","1","1","0","1","0","0.330051800003275","0.722181799996179","0.639032599981874","1","1","1","1","1","1","2","1","1"
"250057","img/neutralC/CFD-BF-236-177-N.jpg","img/neutralC/CFD-BF-036-027-N.jpg","img/neutralC/CFD-WM-248-036-N.jpg","1","0","1","0","0","1","0.639032599981874","0.330051800003275","0.462346000014804","1","1","1","1","1","1","1","2","1"
"250057","img/neutralC/CFD-WM-248-036-N.jpg","img/neutralC/CFD-BF-236-177-N.jpg","img/neutralC/CFD-BM-238-242-N.jpg","1","1","1","1","0","0","0.462346000014804","0.639032599981874","0.464834199985489","1","1","1","1","1","1","1","1","1"
"250057","img/neutralC/CFD-BM-238-242-N.jpg","img/neutralC/CFD-WM-248-036-N.jpg","img/neutralC/CFD-AM-230-150-N.jpg","1","1","1","0","1","0","0.464834199985489","0.462346000014804","0.547365400008857","1","1","1","1","1","1","1","1","1"
"250057","img/neutralC/CFD-AM-230-150-N.jpg","img/neutralC/CFD-BM-238-242-N.jpg","img/neutralC/CFD-MF-301-024-N.jpg","1","1","1","0","0","0","0.547365400008857","0.464834199985489","0.605713900004048","1","1","1","1","1","1","1","1","1"
"250057","img/neutralC/CFD-MF-301-024-N.jpg","img/neutralC/CFD-AM-230-150-N.jpg","img/neutralC/CFD-BF-027-002-N.jpg","1","1","1","0","0","1","0.605713900004048","0.547365400008857","0.461878400004935","1","1","1","1","1","1","1","1","1"
"250057","img/neutralC/CFD-BF-027-002-N.jpg","img/neutralC/CFD-MF-301-024-N.jpg","img/neutralC/CFD-LF-204-133-N.jpg","1","1","1","1","0","1","0.461878400004935","0.605713900004048","0.392764699994586","1","1","1","1","1","1","1","1","1"
"250057","img/neutralC/CFD-LF-204-133-N.jpg","img/neutralC/CFD-BF-027-002-N.jpg","img/neutralC/CFD-WF-233-112-N.jpg","1","1","1","1","1","1","0.392764699994586","0.461878400004935","0.501256800023839","1","1","1","1","1","1","1","1","1"
"250057","img/neutralC/CFD-WF-233-112-N.jpg","img/neutralC/CFD-LF-204-133-N.jpg","img/neutralC/CFD-IM-721-341-N.jpg","1","1","1","1","1","1","0.501256800023839","0.392764699994586","0.413547100033611","1","1","1","1","1","1","1","1","1"
"250057","img/neutralC/CFD-IM-721-341-N.jpg","img/neutralC/CFD-WF-233-112-N.jpg","img/neutralC/CFD-BF-006-017-N.jpg","1","1","0","1","1","0","0.413547100033611","0.501256800023839","0.421319100016262","1","1","1","1","1","1","1","1","2"
"250057","img/neutralC/CFD-BF-006-017-N.jpg","img/neutralC/CFD-IM-721-341-N.jpg","img/neutralC/CFD-BM-241-235-N.jpg","0","1","1","0","1","0","0.421319100016262","0.413547100033611","0.566702799987979","1","1","1","1","1","1","2","1","1"
"250057","img/neutralC/CFD-BM-241-235-N.jpg","img/neutralC/CFD-BF-006-017-N.jpg","img/neutralC/CFD-IF-742-103-N.jpg","1","0","1","0","0","1","0.566702799987979","0.421319100016262","0.484303699980956","1","1","1","1","1","1","1","2","1"
"250057","img/neutralC/CFD-IF-742-103-N.jpg","img/neutralC/CFD-BM-241-235-N.jpg","img/neutralC/CFD-BF-044-034-N.jpg","1","1","1","1","0","0","0.484303699980956","0.566702799987979","0.492028600012418","1","1","1","1","1","1","1","1","1"
"250057","img/neutralC/CFD-BF-044-034-N.jpg","img/neutralC/CFD-IF-742-103-N.jpg","img/neutralC/CFD-WF-029-002-N.jpg","1","1","1","0","1","0","0.492028600012418","0.484303699980956","0.555296700040344","1","1","1","1","1","1","1","1","1"
"250057","img/neutralC/CFD-WF-029-002-N.jpg","img/neutralC/CFD-BF-044-034-N.jpg","img/neutralC/CFD-BF-214-308-N.jpg","1","1","1","0","0","1","0.555296700040344","0.492028600012418","0.477895500021987","1","1","1","1","1","1","1","1","1"
"250057","img/neutralC/CFD-BF-214-308-N.jpg","img/neutralC/CFD-WF-029-002-N.jpg","img/neutralC/CFD-BF-247-179-N.jpg","1","1","1","1","0","0","0.477895500021987","0.555296700040344","0.59932929999195","1","1","1","1","1","1","1","1","1"
"250057","img/neutralC/CFD-BF-247-179-N.jpg","img/neutralC/CFD-BF-214-308-N.jpg","img/neutralC/CFD-WM-014-002-N.jpg","1","1","1","0","1","0","0.59932929999195","0.477895500021987","0.459597199980635","1","1","1","1","1","1","1","1","1"
"250057","img/neutralC/CFD-WM-014-002-N.jpg","img/neutralC/CFD-BF-247-179-N.jpg","img/neutralC/CFD-WF-234-086-N.jpg","1","1","1","0","0","1","0.459597199980635","0.59932929999195","0.551231799996458","1","1","1","1","1","1","1","1","1"
"250057","img/neutralC/CFD-WF-234-086-N.jpg","img/neutralC/CFD-WM-014-002-N.jpg","img/neutralC/CFD-WM-034-030-N.jpg","1","1","1","1","0","1","0.551231799996458","0.459597199980635","0.410466799978167","1","1","1","1","1","1","1","1","1"
"250057","img/neutralC/CFD-WM-034-030-N.jpg","img/neutralC/CFD-WF-234-086-N.jpg","img/neutralC/CFD-BF-011-002-N.jpg","1","1","1","1","1","1","0.410466799978167","0.551231799996458","0.518401300010737","1","1","1","1","1","1","1","1","1"
"250057","img/neutralC/CFD-BF-011-002-N.jpg","img/neutralC/CFD-WM-034-030-N.jpg","img/neutralC/CFD-WF-208-068-N.jpg","1","1","1","1","1","1","0.518401300010737","0.410466799978167","0.660244300030172","1","1","1","1","1","1","1","1","1"
"250057","img/neutralC/CFD-WF-208-068-N.jpg","img/neutralC/CFD-BF-011-002-N.jpg","img/neutralC/CFD-BF-207-004-N.jpg","1","1","1","1","1","1","0.660244300030172","0.518401300010737","0.414287500025239","1","1","1","1","1","1","1","1","1"
"250057","img/neutralC/CFD-BF-207-004-N.jpg","img/neutralC/CFD-WF-208-068-N.jpg","img/neutralC/CFD-BF-002-001-N.jpg","1","1","1","1","1","0","0.414287500025239","0.660244300030172","0.418479599989951","1","1","1","1","1","1","1","1","1"
"250057","img/neutralC/CFD-BF-002-001-N.jpg","img/neutralC/CFD-BF-207-004-N.jpg","img/neutralC/CFD-LM-213-061-N.jpg","1","1","1","0","1","0","0.418479599989951","0.414287500025239","0.486333500011824","1","1","1","1","1","1","1","1","1"
"250057","img/neutralC/CFD-LM-213-061-N.jpg","img/neutralC/CFD-BF-002-001-N.jpg","img/neutralC/CFD-BM-036-003-N.jpg","1","1","1","0","0","1","0.486333500011824","0.418479599989951","0.507387999969069","1","1","1","1","1","1","1","1","1"
"250057","img/neutralC/CFD-BM-036-003-N.jpg","img/neutralC/CFD-LM-213-061-N.jpg",NA,"1","1",NA,"1","0",NA,"0.507387999969069","0.486333500011824",NA,"1","1",NA,"1","1",NA,"1","1",NA
"250057","img/neutralC/CFD-BM-015-015-N.jpg",NA,"img/neutralC/CFD-LF-216-121-N.jpg","1",NA,"1","0",NA,"1","0.590215099975467",NA,"0.42332709999755","1",NA,"1","1",NA,"1","1",NA,"1"
"250057","img/neutralC/CFD-LF-216-121-N.jpg","img/neutralC/CFD-BM-015-015-N.jpg","img/neutralC/CFD-IF-718-001-N.jpg","1","1","1","1","0","1","0.42332709999755","0.590215099975467","0.419282799994107","1","1","1","1","1","1","1","1","1"
"250057","img/neutralC/CFD-IF-718-001-N.jpg","img/neutralC/CFD-LF-216-121-N.jpg","img/neutralC/CFD-IM-639-263-N.jpg","1","1","1","1","1","1","0.419282799994107","0.42332709999755","0.39677589997882","1","1","1","1","1","1","1","1","1"
"250057","img/neutralC/CFD-IM-639-263-N.jpg","img/neutralC/CFD-IF-718-001-N.jpg","img/neutralC/CFD-BF-208-266-N.jpg","1","1","1","1","1","0","0.39677589997882","0.419282799994107","0.489428700006101","1","1","1","1","1","1","1","1","1"
"250057","img/neutralC/CFD-BF-208-266-N.jpg","img/neutralC/CFD-IM-639-263-N.jpg","img/neutralC/CFD-WM-038-003-N.jpg","1","1","1","0","1","0","0.489428700006101","0.39677589997882","0.643844999955036","1","1","1","1","1","1","1","1","1"
"250057","img/neutralC/CFD-WM-038-003-N.jpg","img/neutralC/CFD-BF-208-266-N.jpg","img/neutralC/CFD-BM-029-024-N.jpg","1","1","1","0","0","1","0.643844999955036","0.489428700006101","0.478015000000596","1","1","1","1","1","1","1","1","1"
"250057","img/neutralC/CFD-BM-029-024-N.jpg","img/neutralC/CFD-WM-038-003-N.jpg","img/neutralC/CFD-BF-201-080-N.jpg","1","1","1","1","0","1","0.478015000000596","0.643844999955036","0.828969600028358","1","1","1","1","1","1","1","1","1"
"250057","img/neutralC/CFD-BF-201-080-N.jpg","img/neutralC/CFD-BM-029-024-N.jpg","img/neutralC/CFD-BM-211-174-N.jpg","1","1","1","1","1","0","0.828969600028358","0.478015000000596","0.709186299995054","1","1","1","1","1","1","1","1","1"
"250057","img/neutralC/CFD-BM-211-174-N.jpg","img/neutralC/CFD-BF-201-080-N.jpg","img/neutralC/CFD-IM-728-041-N.jpg","1","1","1","0","1","0","0.709186299995054","0.828969600028358","0.613023000012618","1","1","1","1","1","1","1","1","1"
"250057","img/neutralC/CFD-IM-728-041-N.jpg","img/neutralC/CFD-BM-211-174-N.jpg","img/neutralC/CFD-BF-023-010-N.jpg","1","1","1","0","0","1","0.613023000012618","0.709186299995054","0.54869399999734","1","1","1","1","1","1","1","1","1"
"250057","img/neutralC/CFD-BF-023-010-N.jpg","img/neutralC/CFD-IM-728-041-N.jpg","img/neutralC/CFD-AM-215-120-N.jpg","1","1","1","1","0","1","0.54869399999734","0.613023000012618","0.528158900036942","1","1","1","1","1","1","1","1","1"
"250057","img/neutralC/CFD-AM-215-120-N.jpg","img/neutralC/CFD-BF-023-010-N.jpg","img/neutralC/CFD-BM-027-001-N.jpg","1","1","1","1","1","0","0.528158900036942","0.54869399999734","0.496722400013823","1","1","1","1","1","1","1","1","1"
"250057","img/neutralC/CFD-BM-027-001-N.jpg","img/neutralC/CFD-AM-215-120-N.jpg","img/neutralC/CFD-WF-002-004-N.jpg","1","1","1","0","1","0","0.496722400013823","0.528158900036942","0.599193000001833","1","1","1","1","1","1","1","1","1"
"250057","img/neutralC/CFD-WF-002-004-N.jpg","img/neutralC/CFD-BM-027-001-N.jpg","img/neutralC/CFD-WM-225-127-N.jpg","1","1","1","0","0","0","0.599193000001833","0.496722400013823","0.736800899961963","1","1","1","1","1","1","1","1","1"
"250057","img/neutralC/CFD-WM-225-127-N.jpg","img/neutralC/CFD-WF-002-004-N.jpg","img/neutralC/CFD-MM-319-052-N.jpg","1","1","1","0","0","1","0.736800899961963","0.599193000001833","0.575876399991103","1","1","1","1","1","1","1","1","1"
"250057","img/neutralC/CFD-MM-319-052-N.jpg","img/neutralC/CFD-WM-225-127-N.jpg","img/neutralC/CFD-WF-022-017-N.jpg","1","1","1","1","0","0","0.575876399991103","0.736800899961963","0.75867670000298","1","1","1","1","1","1","1","1","1"
"250057","img/neutralC/CFD-WF-022-017-N.jpg","img/neutralC/CFD-MM-319-052-N.jpg","img/neutralC/CFD-WF-026-002-N.jpg","1","1","1","0","1","1","0.75867670000298","0.575876399991103","0.666075399960391","1","1","1","1","1","1","1","1","1"
"250057","img/neutralC/CFD-WF-026-002-N.jpg","img/neutralC/CFD-WF-022-017-N.jpg","img/neutralC/CFD-WM-257-161-N.jpg","1","1","1","1","0","1","0.666075399960391","0.75867670000298","0.520604999968782","1","1","1","1","1","1","1","1","1"
"250057","img/neutralC/CFD-WM-257-161-N.jpg","img/neutralC/CFD-WF-026-002-N.jpg","img/neutralC/CFD-BF-028-001-N.jpg","1","1","1","1","1","1","0.520604999968782","0.666075399960391","0.516303599986713","1","1","1","1","1","1","1","1","1"
"250057","img/neutralC/CFD-BF-028-001-N.jpg","img/neutralC/CFD-WM-257-161-N.jpg","img/neutralC/CFD-IF-672-305-N.jpg","1","1","1","1","1","0","0.516303599986713","0.520604999968782","0.636909699998796","1","1","1","1","1","1","1","1","1"
"250057","img/neutralC/CFD-IF-672-305-N.jpg","img/neutralC/CFD-BF-028-001-N.jpg","img/neutralC/CFD-BF-255-140-N.jpg","1","1","1","0","1","1","0.636909699998796","0.516303599986713","0.616851399943698","1","1","1","1","1","1","1","1","1"
"250057","img/neutralC/CFD-BF-255-140-N.jpg","img/neutralC/CFD-IF-672-305-N.jpg","img/neutralC/CFD-WM-040-022-N.jpg","1","1","1","1","0","0","0.616851399943698","0.636909699998796","0.581325699982699","1","1","1","1","1","1","1","1","1"
"250057","img/neutralC/CFD-WM-040-022-N.jpg","img/neutralC/CFD-BF-255-140-N.jpg","img/neutralC/CFD-LF-236-221-N.jpg","1","1","1","0","1","1","0.581325699982699","0.616851399943698","0.501837899966631","1","1","1","1","1","1","1","1","1"
"250057","img/neutralC/CFD-LF-236-221-N.jpg","img/neutralC/CFD-WM-040-022-N.jpg","img/neutralC/CFD-IM-674-281-N.jpg","1","1","1","1","0","1","0.501837899966631","0.581325699982699","0.548774400027469","1","1","1","1","1","1","1","1","1"
"250057","img/neutralC/CFD-IM-674-281-N.jpg","img/neutralC/CFD-LF-236-221-N.jpg","img/neutralC/CFD-BF-003-003-N.jpg","1","1","1","1","1","0","0.548774400027469","0.501837899966631","0.780329400033224","1","1","1","1","1","1","1","1","1"
"250057","img/neutralC/CFD-BF-003-003-N.jpg","img/neutralC/CFD-IM-674-281-N.jpg","img/neutralC/CFD-LM-252-076-N.jpg","1","1","1","0","1","1","0.780329400033224","0.548774400027469","0.574826100026257","1","1","1","1","1","1","1","1","1"
"250057","img/neutralC/CFD-LM-252-076-N.jpg","img/neutralC/CFD-BF-003-003-N.jpg","img/neutralC/CFD-AM-217-085-N.jpg","1","1","1","1","0","0","0.574826100026257","0.780329400033224","0.572385400009807","1","1","1","1","1","1","1","1","1"
"250057","img/neutralC/CFD-AM-217-085-N.jpg","img/neutralC/CFD-LM-252-076-N.jpg","img/neutralC/CFD-BM-247-240-N.jpg","1","1","1","0","1","0","0.572385400009807","0.574826100026257","0.522072899970226","1","1","1","1","1","1","1","1","1"
"250057","img/neutralC/CFD-BM-247-240-N.jpg","img/neutralC/CFD-AM-217-085-N.jpg","img/neutralC/CFD-WM-002-009-N.jpg","1","1","1","0","0","0","0.522072899970226","0.572385400009807","0.494738499983214","1","1","1","1","1","1","1","1","1"
"250057","img/neutralC/CFD-WM-002-009-N.jpg","img/neutralC/CFD-BM-247-240-N.jpg","img/neutralC/CFD-BF-204-189-N.jpg","1","1","1","0","0","1","0.494738499983214","0.522072899970226","0.550469400011934","1","1","1","1","1","1","1","1","1"
"250057","img/neutralC/CFD-BF-204-189-N.jpg","img/neutralC/CFD-WM-002-009-N.jpg","img/neutralC/CFD-AM-235-241-N.jpg","1","1","1","1","0","0","0.550469400011934","0.494738499983214","0.508831200015265","1","1","1","1","1","1","1","1","1"
"250057","img/neutralC/CFD-AM-235-241-N.jpg","img/neutralC/CFD-BF-204-189-N.jpg",NA,"1","1",NA,"0","1",NA,"0.508831200015265","0.550469400011934",NA,"1","1",NA,"1","1",NA,"1","1",NA
"250057","img/neutralC/CFD-LF-225-164-N.jpg",NA,"img/neutralC/CFD-WF-006-002-N.jpg","1",NA,"1","1",NA,"0","0.730468099995051",NA,"0.528139400004875","1",NA,"1","1",NA,"1","1",NA,"1"
"250057","img/neutralC/CFD-WF-006-002-N.jpg","img/neutralC/CFD-LF-225-164-N.jpg","img/neutralC/CFD-LM-247-095-N.jpg","1","1","1","0","1","0","0.528139400004875","0.730468099995051","0.609436800004914","1","1","1","1","1","1","1","1","1"
"250057","img/neutralC/CFD-LM-247-095-N.jpg","img/neutralC/CFD-WF-006-002-N.jpg","img/neutralC/CFD-LF-241-188-N.jpg","1","1","1","0","0","0","0.609436800004914","0.528139400004875","0.500858600018546","1","1","1","1","1","1","1","1","1"
"250057","img/neutralC/CFD-LF-241-188-N.jpg","img/neutralC/CFD-LM-247-095-N.jpg","img/neutralC/CFD-AF-239-171-N.jpg","1","1","1","0","0","1","0.500858600018546","0.609436800004914","0.404584200005047","1","1","1","1","1","1","1","1","1"
"250057","img/neutralC/CFD-AF-239-171-N.jpg","img/neutralC/CFD-LF-241-188-N.jpg","img/neutralC/CFD-AM-221-184-N.jpg","1","1","1","1","0","1","0.404584200005047","0.500858600018546","0.497334500018042","1","1","1","1","1","1","1","1","1"
"250057","img/neutralC/CFD-AM-221-184-N.jpg","img/neutralC/CFD-AF-239-171-N.jpg","img/neutralC/CFD-IF-744-114-N.jpg","1","1","1","1","1","0","0.497334500018042","0.404584200005047","0.539916600042488","1","1","1","1","1","1","1","1","1"
"250057","img/neutralC/CFD-IF-744-114-N.jpg","img/neutralC/CFD-AM-221-184-N.jpg","img/neutralC/CFD-WF-033-002-N.jpg","1","1","1","0","1","1","0.539916600042488","0.497334500018042","0.565738899982534","1","1","1","1","1","1","1","1","1"
"250057","img/neutralC/CFD-WF-033-002-N.jpg","img/neutralC/CFD-IF-744-114-N.jpg","img/neutralC/CFD-AF-227-207-N.jpg","1","1","1","1","0","1","0.565738899982534","0.539916600042488","0.596203199995216","1","1","1","1","1","1","1","1","1"
"250057","img/neutralC/CFD-AF-227-207-N.jpg","img/neutralC/CFD-WF-033-002-N.jpg","img/neutralC/CFD-IF-673-389-N.jpg","1","1","1","1","1","0","0.596203199995216","0.565738899982534","0.635190100001637","1","1","1","1","1","1","1","1","1"
"250057","img/neutralC/CFD-IF-673-389-N.jpg","img/neutralC/CFD-AF-227-207-N.jpg","img/neutralC/CFD-AF-210-050-N.jpg","1","1","1","0","1","1","0.635190100001637","0.596203199995216","0.519263599999249","1","1","1","1","1","1","1","1","1"
"250057","img/neutralC/CFD-AF-210-050-N.jpg","img/neutralC/CFD-IF-673-389-N.jpg","img/neutralC/CFD-WF-223-133-N.jpg","1","1","1","1","0","0","0.519263599999249","0.635190100001637","0.871983699966222","1","1","1","1","1","1","1","1","1"
"250057","img/neutralC/CFD-WF-223-133-N.jpg","img/neutralC/CFD-AF-210-050-N.jpg","img/neutralC/CFD-IM-659-359-N.jpg","1","1","1","0","1","0","0.871983699966222","0.519263599999249","0.662409599986859","1","1","1","1","1","1","1","1","1"
"250057","img/neutralC/CFD-IM-659-359-N.jpg","img/neutralC/CFD-WF-223-133-N.jpg","img/neutralC/CFD-BF-045-003-N.jpg","1","1","1","0","0","0","0.662409599986859","0.871983699966222","0.627848300035112","1","1","1","1","1","1","1","1","1"
"250057","img/neutralC/CFD-BF-045-003-N.jpg","img/neutralC/CFD-IM-659-359-N.jpg","img/neutralC/CFD-BF-004-014-N.jpg","1","1","1","0","0","1","0.627848300035112","0.662409599986859","0.577216100005899","1","1","1","1","1","1","1","1","1"
"250057","img/neutralC/CFD-BF-004-014-N.jpg","img/neutralC/CFD-BF-045-003-N.jpg","img/neutralC/CFD-WM-254-152-N.jpg","1","1","1","1","0","1","0.577216100005899","0.627848300035112","0.610628700000234","1","1","1","1","1","1","1","1","1"
"250057","img/neutralC/CFD-WM-254-152-N.jpg","img/neutralC/CFD-BF-004-014-N.jpg","img/neutralC/CFD-MF-312-002-N.jpg","1","1","1","1","1","1","0.610628700000234","0.577216100005899","0.603396599995904","1","1","1","1","1","1","1","1","1"
"250057","img/neutralC/CFD-MF-312-002-N.jpg","img/neutralC/CFD-WM-254-152-N.jpg","img/neutralC/CFD-LF-208-127-N.jpg","1","1","1","1","1","0","0.603396599995904","0.610628700000234","0.702951000013854","1","1","1","1","1","1","1","1","1"
"250057","img/neutralC/CFD-LF-208-127-N.jpg","img/neutralC/CFD-MF-312-002-N.jpg","img/neutralC/CFD-WM-228-065-N.jpg","1","1","1","0","1","0","0.702951000013854","0.603396599995904","0.835177699977066","1","1","1","1","1","1","1","1","1"
"250057","img/neutralC/CFD-WM-228-065-N.jpg","img/neutralC/CFD-LF-208-127-N.jpg","img/neutralC/CFD-BM-028-002-N.jpg","1","1","1","0","0","1","0.835177699977066","0.702951000013854","0.720516100001987","1","1","1","1","1","1","1","1","1"
"250057","img/neutralC/CFD-BM-028-002-N.jpg","img/neutralC/CFD-WM-228-065-N.jpg","img/neutralC/CFD-IM-701-312-N.jpg","1","1","1","1","0","0","0.720516100001987","0.835177699977066","0.578150999965146","1","1","1","1","1","1","1","1","1"
"250057","img/neutralC/CFD-IM-701-312-N.jpg","img/neutralC/CFD-BM-028-002-N.jpg","img/neutralC/CFD-LF-210-220-N.jpg","1","1","1","0","1","1","0.578150999965146","0.720516100001987","0.834343100024853","1","1","1","1","1","1","1","1","1"
"250057","img/neutralC/CFD-LF-210-220-N.jpg","img/neutralC/CFD-IM-701-312-N.jpg","img/neutralC/CFD-BF-222-240-N.jpg","1","1","1","1","0","0","0.834343100024853","0.578150999965146","0.607399000029545","1","1","1","1","1","1","1","1","1"
"250057","img/neutralC/CFD-BF-222-240-N.jpg","img/neutralC/CFD-LF-210-220-N.jpg","img/neutralC/CFD-IM-738-191-N.jpg","1","1","1","0","1","0","0.607399000029545","0.834343100024853","0.686108900001273","1","1","1","1","1","1","1","1","1"
"250057","img/neutralC/CFD-IM-738-191-N.jpg","img/neutralC/CFD-BF-222-240-N.jpg","img/neutralC/CFD-WM-202-107-N.jpg","1","1","1","0","0","1","0.686108900001273","0.607399000029545","0.542110799986403","1","1","1","1","1","1","1","1","1"
"250057","img/neutralC/CFD-WM-202-107-N.jpg","img/neutralC/CFD-IM-738-191-N.jpg","img/neutralC/CFD-IF-625-225-N.jpg","1","1","1","1","0","0","0.542110799986403","0.686108900001273","0.571476900018752","1","1","1","1","1","1","1","1","1"
"250057","img/neutralC/CFD-IF-625-225-N.jpg","img/neutralC/CFD-WM-202-107-N.jpg","img/neutralC/CFD-BM-213-134-N.jpg","1","1","1","0","1","1","0.571476900018752","0.542110799986403","0.614903500012588","1","1","1","1","1","1","1","1","1"
"250057","img/neutralC/CFD-BM-213-134-N.jpg","img/neutralC/CFD-IF-625-225-N.jpg","img/neutralC/CFD-LM-238-129-N.jpg","1","1","1","1","0","1","0.614903500012588","0.571476900018752","0.907274900004268","1","1","1","1","1","1","1","1","1"
"250057","img/neutralC/CFD-LM-238-129-N.jpg","img/neutralC/CFD-BM-213-134-N.jpg","img/neutralC/CFD-BM-003-003-N.jpg","1","1","1","1","1","0","0.907274900004268","0.614903500012588","0.674026499968022","1","1","1","1","1","1","1","1","1"
"250057","img/neutralC/CFD-BM-003-003-N.jpg","img/neutralC/CFD-LM-238-129-N.jpg","img/neutralC/CFD-MF-336-016-N.jpg","1","1","1","0","1","1","0.674026499968022","0.907274900004268","0.793345500016585","1","1","1","1","1","1","1","1","1"
"250057","img/neutralC/CFD-MF-336-016-N.jpg","img/neutralC/CFD-BM-003-003-N.jpg","img/neutralC/CFD-BM-013-002-N.jpg","1","1","1","1","0","1","0.793345500016585","0.674026499968022","0.543845999985933","1","1","1","1","1","1","1","1","1"
"250057","img/neutralC/CFD-BM-013-002-N.jpg","img/neutralC/CFD-MF-336-016-N.jpg","img/neutralC/CFD-BM-010-003-N.jpg","1","1","1","1","1","0","0.543845999985933","0.793345500016585","0.843268299999181","1","1","1","1","1","1","1","1","1"
"250057","img/neutralC/CFD-BM-010-003-N.jpg","img/neutralC/CFD-BM-013-002-N.jpg",NA,"1","1",NA,"0","1",NA,"0.843268299999181","0.543845999985933",NA,"1","1",NA,"1","1",NA,"1","1",NA
"250057","img/neutralC/CFD-LF-211-003-N.jpg",NA,"img/neutralC/CFD-MF-318-022-N.jpg","1",NA,"1","0",NA,"1","1.00003410002682",NA,"0.499138900020625","1",NA,"1","1",NA,"1","1",NA,"1"
"250057","img/neutralC/CFD-MF-318-022-N.jpg","img/neutralC/CFD-LF-211-003-N.jpg","img/neutralC/CFD-MF-342-022-N.jpg","1","1","1","1","0","1","0.499138900020625","1.00003410002682","0.404837599955499","1","1","1","1","1","1","1","1","1"
"250057","img/neutralC/CFD-MF-342-022-N.jpg","img/neutralC/CFD-MF-318-022-N.jpg","img/neutralC/CFD-WM-255-219-N.jpg","1","1","1","1","1","0","0.404837599955499","0.499138900020625","0.513491599995177","1","1","1","1","1","1","1","1","1"
"250057","img/neutralC/CFD-WM-255-219-N.jpg","img/neutralC/CFD-MF-342-022-N.jpg","img/neutralC/CFD-WF-023-003-N.jpg","1","1","1","0","1","1","0.513491599995177","0.404837599955499","0.40149250003742","1","1","1","1","1","1","1","1","1"
"250057","img/neutralC/CFD-WF-023-003-N.jpg","img/neutralC/CFD-WM-255-219-N.jpg","img/neutralC/CFD-AF-232-078-N.jpg","1","1","1","1","0","1","0.40149250003742","0.513491599995177","0.501839500037022","1","1","1","1","1","1","1","1","1"
"250057","img/neutralC/CFD-AF-232-078-N.jpg","img/neutralC/CFD-WF-023-003-N.jpg","img/neutralC/CFD-AF-221-147-N.jpg","1","1","1","1","1","0","0.501839500037022","0.40149250003742","0.553270199976396","1","1","1","1","1","1","1","1","1"
"250057","img/neutralC/CFD-AF-221-147-N.jpg","img/neutralC/CFD-AF-232-078-N.jpg","img/neutralC/CFD-BM-200-046-N.jpg","1","1","1","0","1","0","0.553270199976396","0.501839500037022","0.515865799970925","1","1","1","1","1","1","1","1","1"
"250057","img/neutralC/CFD-BM-200-046-N.jpg","img/neutralC/CFD-AF-221-147-N.jpg","img/neutralC/CFD-IF-629-234-N.jpg","1","1","1","0","0","0","0.515865799970925","0.553270199976396","0.516828899970278","1","1","1","1","1","1","1","1","1"
"250057","img/neutralC/CFD-IF-629-234-N.jpg","img/neutralC/CFD-BM-200-046-N.jpg","img/neutralC/CFD-WM-009-002-N.jpg","1","1","1","0","0","0","0.516828899970278","0.515865799970925","0.620386100024916","1","1","1","1","1","1","1","1","1"
"250057","img/neutralC/CFD-WM-009-002-N.jpg","img/neutralC/CFD-IF-629-234-N.jpg","img/neutralC/CFD-BM-023-029-N.jpg","1","1","1","0","0","1","0.620386100024916","0.516828899970278","0.441594599978998","1","1","1","1","1","1","1","1","1"
"250057","img/neutralC/CFD-BM-023-029-N.jpg","img/neutralC/CFD-WM-009-002-N.jpg","img/neutralC/CFD-WF-245-084-N.jpg","1","1","1","1","0","1","0.441594599978998","0.620386100024916","0.578534899977967","1","1","1","1","1","1","1","1","1"
"250057","img/neutralC/CFD-WF-245-084-N.jpg","img/neutralC/CFD-BM-023-029-N.jpg","img/neutralC/CFD-AM-244-222-N.jpg","1","1","1","1","1","0","0.578534899977967","0.441594599978998","0.526391300023533","1","1","1","1","1","1","1","1","1"
"250057","img/neutralC/CFD-AM-244-222-N.jpg","img/neutralC/CFD-WF-245-084-N.jpg","img/neutralC/CFD-WF-027-003-N.jpg","1","1","1","0","1","1","0.526391300023533","0.578534899977967","0.500532999983989","1","1","1","1","1","1","1","1","1"
"250057","img/neutralC/CFD-WF-027-003-N.jpg","img/neutralC/CFD-AM-244-222-N.jpg","img/neutralC/CFD-LF-215-157-N.jpg","1","1","1","1","0","0","0.500532999983989","0.526391300023533","0.507242999970913","1","1","1","1","1","1","1","1","1"
"250057","img/neutralC/CFD-LF-215-157-N.jpg","img/neutralC/CFD-WF-027-003-N.jpg","img/neutralC/CFD-BM-204-003-N.jpg","1","1","1","0","1","0","0.507242999970913","0.500532999983989","0.584311900020111","1","1","1","1","1","1","1","1","1"
"250057","img/neutralC/CFD-BM-204-003-N.jpg","img/neutralC/CFD-LF-215-157-N.jpg","img/neutralC/CFD-WM-237-052-N.jpg","1","1","1","0","0","1","0.584311900020111","0.507242999970913","0.592275200004224","1","1","1","1","1","1","1","1","1"
"250057","img/neutralC/CFD-WM-237-052-N.jpg","img/neutralC/CFD-BM-204-003-N.jpg","img/neutralC/CFD-LM-253-075-N.jpg","1","1","1","1","0","0","0.592275200004224","0.584311900020111","0.567818699986674","1","1","1","1","1","1","1","1","1"
"250057","img/neutralC/CFD-LM-253-075-N.jpg","img/neutralC/CFD-WM-237-052-N.jpg","img/neutralC/CFD-WM-013-001-N.jpg","1","1","1","0","1","1","0.567818699986674","0.592275200004224","0.513607100001536","1","1","1","1","1","1","1","1","1"
"250057","img/neutralC/CFD-WM-013-001-N.jpg","img/neutralC/CFD-LM-253-075-N.jpg","img/neutralC/CFD-WM-201-063-N.jpg","1","1","1","1","0","1","0.513607100001536","0.567818699986674","0.487760899995919","1","1","1","1","1","1","1","1","1"
"250057","img/neutralC/CFD-WM-201-063-N.jpg","img/neutralC/CFD-WM-013-001-N.jpg","img/neutralC/CFD-BF-218-207-N.jpg","1","1","1","1","1","1","0.487760899995919","0.513607100001536","0.636868099973071","1","1","1","1","1","1","1","1","1"
"250057","img/neutralC/CFD-BF-218-207-N.jpg","img/neutralC/CFD-WM-201-063-N.jpg","img/neutralC/CFD-BF-254-201-N.jpg","1","1","1","1","1","0","0.636868099973071","0.487760899995919","0.51563849998638","1","1","1","1","1","1","1","1","1"
"250057","img/neutralC/CFD-BF-254-201-N.jpg","img/neutralC/CFD-BF-218-207-N.jpg","img/neutralC/CFD-WF-226-095-N.jpg","1","1","1","0","1","1","0.51563849998638","0.636868099973071","0.452315700007603","1","1","1","1","1","1","1","1","1"
"250057","img/neutralC/CFD-WF-226-095-N.jpg","img/neutralC/CFD-BF-254-201-N.jpg","img/neutralC/CFD-WF-018-017-N.jpg","1","1","1","1","0","1","0.452315700007603","0.51563849998638","0.595373499963898","1","1","1","1","1","1","1","1","1"
"250057","img/neutralC/CFD-WF-018-017-N.jpg","img/neutralC/CFD-WF-226-095-N.jpg","img/neutralC/CFD-IM-700-009-N.jpg","1","1","1","1","1","1","0.595373499963898","0.452315700007603","0.540397799981292","1","1","1","1","1","1","1","1","1"
"250057","img/neutralC/CFD-IM-700-009-N.jpg","img/neutralC/CFD-WF-018-017-N.jpg","img/neutralC/CFD-IM-627-178-N.jpg","1","1","1","1","1","1","0.540397799981292","0.595373499963898","0.436494700028561","1","1","1","1","1","1","1","1","1"
"250057","img/neutralC/CFD-IM-627-178-N.jpg","img/neutralC/CFD-IM-700-009-N.jpg","img/neutralC/CFD-WM-221-091-N.jpg","1","1","1","1","1","0","0.436494700028561","0.540397799981292","0.446451099996921","1","1","1","1","1","1","1","1","1"
"250057","img/neutralC/CFD-WM-221-091-N.jpg","img/neutralC/CFD-IM-627-178-N.jpg","img/neutralC/CFD-MM-321-021-N.jpg","1","1","1","0","1","0","0.446451099996921","0.436494700028561","0.42850300000282","1","1","1","1","1","1","1","1","1"
"250057","img/neutralC/CFD-MM-321-021-N.jpg","img/neutralC/CFD-WM-221-091-N.jpg","img/neutralC/CFD-IM-719-221-N.jpg","1","1","1","0","0","0","0.42850300000282","0.446451099996921","0.508232199994382","1","1","1","1","1","1","1","1","1"
"250057","img/neutralC/CFD-IM-719-221-N.jpg","img/neutralC/CFD-MM-321-021-N.jpg","img/neutralC/CFD-WF-238-023-N.jpg","1","1","1","0","0","0","0.508232199994382","0.42850300000282","0.492878399963956","1","1","1","1","1","1","1","1","1"
"250057","img/neutralC/CFD-WF-238-023-N.jpg","img/neutralC/CFD-IM-719-221-N.jpg","img/neutralC/CFD-MF-321-003-N.jpg","1","1","1","0","0","0","0.492878399963956","0.508232199994382","0.530281399958767","1","1","1","1","1","1","1","1","1"
"250057","img/neutralC/CFD-MF-321-003-N.jpg","img/neutralC/CFD-WF-238-023-N.jpg","img/neutralC/CFD-BF-018-039-N.jpg","1","1","1","0","0","1","0.530281399958767","0.492878399963956","0.521726300008595","1","1","1","1","1","1","1","1","1"
"250057","img/neutralC/CFD-BF-018-039-N.jpg","img/neutralC/CFD-MF-321-003-N.jpg",NA,"1","1",NA,"1","0",NA,"0.521726300008595","0.530281399958767",NA,"1","1",NA,"1","1",NA,"1","1",NA
"250057","img/neutralC/CFD-IM-635-010-N.jpg",NA,"img/neutralC/CFD-BF-042-026-N.jpg","1",NA,"1","1",NA,"1","0.43736700003501",NA,"0.483545399969444","1",NA,"1","1",NA,"1","1",NA,"1"
"250057","img/neutralC/CFD-BF-042-026-N.jpg","img/neutralC/CFD-IM-635-010-N.jpg","img/neutralC/CFD-MF-307-002-N.jpg","1","1","1","1","1","1","0.483545399969444","0.43736700003501","0.514059900015127","1","1","1","1","1","1","1","1","1"
"250057","img/neutralC/CFD-MF-307-002-N.jpg","img/neutralC/CFD-BF-042-026-N.jpg","img/neutralC/CFD-AM-245-111-N.jpg","1","1","1","1","1","1","0.514059900015127","0.483545399969444","0.467892599990591","1","1","1","1","1","1","1","1","1"
"250057","img/neutralC/CFD-AM-245-111-N.jpg","img/neutralC/CFD-MF-307-002-N.jpg","img/neutralC/CFD-BF-020-002-N.jpg","1","1","1","1","1","1","0.467892599990591","0.514059900015127","0.48513109999476","1","1","1","1","1","1","1","1","1"
"250057","img/neutralC/CFD-BF-020-002-N.jpg","img/neutralC/CFD-AM-245-111-N.jpg","img/neutralC/CFD-WM-018-002-N.jpg","1","1","1","1","1","0","0.48513109999476","0.467892599990591","0.395074100000784","1","1","1","1","1","1","1","1","1"
"250057","img/neutralC/CFD-WM-018-002-N.jpg","img/neutralC/CFD-BF-020-002-N.jpg","img/neutralC/CFD-MF-302-027-N.jpg","1","1","1","0","1","0","0.395074100000784","0.48513109999476","0.414795900054742","1","1","1","1","1","1","1","1","1"
"250057","img/neutralC/CFD-MF-302-027-N.jpg","img/neutralC/CFD-WM-018-002-N.jpg","img/neutralC/CFD-AF-244-168-N.jpg","1","1","1","0","0","0","0.414795900054742","0.395074100000784","0.464136999973562","1","1","1","1","1","1","1","1","1"
"250057","img/neutralC/CFD-AF-244-168-N.jpg","img/neutralC/CFD-MF-302-027-N.jpg","img/neutralC/CFD-IF-636-011-N.jpg","1","1","1","0","0","1","0.464136999973562","0.414795900054742","0.334907500015106","1","1","1","1","1","1","1","1","1"
"250057","img/neutralC/CFD-IF-636-011-N.jpg","img/neutralC/CFD-AF-244-168-N.jpg","img/neutralC/CFD-LM-204-001-N.jpg","1","1","1","1","0","0","0.334907500015106","0.464136999973562","0.565908799995668","1","1","1","1","1","1","1","1","1"
"250057","img/neutralC/CFD-LM-204-001-N.jpg","img/neutralC/CFD-IF-636-011-N.jpg","img/neutralC/CFD-BM-004-002-N.jpg","1","1","1","0","1","0","0.565908799995668","0.334907500015106","0.41942290001316","1","1","1","1","1","1","1","1","1"
"250057","img/neutralC/CFD-BM-004-002-N.jpg","img/neutralC/CFD-LM-204-001-N.jpg","img/neutralC/CFD-IM-632-097-N.jpg","1","1","1","0","0","0","0.41942290001316","0.565908799995668","0.60524110001279","1","1","1","1","1","1","1","1","1"
"250057","img/neutralC/CFD-IM-632-097-N.jpg","img/neutralC/CFD-BM-004-002-N.jpg","img/neutralC/CFD-LM-241-125-N.jpg","1","1","1","0","0","1","0.60524110001279","0.41942290001316","0.523892999975942","1","1","1","1","1","1","1","1","1"
"250057","img/neutralC/CFD-LM-241-125-N.jpg","img/neutralC/CFD-IM-632-097-N.jpg","img/neutralC/CFD-AF-234-208-N.jpg","1","1","1","1","0","1","0.523892999975942","0.60524110001279","0.534295899968129","1","1","1","1","1","1","1","1","1"
"250057","img/neutralC/CFD-AF-234-208-N.jpg","img/neutralC/CFD-LM-241-125-N.jpg","img/neutralC/CFD-BF-235-168-N.jpg","1","1","1","1","1","1","0.534295899968129","0.523892999975942","0.510055400023703","1","1","1","1","1","1","1","1","1"
"250057","img/neutralC/CFD-BF-235-168-N.jpg","img/neutralC/CFD-AF-234-208-N.jpg","img/neutralC/CFD-BM-215-155-N.jpg","1","1","1","1","1","0","0.510055400023703","0.534295899968129","0.539561600016896","1","1","1","1","1","1","1","1","1"
"250057","img/neutralC/CFD-BM-215-155-N.jpg","img/neutralC/CFD-BF-235-168-N.jpg","img/neutralC/CFD-IM-669-111-N.jpg","1","1","1","0","1","1","0.539561600016896","0.510055400023703","0.468765700003132","1","1","1","1","1","1","1","1","1"
"250057","img/neutralC/CFD-IM-669-111-N.jpg","img/neutralC/CFD-BM-215-155-N.jpg","img/neutralC/CFD-AF-250-200-N.jpg","1","1","1","1","0","1","0.468765700003132","0.539561600016896","0.492527400027029","1","1","1","1","1","1","1","1","1"
"250057","img/neutralC/CFD-AF-250-200-N.jpg","img/neutralC/CFD-IM-669-111-N.jpg","img/neutralC/CFD-AM-233-236-N.jpg","1","1","0","1","1","1","0.492527400027029","0.468765700003132",NA,"1","1","0","1","1","0","1","1","0"
"250057","img/neutralC/CFD-AM-233-236-N.jpg","img/neutralC/CFD-AF-250-200-N.jpg","img/neutralC/CFD-BF-040-003-N.jpg","0","1","1","1","1","1",NA,"0.492527400027029","0.577263000013772","0","1","1","0","1","1","0","1","1"
"250057","img/neutralC/CFD-BF-040-003-N.jpg","img/neutralC/CFD-AM-233-236-N.jpg","img/neutralC/CFD-BF-217-189-N.jpg","1","0","1","1","1","0","0.577263000013772",NA,"0.668451800011098","1","0","1","1","0","1","1","0","1"
"250057","img/neutralC/CFD-BF-217-189-N.jpg","img/neutralC/CFD-BF-040-003-N.jpg","img/neutralC/CFD-AM-225-102-N.jpg","1","1","1","0","1","0","0.668451800011098","0.577263000013772","0.663022900000215","1","1","1","1","1","1","1","1","1"
"250057","img/neutralC/CFD-AM-225-102-N.jpg","img/neutralC/CFD-BF-217-189-N.jpg","img/neutralC/CFD-WM-253-119-N.jpg","1","1","1","0","0","1","0.663022900000215","0.668451800011098","0.536483200034127","1","1","1","1","1","1","1","1","1"
"250057","img/neutralC/CFD-WM-253-119-N.jpg","img/neutralC/CFD-AM-225-102-N.jpg","img/neutralC/CFD-WF-235-121-N.jpg","1","1","1","1","0","0","0.536483200034127","0.663022900000215","0.558369099977426","1","1","1","1","1","1","1","1","1"
"250057","img/neutralC/CFD-WF-235-121-N.jpg","img/neutralC/CFD-WM-253-119-N.jpg","img/neutralC/CFD-AF-246-242-N.jpg","1","1","1","0","1","0","0.558369099977426","0.536483200034127","0.480247200001031","1","1","1","1","1","1","1","1","1"
"250057","img/neutralC/CFD-AF-246-242-N.jpg","img/neutralC/CFD-WF-235-121-N.jpg","img/neutralC/CFD-BF-206-143-N.jpg","1","1","1","0","0","1","0.480247200001031","0.558369099977426","0.465923200012185","1","1","1","1","1","1","1","1","1"
"250057","img/neutralC/CFD-BF-206-143-N.jpg","img/neutralC/CFD-AF-246-242-N.jpg","img/neutralC/CFD-AF-213-126-N.jpg","1","1","1","1","0","1","0.465923200012185","0.480247200001031","0.559447899984661","1","1","1","1","1","1","1","1","1"
"250057","img/neutralC/CFD-AF-213-126-N.jpg","img/neutralC/CFD-BF-206-143-N.jpg","img/neutralC/CFD-IF-732-260-N.jpg","1","1","1","1","1","0","0.559447899984661","0.465923200012185","0.618136700009927","1","1","1","1","1","1","1","1","1"
"250057","img/neutralC/CFD-IF-732-260-N.jpg","img/neutralC/CFD-AF-213-126-N.jpg","img/neutralC/CFD-IM-678-482-N.jpg","1","1","1","0","1","0","0.618136700009927","0.559447899984661","0.566607400018256","1","1","1","1","1","1","1","1","1"
"250057","img/neutralC/CFD-IM-678-482-N.jpg","img/neutralC/CFD-IF-732-260-N.jpg","img/neutralC/CFD-LF-239-148-N.jpg","1","1","1","0","0","0","0.566607400018256","0.618136700009927","0.691262800013646","1","1","1","1","1","1","1","1","1"
"250057","img/neutralC/CFD-LF-239-148-N.jpg","img/neutralC/CFD-IM-678-482-N.jpg","img/neutralC/CFD-AF-205-155-N.jpg","1","1","1","0","0","0","0.691262800013646","0.566607400018256","0.55738020001445","1","1","1","1","1","1","1","1","1"
"250057","img/neutralC/CFD-AF-205-155-N.jpg","img/neutralC/CFD-LF-239-148-N.jpg","img/neutralC/CFD-WF-210-086-N.jpg","1","1","1","0","0","0","0.55738020001445","0.691262800013646","0.50873409997439","1","1","1","1","1","1","1","1","1"
"250057","img/neutralC/CFD-WF-210-086-N.jpg","img/neutralC/CFD-AF-205-155-N.jpg",NA,"1","1",NA,"0","0",NA,"0.50873409997439","0.55738020001445",NA,"1","1",NA,"1","1",NA,"1","1",NA
