"participant_id","current_trial_face","pre_trial_face","post_trial_face","current_trial_accuracy","pre_trial_accuracy","post_trial_accuracy","current_trial_congruency","pre_trial_congruency","post_trial_congruency","current_trial_rt","pre_trial_rt","post_trial_rt","current_trial_responded","pre_trial_responded","post_trial_responded","current_trial_legitResponse","pre_trial_legitResponse","post_trial_legitResponse","current_trial_resp_nums","pre_trial_resp_nums","post_trial_resp_nums"
"250016","img/neutralC/CFD-BM-238-242-N.jpg",NA,"img/neutralC/CFD-BF-247-179-N.jpg","1",NA,"1","0",NA,"0","0.857249200053047",NA,"0.730117300001439","1",NA,"1","1",NA,"1","1",NA,"1"
"250016","img/neutralC/CFD-BF-247-179-N.jpg","img/neutralC/CFD-BM-238-242-N.jpg","img/neutralC/CFD-IF-742-103-N.jpg","1","1","1","0","0","1","0.730117300001439","0.857249200053047","0.488537900033407","1","1","1","1","1","1","1","1","1"
"250016","img/neutralC/CFD-IF-742-103-N.jpg","img/neutralC/CFD-BF-247-179-N.jpg","img/neutralC/CFD-WM-014-002-N.jpg","1","1","1","1","0","0","0.488537900033407","0.730117300001439","0.98769410001114","1","1","1","1","1","1","1","1","1"
"250016","img/neutralC/CFD-WM-014-002-N.jpg","img/neutralC/CFD-IF-742-103-N.jpg","img/neutralC/CFD-BF-207-004-N.jpg","1","1","1","0","1","1","0.98769410001114","0.488537900033407","0.500901199993677","1","1","1","1","1","1","1","1","1"
"250016","img/neutralC/CFD-BF-207-004-N.jpg","img/neutralC/CFD-WM-014-002-N.jpg","img/neutralC/CFD-BF-044-034-N.jpg","1","1","1","1","0","0","0.500901199993677","0.98769410001114","0.568671999964863","1","1","1","1","1","1","1","1","1"
"250016","img/neutralC/CFD-BF-044-034-N.jpg","img/neutralC/CFD-BF-207-004-N.jpg","img/neutralC/CFD-IM-721-341-N.jpg","1","1","1","0","1","1","0.568671999964863","0.500901199993677","0.564756800013129","1","1","1","1","1","1","1","1","1"
"250016","img/neutralC/CFD-IM-721-341-N.jpg","img/neutralC/CFD-BF-044-034-N.jpg","img/neutralC/CFD-MF-301-024-N.jpg","1","1","1","1","0","0","0.564756800013129","0.568671999964863","0.844303200021386","1","1","1","1","1","1","1","1","1"
"250016","img/neutralC/CFD-MF-301-024-N.jpg","img/neutralC/CFD-IM-721-341-N.jpg","img/neutralC/CFD-IM-696-001-N.jpg","1","1","1","0","1","0","0.844303200021386","0.564756800013129","0.552061300026253","1","1","1","1","1","1","1","1","1"
"250016","img/neutralC/CFD-IM-696-001-N.jpg","img/neutralC/CFD-MF-301-024-N.jpg","img/neutralC/CFD-WF-234-086-N.jpg","1","1","1","0","0","1","0.552061300026253","0.844303200021386","0.433899800002109","1","1","1","1","1","1","1","1","1"
"250016","img/neutralC/CFD-WF-234-086-N.jpg","img/neutralC/CFD-IM-696-001-N.jpg","img/neutralC/CFD-IM-707-105-N.jpg","1","1","1","1","0","1","0.433899800002109","0.552061300026253","0.568251099961344","1","1","1","1","1","1","1","1","1"
"250016","img/neutralC/CFD-IM-707-105-N.jpg","img/neutralC/CFD-WF-234-086-N.jpg","img/neutralC/CFD-BF-011-002-N.jpg","1","1","1","1","1","1","0.568251099961344","0.433899800002109","0.596384399977978","1","1","1","1","1","1","1","1","1"
"250016","img/neutralC/CFD-BF-011-002-N.jpg","img/neutralC/CFD-IM-707-105-N.jpg","img/neutralC/CFD-BM-241-235-N.jpg","1","1","1","1","1","0","0.596384399977978","0.568251099961344","0.696257299976423","1","1","1","1","1","1","1","1","1"
"250016","img/neutralC/CFD-BM-241-235-N.jpg","img/neutralC/CFD-BF-011-002-N.jpg","img/neutralC/CFD-BF-002-001-N.jpg","1","1","1","0","1","0","0.696257299976423","0.596384399977978","0.65516739996383","1","1","1","1","1","1","1","1","1"
"250016","img/neutralC/CFD-BF-002-001-N.jpg","img/neutralC/CFD-BM-241-235-N.jpg","img/neutralC/CFD-LM-213-061-N.jpg","1","1","1","0","0","0","0.65516739996383","0.696257299976423","0.396633700001985","1","1","1","1","1","1","1","1","1"
"250016","img/neutralC/CFD-LM-213-061-N.jpg","img/neutralC/CFD-BF-002-001-N.jpg","img/neutralC/CFD-BM-036-003-N.jpg","1","1","1","0","0","1","0.396633700001985","0.65516739996383","0.570120699994732","1","1","1","1","1","1","1","1","1"
"250016","img/neutralC/CFD-BM-036-003-N.jpg","img/neutralC/CFD-LM-213-061-N.jpg","img/neutralC/CFD-WF-029-002-N.jpg","1","1","1","1","0","0","0.570120699994732","0.396633700001985","0.54941759997746","1","1","1","1","1","1","1","1","1"
"250016","img/neutralC/CFD-WF-029-002-N.jpg","img/neutralC/CFD-BM-036-003-N.jpg","img/neutralC/CFD-IF-729-393-N.jpg","1","1","1","0","1","0","0.54941759997746","0.570120699994732","0.621259299980011","1","1","1","1","1","1","1","1","1"
"250016","img/neutralC/CFD-IF-729-393-N.jpg","img/neutralC/CFD-WF-029-002-N.jpg","img/neutralC/CFD-BF-036-027-N.jpg","1","1","1","0","0","0","0.621259299980011","0.54941759997746","0.453463099955115","1","1","1","1","1","1","1","1","1"
"250016","img/neutralC/CFD-BF-036-027-N.jpg","img/neutralC/CFD-IF-729-393-N.jpg","img/neutralC/CFD-BF-006-017-N.jpg","1","1","1","0","0","0","0.453463099955115","0.621259299980011","0.518823000020348","1","1","1","1","1","1","1","1","1"
"250016","img/neutralC/CFD-BF-006-017-N.jpg","img/neutralC/CFD-BF-036-027-N.jpg","img/neutralC/CFD-WF-233-112-N.jpg","1","1","1","0","0","1","0.518823000020348","0.453463099955115","0.489555400039535","1","1","1","1","1","1","1","1","1"
"250016","img/neutralC/CFD-WF-233-112-N.jpg","img/neutralC/CFD-BF-006-017-N.jpg","img/neutralC/CFD-LF-204-133-N.jpg","1","1","1","1","0","1","0.489555400039535","0.518823000020348","0.537655299995095","1","1","1","1","1","1","1","1","1"
"250016","img/neutralC/CFD-LF-204-133-N.jpg","img/neutralC/CFD-WF-233-112-N.jpg","img/neutralC/CFD-BM-207-024-N.jpg","1","1","1","1","1","1","0.537655299995095","0.489555400039535","0.415582399989944","1","1","1","1","1","1","1","1","1"
"250016","img/neutralC/CFD-BM-207-024-N.jpg","img/neutralC/CFD-LF-204-133-N.jpg","img/neutralC/CFD-AM-230-150-N.jpg","1","1","1","1","1","0","0.415582399989944","0.537655299995095","0.493944699992426","1","1","1","1","1","1","1","1","1"
"250016","img/neutralC/CFD-AM-230-150-N.jpg","img/neutralC/CFD-BM-207-024-N.jpg","img/neutralC/CFD-IF-677-452-1-N.jpg","1","1","1","0","1","1","0.493944699992426","0.415582399989944","0.668611000000965","1","1","1","1","1","1","1","1","1"
"250016","img/neutralC/CFD-IF-677-452-1-N.jpg","img/neutralC/CFD-AM-230-150-N.jpg","img/neutralC/CFD-BF-214-308-N.jpg","1","1","1","1","0","1","0.668611000000965","0.493944699992426","0.411771300015971","1","1","1","1","1","1","1","1","1"
"250016","img/neutralC/CFD-BF-214-308-N.jpg","img/neutralC/CFD-IF-677-452-1-N.jpg","img/neutralC/CFD-BF-027-002-N.jpg","1","1","1","1","1","1","0.411771300015971","0.668611000000965","0.538284300011583","1","1","1","1","1","1","1","1","1"
"250016","img/neutralC/CFD-BF-027-002-N.jpg","img/neutralC/CFD-BF-214-308-N.jpg","img/neutralC/CFD-WM-034-030-N.jpg","1","1","1","1","1","1","0.538284300011583","0.411771300015971","0.601546499994583","1","1","1","1","1","1","1","1","1"
"250016","img/neutralC/CFD-WM-034-030-N.jpg","img/neutralC/CFD-BF-027-002-N.jpg","img/neutralC/CFD-IM-726-248-N.jpg","1","1","1","1","1","0","0.601546499994583","0.538284300011583","0.897488100046758","1","1","1","1","1","1","1","1","1"
"250016","img/neutralC/CFD-IM-726-248-N.jpg","img/neutralC/CFD-WM-034-030-N.jpg","img/neutralC/CFD-WF-208-068-N.jpg","1","1","1","0","1","1","0.897488100046758","0.601546499994583","0.459130600036588","1","1","1","1","1","1","1","1","1"
"250016","img/neutralC/CFD-WF-208-068-N.jpg","img/neutralC/CFD-IM-726-248-N.jpg","img/neutralC/CFD-WM-248-036-N.jpg","1","1","1","1","0","1","0.459130600036588","0.897488100046758","0.518125300004613","1","1","1","1","1","1","1","1","1"
"250016","img/neutralC/CFD-WM-248-036-N.jpg","img/neutralC/CFD-WF-208-068-N.jpg","img/neutralC/CFD-BF-236-177-N.jpg","1","1","1","1","1","0","0.518125300004613","0.459130600036588","0.458685400022659","1","1","1","1","1","1","1","1","1"
"250016","img/neutralC/CFD-BF-236-177-N.jpg","img/neutralC/CFD-WM-248-036-N.jpg",NA,"1","1",NA,"0","1",NA,"0.458685400022659","0.518125300004613",NA,"1","1",NA,"1","1",NA,"1","1",NA
"250016","img/neutralC/CFD-BF-222-240-N.jpg",NA,"img/neutralC/CFD-BM-003-003-N.jpg","0",NA,"1","0",NA,"0","0.386841100000311",NA,"0.483900499995798","1",NA,"1","1",NA,"1","1",NA,"1"
"250016","img/neutralC/CFD-BM-003-003-N.jpg","img/neutralC/CFD-BF-222-240-N.jpg","img/neutralC/CFD-IM-701-312-N.jpg","1","0","0","0","0","0","0.483900499995798","0.386841100000311","0.331618500000332","1","1","1","1","1","1","1","1","1"
"250016","img/neutralC/CFD-IM-701-312-N.jpg","img/neutralC/CFD-BM-003-003-N.jpg","img/neutralC/CFD-IF-625-225-N.jpg","0","1","1","0","0","0","0.331618500000332","0.483900499995798","0.567737500008661","1","1","1","1","1","1","1","1","1"
"250016","img/neutralC/CFD-IF-625-225-N.jpg","img/neutralC/CFD-IM-701-312-N.jpg","img/neutralC/CFD-LM-247-095-N.jpg","1","0","0","0","0","0","0.567737500008661","0.331618500000332","0.411652100039646","1","1","1","1","1","1","1","1","1"
"250016","img/neutralC/CFD-LM-247-095-N.jpg","img/neutralC/CFD-IF-625-225-N.jpg","img/neutralC/CFD-AF-227-207-N.jpg","0","1","1","0","0","1","0.411652100039646","0.567737500008661","0.536591999989469","1","1","1","1","1","1","1","1","1"
"250016","img/neutralC/CFD-AF-227-207-N.jpg","img/neutralC/CFD-LM-247-095-N.jpg","img/neutralC/CFD-MF-312-002-N.jpg","1","0","1","1","0","1","0.536591999989469","0.411652100039646","0.497150900017004","1","1","1","1","1","1","1","1","1"
"250016","img/neutralC/CFD-MF-312-002-N.jpg","img/neutralC/CFD-AF-227-207-N.jpg","img/neutralC/CFD-WM-254-152-N.jpg","1","1","1","1","1","1","0.497150900017004","0.536591999989469","0.503473399963696","1","1","1","1","1","1","1","1","1"
"250016","img/neutralC/CFD-WM-254-152-N.jpg","img/neutralC/CFD-MF-312-002-N.jpg","img/neutralC/CFD-LF-208-127-N.jpg","1","1","1","1","1","0","0.503473399963696","0.497150900017004","0.713068599987309","1","1","1","1","1","1","1","1","1"
"250016","img/neutralC/CFD-LF-208-127-N.jpg","img/neutralC/CFD-WM-254-152-N.jpg","img/neutralC/CFD-LF-225-164-N.jpg","1","1","1","0","1","1","0.713068599987309","0.503473399963696","0.475504700036254","1","1","1","1","1","1","1","1","1"
"250016","img/neutralC/CFD-LF-225-164-N.jpg","img/neutralC/CFD-LF-208-127-N.jpg","img/neutralC/CFD-BF-045-003-N.jpg","1","1","1","1","0","0","0.475504700036254","0.713068599987309","0.503588299965486","1","1","1","1","1","1","1","1","1"
"250016","img/neutralC/CFD-BF-045-003-N.jpg","img/neutralC/CFD-LF-225-164-N.jpg","img/neutralC/CFD-WM-228-065-N.jpg","1","1","0","0","1","0","0.503588299965486","0.475504700036254","0.508113299962133","1","1","1","1","1","1","1","1","1"
"250016","img/neutralC/CFD-WM-228-065-N.jpg","img/neutralC/CFD-BF-045-003-N.jpg","img/neutralC/CFD-WF-006-002-N.jpg","0","1","1","0","0","0","0.508113299962133","0.503588299965486","0.627300599997398","1","1","1","1","1","1","1","1","1"
"250016","img/neutralC/CFD-WF-006-002-N.jpg","img/neutralC/CFD-WM-228-065-N.jpg","img/neutralC/CFD-IF-673-389-N.jpg","1","0","1","0","0","0","0.627300599997398","0.508113299962133","1.28242220001994","1","1","1","1","1","1","1","1","1"
"250016","img/neutralC/CFD-IF-673-389-N.jpg","img/neutralC/CFD-WF-006-002-N.jpg","img/neutralC/CFD-AM-221-184-N.jpg","1","1","1","0","0","1","1.28242220001994","0.627300599997398","0.852783800044563","1","1","1","1","1","1","1","1","1"
"250016","img/neutralC/CFD-AM-221-184-N.jpg","img/neutralC/CFD-IF-673-389-N.jpg","img/neutralC/CFD-IF-744-114-N.jpg","1","1","1","1","0","0","0.852783800044563","1.28242220001994","0.647274000046309","1","1","1","1","1","1","1","1","1"
"250016","img/neutralC/CFD-IF-744-114-N.jpg","img/neutralC/CFD-AM-221-184-N.jpg","img/neutralC/CFD-LF-241-188-N.jpg","1","1","1","0","1","0","0.647274000046309","0.852783800044563","0.813882400048897","1","1","1","1","1","1","1","1","1"
"250016","img/neutralC/CFD-LF-241-188-N.jpg","img/neutralC/CFD-IF-744-114-N.jpg","img/neutralC/CFD-WM-202-107-N.jpg","1","1","1","0","0","1","0.813882400048897","0.647274000046309","0.844819099991582","1","1","1","1","1","1","1","1","1"
"250016","img/neutralC/CFD-WM-202-107-N.jpg","img/neutralC/CFD-LF-241-188-N.jpg","img/neutralC/CFD-BM-028-002-N.jpg","1","1","1","1","0","1","0.844819099991582","0.813882400048897","0.440110500028823","1","1","1","1","1","1","1","1","1"
"250016","img/neutralC/CFD-BM-028-002-N.jpg","img/neutralC/CFD-WM-202-107-N.jpg","img/neutralC/CFD-LM-238-129-N.jpg","1","1","1","1","1","1","0.440110500028823","0.844819099991582","0.399615600006655","1","1","1","1","1","1","1","1","1"
"250016","img/neutralC/CFD-LM-238-129-N.jpg","img/neutralC/CFD-BM-028-002-N.jpg","img/neutralC/CFD-AF-210-050-N.jpg","1","1","1","1","1","1","0.399615600006655","0.440110500028823","0.470585000002757","1","1","1","1","1","1","1","1","1"
"250016","img/neutralC/CFD-AF-210-050-N.jpg","img/neutralC/CFD-LM-238-129-N.jpg","img/neutralC/CFD-LF-210-220-N.jpg","1","1","1","1","1","1","0.470585000002757","0.399615600006655","0.451793399988674","1","1","1","1","1","1","1","1","1"
"250016","img/neutralC/CFD-LF-210-220-N.jpg","img/neutralC/CFD-AF-210-050-N.jpg","img/neutralC/CFD-IM-659-359-N.jpg","1","1","1","1","1","0","0.451793399988674","0.470585000002757","0.615982400020584","1","1","1","1","1","1","1","1","1"
"250016","img/neutralC/CFD-IM-659-359-N.jpg","img/neutralC/CFD-LF-210-220-N.jpg","img/neutralC/CFD-BM-010-003-N.jpg","1","1","1","0","1","0","0.615982400020584","0.451793399988674","0.593275899998844","1","1","1","1","1","1","1","1","1"
"250016","img/neutralC/CFD-BM-010-003-N.jpg","img/neutralC/CFD-IM-659-359-N.jpg","img/neutralC/CFD-BM-213-134-N.jpg","1","1","1","0","0","1","0.593275899998844","0.615982400020584","0.461862299998756","1","1","1","1","1","1","1","1","1"
"250016","img/neutralC/CFD-BM-213-134-N.jpg","img/neutralC/CFD-BM-010-003-N.jpg","img/neutralC/CFD-WF-223-133-N.jpg","1","1","1","1","0","0","0.461862299998756","0.593275899998844","0.428065599990077","1","1","1","1","1","1","1","1","1"
"250016","img/neutralC/CFD-WF-223-133-N.jpg","img/neutralC/CFD-BM-213-134-N.jpg","img/neutralC/CFD-AF-239-171-N.jpg","1","1","1","0","1","1","0.428065599990077","0.461862299998756","0.529891500016674","1","1","1","1","1","1","1","1","1"
"250016","img/neutralC/CFD-AF-239-171-N.jpg","img/neutralC/CFD-WF-223-133-N.jpg","img/neutralC/CFD-BM-013-002-N.jpg","1","1","1","1","0","1","0.529891500016674","0.428065599990077","0.504579500004184","1","1","1","1","1","1","1","1","1"
"250016","img/neutralC/CFD-BM-013-002-N.jpg","img/neutralC/CFD-AF-239-171-N.jpg","img/neutralC/CFD-WF-033-002-N.jpg","1","1","1","1","1","1","0.504579500004184","0.529891500016674","0.459945300011896","1","1","1","1","1","1","1","1","1"
"250016","img/neutralC/CFD-WF-033-002-N.jpg","img/neutralC/CFD-BM-013-002-N.jpg","img/neutralC/CFD-IM-738-191-N.jpg","1","1","1","1","1","0","0.459945300011896","0.504579500004184","0.654310300014913","1","1","1","1","1","1","1","1","1"
"250016","img/neutralC/CFD-IM-738-191-N.jpg","img/neutralC/CFD-WF-033-002-N.jpg","img/neutralC/CFD-BF-004-014-N.jpg","1","1","1","0","1","1","0.654310300014913","0.459945300011896","0.435409699974116","1","1","1","1","1","1","1","1","1"
"250016","img/neutralC/CFD-BF-004-014-N.jpg","img/neutralC/CFD-IM-738-191-N.jpg","img/neutralC/CFD-MF-336-016-N.jpg","1","1","1","1","0","1","0.435409699974116","0.654310300014913","0.43322080001235","1","1","1","1","1","1","1","1","1"
"250016","img/neutralC/CFD-MF-336-016-N.jpg","img/neutralC/CFD-BF-004-014-N.jpg",NA,"1","1",NA,"1","1",NA,"0.43322080001235","0.435409699974116",NA,"1","1",NA,"1","1",NA,"1","1",NA
"250016","img/neutralC/CFD-AF-241-141-N.jpg",NA,"img/neutralC/CFD-IM-638-250-1-N.jpg","1",NA,"1","1",NA,"1","0.481888299982529",NA,"0.39107910002349","1",NA,"1","1",NA,"1","1",NA,"1"
"250016","img/neutralC/CFD-IM-638-250-1-N.jpg","img/neutralC/CFD-AF-241-141-N.jpg","img/neutralC/CFD-WM-017-002-N.jpg","1","1","0","1","1","0","0.39107910002349","0.481888299982529","0.458099399984349","1","1","1","1","1","1","1","1","1"
"250016","img/neutralC/CFD-WM-017-002-N.jpg","img/neutralC/CFD-IM-638-250-1-N.jpg","img/neutralC/CFD-LF-242-121-N.jpg","0","1","1","0","1","0","0.458099399984349","0.39107910002349","0.561116400000174","1","1","1","1","1","1","1","1","1"
"250016","img/neutralC/CFD-LF-242-121-N.jpg","img/neutralC/CFD-WM-017-002-N.jpg","img/neutralC/CFD-BM-018-001-N.jpg","1","0","1","0","0","1","0.561116400000174","0.458099399984349","0.495245400001295","1","1","1","1","1","1","1","1","1"
"250016","img/neutralC/CFD-BM-018-001-N.jpg","img/neutralC/CFD-LF-242-121-N.jpg","img/neutralC/CFD-WM-242-011-N.jpg","1","1","1","1","0","0","0.495245400001295","0.561116400000174","0.588093500002287","1","1","1","1","1","1","1","1","1"
"250016","img/neutralC/CFD-WM-242-011-N.jpg","img/neutralC/CFD-BM-018-001-N.jpg","img/neutralC/CFD-BM-212-117-N.jpg","1","1","1","0","1","0","0.588093500002287","0.495245400001295","0.519459899980575","1","1","1","1","1","1","1","1","1"
"250016","img/neutralC/CFD-BM-212-117-N.jpg","img/neutralC/CFD-WM-242-011-N.jpg","img/neutralC/CFD-BF-010-001-N.jpg","1","1","1","0","0","1","0.519459899980575","0.588093500002287","0.576852299971506","1","1","1","1","1","1","1","1","1"
"250016","img/neutralC/CFD-BF-010-001-N.jpg","img/neutralC/CFD-BM-212-117-N.jpg","img/neutralC/CFD-BM-231-155-N.jpg","1","1","1","1","0","1","0.576852299971506","0.519459899980575","0.53515139996307","1","1","1","1","1","1","1","1","1"
"250016","img/neutralC/CFD-BM-231-155-N.jpg","img/neutralC/CFD-BF-010-001-N.jpg","img/neutralC/CFD-IM-657-308-N.jpg","1","1","1","1","1","0","0.53515139996307","0.576852299971506","0.608807100041304","1","1","1","1","1","1","1","1","1"
"250016","img/neutralC/CFD-IM-657-308-N.jpg","img/neutralC/CFD-BM-231-155-N.jpg","img/neutralC/CFD-BF-033-028-N.jpg","1","1","1","0","1","0","0.608807100041304","0.53515139996307","0.43375249998644","1","1","1","1","1","1","1","1","1"
"250016","img/neutralC/CFD-BF-033-028-N.jpg","img/neutralC/CFD-IM-657-308-N.jpg","img/neutralC/CFD-LF-247-051-N.jpg","1","1","1","0","0","1","0.43375249998644","0.608807100041304","0.441693199973088","1","1","1","1","1","1","1","1","1"
"250016","img/neutralC/CFD-LF-247-051-N.jpg","img/neutralC/CFD-BF-033-028-N.jpg","img/neutralC/CFD-BM-026-002-N.jpg","1","1","1","1","0","0","0.441693199973088","0.43375249998644","0.506473000044934","1","1","1","1","1","1","1","1","1"
"250016","img/neutralC/CFD-BM-026-002-N.jpg","img/neutralC/CFD-LF-247-051-N.jpg","img/neutralC/CFD-WF-209-052-N.jpg","1","1","1","0","1","1","0.506473000044934","0.441693199973088","0.509504800022114","1","1","1","1","1","1","1","1","1"
"250016","img/neutralC/CFD-WF-209-052-N.jpg","img/neutralC/CFD-BM-026-002-N.jpg","img/neutralC/CFD-WM-227-099-N.jpg","1","1","1","1","0","1","0.509504800022114","0.506473000044934","0.469384199997876","1","1","1","1","1","1","1","1","1"
"250016","img/neutralC/CFD-WM-227-099-N.jpg","img/neutralC/CFD-WF-209-052-N.jpg","img/neutralC/CFD-IM-686-097-N.jpg","1","1","1","1","1","0","0.469384199997876","0.509504800022114","0.970712799986359","1","1","1","1","1","1","1","1","1"
"250016","img/neutralC/CFD-IM-686-097-N.jpg","img/neutralC/CFD-WM-227-099-N.jpg","img/neutralC/CFD-IF-665-015-N.jpg","1","1","1","0","1","0","0.970712799986359","0.469384199997876","0.717029499995988","1","1","1","1","1","1","1","1","1"
"250016","img/neutralC/CFD-IF-665-015-N.jpg","img/neutralC/CFD-IM-686-097-N.jpg","img/neutralC/CFD-IF-620-218-N.jpg","1","1","1","0","0","0","0.717029499995988","0.970712799986359","0.450205000001006","1","1","1","1","1","1","1","1","1"
"250016","img/neutralC/CFD-IF-620-218-N.jpg","img/neutralC/CFD-IF-665-015-N.jpg","img/neutralC/CFD-WM-258-125-N.jpg","1","1","0","0","0","0","0.450205000001006","0.717029499995988","0.598103200027253","1","1","1","1","1","1","1","1","1"
"250016","img/neutralC/CFD-WM-258-125-N.jpg","img/neutralC/CFD-IF-620-218-N.jpg","img/neutralC/CFD-LM-219-295-N.jpg","0","1","1","0","0","1","0.598103200027253","0.450205000001006","0.881422499951441","1","1","1","1","1","1","1","1","1"
"250016","img/neutralC/CFD-LM-219-295-N.jpg","img/neutralC/CFD-WM-258-125-N.jpg","img/neutralC/CFD-BF-238-190-N.jpg","1","0","1","1","0","1","0.881422499951441","0.598103200027253","0.531804300029762","1","1","1","1","1","1","1","1","1"
"250016","img/neutralC/CFD-BF-238-190-N.jpg","img/neutralC/CFD-LM-219-295-N.jpg","img/neutralC/CFD-AF-206-079-N.jpg","1","1","1","1","1","1","0.531804300029762","0.881422499951441","0.476434700016398","1","1","1","1","1","1","1","1","1"
"250016","img/neutralC/CFD-AF-206-079-N.jpg","img/neutralC/CFD-BF-238-190-N.jpg","img/neutralC/CFD-LM-233-171-N.jpg","1","1","0","1","1","0","0.476434700016398","0.531804300029762","0.458601500024088","1","1","1","1","1","1","1","1","1"
"250016","img/neutralC/CFD-LM-233-171-N.jpg","img/neutralC/CFD-AF-206-079-N.jpg","img/neutralC/CFD-BM-005-003-N.jpg","0","1","1","0","1","1","0.458601500024088","0.476434700016398","0.551160699978936","1","1","1","1","1","1","1","1","1"
"250016","img/neutralC/CFD-BM-005-003-N.jpg","img/neutralC/CFD-LM-233-171-N.jpg","img/neutralC/CFD-LM-226-175-N.jpg","1","0","1","1","0","0","0.551160699978936","0.458601500024088","0.490008399996441","1","1","1","1","1","1","1","1","1"
"250016","img/neutralC/CFD-LM-226-175-N.jpg","img/neutralC/CFD-BM-005-003-N.jpg","img/neutralC/CFD-MF-313-002-N.jpg","1","1","1","0","1","0","0.490008399996441","0.551160699978936","0.709102099994197","1","1","1","1","1","1","1","1","1"
"250016","img/neutralC/CFD-MF-313-002-N.jpg","img/neutralC/CFD-LM-226-175-N.jpg","img/neutralC/CFD-LF-250-169-N.jpg","1","1","1","0","0","1","0.709102099994197","0.490008399996441","0.559424199978821","1","1","1","1","1","1","1","1","1"
"250016","img/neutralC/CFD-LF-250-169-N.jpg","img/neutralC/CFD-MF-313-002-N.jpg","img/neutralC/CFD-IM-617-174-N.jpg","1","1","1","1","0","0","0.559424199978821","0.709102099994197","0.600315999996383","1","1","1","1","1","1","1","1","1"
"250016","img/neutralC/CFD-IM-617-174-N.jpg","img/neutralC/CFD-LF-250-169-N.jpg","img/neutralC/CFD-LF-245-166-N.jpg","1","1","1","0","1","1","0.600315999996383","0.559424199978821","0.375338200014085","1","1","1","1","1","1","1","1","1"
"250016","img/neutralC/CFD-LF-245-166-N.jpg","img/neutralC/CFD-IM-617-174-N.jpg","img/neutralC/CFD-AF-202-122-N.jpg","1","1","1","1","0","1","0.375338200014085","0.600315999996383","0.636007599998266","1","1","1","1","1","1","1","1","1"
"250016","img/neutralC/CFD-AF-202-122-N.jpg","img/neutralC/CFD-LF-245-166-N.jpg","img/neutralC/CFD-IM-727-195-N.jpg","1","1","1","1","1","1","0.636007599998266","0.375338200014085","0.405885299958754","1","1","1","1","1","1","1","1","1"
"250016","img/neutralC/CFD-IM-727-195-N.jpg","img/neutralC/CFD-AF-202-122-N.jpg","img/neutralC/CFD-IM-653-008-N.jpg","1","1","0","1","1","0","0.405885299958754","0.636007599998266","0.590967199997976","1","1","1","1","1","1","1","1","1"
"250016","img/neutralC/CFD-IM-653-008-N.jpg","img/neutralC/CFD-IM-727-195-N.jpg",NA,"0","1",NA,"0","1",NA,"0.590967199997976","0.405885299958754",NA,"1","1",NA,"1","1",NA,"1","1",NA
"250016","img/neutralC/CFD-AF-240-206-N.jpg",NA,"img/neutralC/CFD-WM-006-002-N.jpg","1",NA,"1","0",NA,"0","1.09288469998864",NA,"0.626531600020826","1",NA,"1","1",NA,"1","1",NA,"1"
"250016","img/neutralC/CFD-WM-006-002-N.jpg","img/neutralC/CFD-AF-240-206-N.jpg","img/neutralC/CFD-BM-248-128-N.jpg","1","1","1","0","0","0","0.626531600020826","1.09288469998864","0.567029100027867","1","1","1","1","1","1","1","1","1"
"250016","img/neutralC/CFD-BM-248-128-N.jpg","img/neutralC/CFD-WM-006-002-N.jpg","img/neutralC/CFD-WM-012-001-N.jpg","1","1","1","0","0","1","0.567029100027867","0.626531600020826","0.901780300016981","1","1","1","1","1","1","1","1","1"
"250016","img/neutralC/CFD-WM-012-001-N.jpg","img/neutralC/CFD-BM-248-128-N.jpg","img/neutralC/CFD-WM-019-003-N.jpg","1","1","1","1","0","1","0.901780300016981","0.567029100027867","0.664752700016834","1","1","1","1","1","1","1","1","1"
"250016","img/neutralC/CFD-WM-019-003-N.jpg","img/neutralC/CFD-WM-012-001-N.jpg","img/neutralC/CFD-MF-335-002-N.jpg","1","1","1","1","1","0","0.664752700016834","0.901780300016981","0.504409299988765","1","1","1","1","1","1","1","1","1"
"250016","img/neutralC/CFD-MF-335-002-N.jpg","img/neutralC/CFD-WM-019-003-N.jpg","img/neutralC/CFD-MF-309-002-N.jpg","1","1","1","0","1","0","0.504409299988765","0.664752700016834","0.478916599997319","1","1","1","1","1","1","1","1","1"
"250016","img/neutralC/CFD-MF-309-002-N.jpg","img/neutralC/CFD-MF-335-002-N.jpg","img/neutralC/CFD-IF-642-295-N.jpg","1","1","1","0","0","1","0.478916599997319","0.504409299988765","0.413763999997173","1","1","1","1","1","1","1","1","1"
"250016","img/neutralC/CFD-IF-642-295-N.jpg","img/neutralC/CFD-MF-309-002-N.jpg","img/neutralC/CFD-WM-212-097-N.jpg","1","1","1","1","0","0","0.413763999997173","0.478916599997319","0.652278700028546","1","1","1","1","1","1","1","1","1"
"250016","img/neutralC/CFD-WM-212-097-N.jpg","img/neutralC/CFD-IF-642-295-N.jpg","img/neutralC/CFD-BF-025-002-N.jpg","1","1","0","0","1","0","0.652278700028546","0.413763999997173","0.541831700014882","1","1","1","1","1","1","1","1","1"
"250016","img/neutralC/CFD-BF-025-002-N.jpg","img/neutralC/CFD-WM-212-097-N.jpg","img/neutralC/CFD-BF-212-315-N.jpg","0","1","1","0","0","1","0.541831700014882","0.652278700028546","0.658750600006897","1","1","1","1","1","1","1","1","1"
"250016","img/neutralC/CFD-BF-212-315-N.jpg","img/neutralC/CFD-BF-025-002-N.jpg","img/neutralC/CFD-WF-228-196-N.jpg","1","0","1","1","0","0","0.658750600006897","0.541831700014882","0.9487810000428","1","1","1","1","1","1","1","1","1"
"250016","img/neutralC/CFD-WF-228-196-N.jpg","img/neutralC/CFD-BF-212-315-N.jpg","img/neutralC/CFD-WM-215-041-N.jpg","1","1","1","0","1","0","0.9487810000428","0.658750600006897","0.583756800042465","1","1","1","1","1","1","1","1","1"
"250016","img/neutralC/CFD-WM-215-041-N.jpg","img/neutralC/CFD-WF-228-196-N.jpg","img/neutralC/CFD-AM-247-165-N.jpg","1","1","1","0","0","1","0.583756800042465","0.9487810000428","0.53407850000076","1","1","1","1","1","1","1","1","1"
"250016","img/neutralC/CFD-AM-247-165-N.jpg","img/neutralC/CFD-WM-215-041-N.jpg","img/neutralC/CFD-LM-201-057-N.jpg","1","1","1","1","0","1","0.53407850000076","0.583756800042465","0.404708200017922","1","1","1","1","1","1","1","1","1"
"250016","img/neutralC/CFD-LM-201-057-N.jpg","img/neutralC/CFD-AM-247-165-N.jpg","img/neutralC/CFD-WF-017-003-N.jpg","1","1","1","1","1","1","0.404708200017922","0.53407850000076","0.603035299980547","1","1","1","1","1","1","1","1","1"
"250016","img/neutralC/CFD-WF-017-003-N.jpg","img/neutralC/CFD-LM-201-057-N.jpg","img/neutralC/CFD-BM-205-001-N.jpg","1","1","1","1","1","0","0.603035299980547","0.404708200017922","0.727487500000279","1","1","1","1","1","1","1","1","1"
"250016","img/neutralC/CFD-BM-205-001-N.jpg","img/neutralC/CFD-WF-017-003-N.jpg","img/neutralC/CFD-MM-317-061-N.jpg","1","1","1","0","1","1","0.727487500000279","0.603035299980547","0.431885799975134","1","1","1","1","1","1","1","1","1"
"250016","img/neutralC/CFD-MM-317-061-N.jpg","img/neutralC/CFD-BM-205-001-N.jpg","img/neutralC/CFD-BM-251-013-N.jpg","1","1","1","1","0","1","0.431885799975134","0.727487500000279","0.548083600006066","1","1","1","1","1","1","1","1","1"
"250016","img/neutralC/CFD-BM-251-013-N.jpg","img/neutralC/CFD-MM-317-061-N.jpg","img/neutralC/CFD-BF-228-212-N.jpg","1","1","1","1","1","0","0.548083600006066","0.431885799975134","0.298211899993476","1","1","1","1","1","1","1","1","1"
"250016","img/neutralC/CFD-BF-228-212-N.jpg","img/neutralC/CFD-BM-251-013-N.jpg","img/neutralC/CFD-IM-646-023-N.jpg","1","1","1","0","1","1","0.298211899993476","0.548083600006066","0.437291699985508","1","1","1","1","1","1","1","1","1"
"250016","img/neutralC/CFD-IM-646-023-N.jpg","img/neutralC/CFD-BF-228-212-N.jpg","img/neutralC/CFD-LM-216-082-N.jpg","1","1","0","1","0","0","0.437291699985508","0.298211899993476","0.353776499978267","1","1","1","1","1","1","1","1","1"
"250016","img/neutralC/CFD-LM-216-082-N.jpg","img/neutralC/CFD-IM-646-023-N.jpg","img/neutralC/CFD-WF-005-010-N.jpg","0","1","1","0","1","0","0.353776499978267","0.437291699985508","0.596755700011272","1","1","1","1","1","1","1","1","1"
"250016","img/neutralC/CFD-WF-005-010-N.jpg","img/neutralC/CFD-LM-216-082-N.jpg","img/neutralC/CFD-BF-202-109-N.jpg","1","0","1","0","0","1","0.596755700011272","0.353776499978267","0.457682500011288","1","1","1","1","1","1","1","1","1"
"250016","img/neutralC/CFD-BF-202-109-N.jpg","img/neutralC/CFD-WF-005-010-N.jpg","img/neutralC/CFD-WM-026-001-N.jpg","1","1","1","1","0","1","0.457682500011288","0.596755700011272","0.486626000027172","1","1","1","1","1","1","1","1","1"
"250016","img/neutralC/CFD-WM-026-001-N.jpg","img/neutralC/CFD-BF-202-109-N.jpg","img/neutralC/CFD-LM-243-075-N.jpg","1","1","0","1","1","0","0.486626000027172","0.457682500011288","0.498992100008763","1","1","1","1","1","1","1","1","1"
"250016","img/neutralC/CFD-LM-243-075-N.jpg","img/neutralC/CFD-WM-026-001-N.jpg","img/neutralC/CFD-LM-214-165-N.jpg","0","1","1","0","1","1","0.498992100008763","0.486626000027172","0.795555000018794","1","1","1","1","1","1","1","1","1"
"250016","img/neutralC/CFD-LM-214-165-N.jpg","img/neutralC/CFD-LM-243-075-N.jpg","img/neutralC/CFD-WM-249-239-N.jpg","1","0","1","1","0","1","0.795555000018794","0.498992100008763","0.574822499998845","1","1","1","1","1","1","1","1","1"
"250016","img/neutralC/CFD-WM-249-239-N.jpg","img/neutralC/CFD-LM-214-165-N.jpg","img/neutralC/CFD-WF-240-083-N.jpg","1","1","1","1","1","0","0.574822499998845","0.795555000018794","0.617395200009923","1","1","1","1","1","1","1","1","1"
"250016","img/neutralC/CFD-WF-240-083-N.jpg","img/neutralC/CFD-WM-249-239-N.jpg","img/neutralC/CFD-BF-041-001-N.jpg","1","1","1","0","1","1","0.617395200009923","0.574822499998845","0.464284300047439","1","1","1","1","1","1","1","1","1"
"250016","img/neutralC/CFD-BF-041-001-N.jpg","img/neutralC/CFD-WF-240-083-N.jpg","img/neutralC/CFD-LM-244-068-N.jpg","1","1","1","1","0","1","0.464284300047439","0.617395200009923","0.529754300019704","1","1","1","1","1","1","1","1","1"
"250016","img/neutralC/CFD-LM-244-068-N.jpg","img/neutralC/CFD-BF-041-001-N.jpg","img/neutralC/CFD-IM-648-337-N.jpg","1","1","0","1","1","0","0.529754300019704","0.464284300047439","0.564869900001213","1","1","1","1","1","1","1","1","1"
"250016","img/neutralC/CFD-IM-648-337-N.jpg","img/neutralC/CFD-LM-244-068-N.jpg",NA,"0","1",NA,"0","1",NA,"0.564869900001213","0.529754300019704",NA,"1","1",NA,"1","1",NA,"1","1",NA
"250016","img/neutralC/CFD-LF-212-066-N.jpg",NA,"img/neutralC/CFD-WF-241-210-N.jpg","1",NA,"1","1",NA,"0","1.07598810002673",NA,"0.59503660001792","1",NA,"1","1",NA,"1","1",NA,"1"
"250016","img/neutralC/CFD-WF-241-210-N.jpg","img/neutralC/CFD-LF-212-066-N.jpg","img/neutralC/CFD-WM-023-001-N.jpg","1","1","1","0","1","0","0.59503660001792","1.07598810002673","0.687153799983207","1","1","1","1","1","1","1","1","1"
"250016","img/neutralC/CFD-WM-023-001-N.jpg","img/neutralC/CFD-WF-241-210-N.jpg","img/neutralC/CFD-BM-021-021-N.jpg","1","1","1","0","0","1","0.687153799983207","0.59503660001792","0.394451300031506","1","1","1","1","1","1","1","1","1"
"250016","img/neutralC/CFD-BM-021-021-N.jpg","img/neutralC/CFD-WM-023-001-N.jpg","img/neutralC/CFD-IF-676-017-N.jpg","1","1","1","1","0","1","0.394451300031506","0.687153799983207","0.357359300018288","1","1","1","1","1","1","1","1","1"
"250016","img/neutralC/CFD-IF-676-017-N.jpg","img/neutralC/CFD-BM-021-021-N.jpg","img/neutralC/CFD-AM-205-153-N.jpg","1","1","1","1","1","1","0.357359300018288","0.394451300031506","0.521813999977894","1","1","1","1","1","1","1","1","1"
"250016","img/neutralC/CFD-AM-205-153-N.jpg","img/neutralC/CFD-IF-676-017-N.jpg","img/neutralC/CFD-LM-240-013-N.jpg","1","1","1","1","1","1","0.521813999977894","0.357359300018288","0.59130859997822","1","1","1","1","1","1","1","1","1"
"250016","img/neutralC/CFD-LM-240-013-N.jpg","img/neutralC/CFD-AM-205-153-N.jpg","img/neutralC/CFD-AM-219-101-N.jpg","1","1","0","1","1","0","0.59130859997822","0.521813999977894","0.455321000015829","1","1","1","1","1","1","1","1","1"
"250016","img/neutralC/CFD-AM-219-101-N.jpg","img/neutralC/CFD-LM-240-013-N.jpg","img/neutralC/CFD-AM-243-212-N.jpg","0","1","1","0","1","1","0.455321000015829","0.59130859997822","0.523062899999786","1","1","1","1","1","1","1","1","1"
"250016","img/neutralC/CFD-AM-243-212-N.jpg","img/neutralC/CFD-AM-219-101-N.jpg","img/neutralC/CFD-WF-243-148-N.jpg","1","0","0","1","0","0","0.523062899999786","0.455321000015829","0.384325299994089","1","1","1","1","1","1","1","1","1"
"250016","img/neutralC/CFD-WF-243-148-N.jpg","img/neutralC/CFD-AM-243-212-N.jpg","img/neutralC/CFD-WM-028-003-N.jpg","0","1","1","0","1","1","0.384325299994089","0.523062899999786","0.500076299998909","1","1","1","1","1","1","1","1","1"
"250016","img/neutralC/CFD-WM-028-003-N.jpg","img/neutralC/CFD-WF-243-148-N.jpg","img/neutralC/CFD-IM-615-167-N.jpg","1","0","1","1","0","0","0.500076299998909","0.384325299994089","0.38145300000906","1","1","1","1","1","1","1","1","1"
"250016","img/neutralC/CFD-IM-615-167-N.jpg","img/neutralC/CFD-WM-028-003-N.jpg","img/neutralC/CFD-BF-244-231-N.jpg","1","1","1","0","1","1","0.38145300000906","0.500076299998909","0.549167699995451","1","1","1","1","1","1","1","1","1"
"250016","img/neutralC/CFD-BF-244-231-N.jpg","img/neutralC/CFD-IM-615-167-N.jpg","img/neutralC/CFD-BM-043-071-N.jpg","1","1","0","1","0","0","0.549167699995451","0.38145300000906","0.647394999978133","1","1","1","1","1","1","1","1","1"
"250016","img/neutralC/CFD-BM-043-071-N.jpg","img/neutralC/CFD-BF-244-231-N.jpg","img/neutralC/CFD-MM-306-010-N.jpg","0","1","0","0","1","0","0.647394999978133","0.549167699995451","0.577212899981532","1","1","1","1","1","1","1","1","1"
"250016","img/neutralC/CFD-MM-306-010-N.jpg","img/neutralC/CFD-BM-043-071-N.jpg","img/neutralC/CFD-IM-606-008-N.jpg","0","0","1","0","0","0","0.577212899981532","0.647394999978133","1.07271450001281","1","1","1","1","1","1","1","1","1"
"250016","img/neutralC/CFD-IM-606-008-N.jpg","img/neutralC/CFD-MM-306-010-N.jpg","img/neutralC/CFD-WF-221-005-N.jpg","1","0","1","0","0","0","1.07271450001281","0.577212899981532","0.543359900009818","1","1","1","1","1","1","1","1","1"
"250016","img/neutralC/CFD-WF-221-005-N.jpg","img/neutralC/CFD-IM-606-008-N.jpg","img/neutralC/CFD-BF-012-001-N.jpg","1","1","0","0","0","0","0.543359900009818","1.07271450001281","0.332721500017215","1","1","1","1","1","1","1","1","1"
"250016","img/neutralC/CFD-BF-012-001-N.jpg","img/neutralC/CFD-WF-221-005-N.jpg","img/neutralC/CFD-BM-030-003-N.jpg","0","1","1","0","0","0","0.332721500017215","0.543359900009818","0.73274260002654","1","1","1","1","1","1","1","1","1"
"250016","img/neutralC/CFD-BM-030-003-N.jpg","img/neutralC/CFD-BF-012-001-N.jpg","img/neutralC/CFD-WF-009-001-N.jpg","1","0","1","0","0","1","0.73274260002654","0.332721500017215","0.484609899984207","1","1","1","1","1","1","1","1","1"
"250016","img/neutralC/CFD-WF-009-001-N.jpg","img/neutralC/CFD-BM-030-003-N.jpg","img/neutralC/CFD-WM-025-002-N.jpg","1","1","0","1","0","0","0.484609899984207","0.73274260002654","1.51472969999304","1","1","1","1","1","1","1","1","1"
"250016","img/neutralC/CFD-WM-025-002-N.jpg","img/neutralC/CFD-WF-009-001-N.jpg","img/neutralC/CFD-LF-238-154-N.jpg","0","1","0","0","1","1","1.51472969999304","0.484609899984207","0.849368600000162","1","1","1","1","1","1","1","1","1"
"250016","img/neutralC/CFD-LF-238-154-N.jpg","img/neutralC/CFD-WM-025-002-N.jpg","img/neutralC/CFD-WF-207-014-N.jpg","0","0","1","1","0","1","0.849368600000162","1.51472969999304","0.818494600011036","1","1","1","1","1","1","1","1","1"
"250016","img/neutralC/CFD-WF-207-014-N.jpg","img/neutralC/CFD-LF-238-154-N.jpg","img/neutralC/CFD-LF-222-147-N.jpg","1","0","0","1","1","0","0.818494600011036","0.849368600000162","0.617220600019209","1","1","1","1","1","1","1","1","1"
"250016","img/neutralC/CFD-LF-222-147-N.jpg","img/neutralC/CFD-WF-207-014-N.jpg","img/neutralC/CFD-IM-697-015-N.jpg","0","1","1","0","1","1","0.617220600019209","0.818494600011036","0.85872219997691","1","1","1","1","1","1","1","1","1"
"250016","img/neutralC/CFD-IM-697-015-N.jpg","img/neutralC/CFD-LF-222-147-N.jpg","img/neutralC/CFD-AF-237-223-N.jpg","1","0","0","1","0","0","0.85872219997691","0.617220600019209","0.721526799956337","1","1","1","1","1","1","1","1","1"
"250016","img/neutralC/CFD-AF-237-223-N.jpg","img/neutralC/CFD-IM-697-015-N.jpg","img/neutralC/CFD-BM-009-002-N.jpg","0","1","1","0","1","1","0.721526799956337","0.85872219997691","0.52936350001255","1","1","1","1","1","1","1","1","1"
"250016","img/neutralC/CFD-BM-009-002-N.jpg","img/neutralC/CFD-AF-237-223-N.jpg","img/neutralC/CFD-AM-249-163-N.jpg","1","0","1","1","0","1","0.52936350001255","0.721526799956337","0.449750000028871","1","1","1","1","1","1","1","1","1"
"250016","img/neutralC/CFD-AM-249-163-N.jpg","img/neutralC/CFD-BM-009-002-N.jpg","img/neutralC/CFD-BM-227-191-N.jpg","1","1","1","1","1","1","0.449750000028871","0.52936350001255","0.477636800031178","1","1","1","1","1","1","1","1","1"
"250016","img/neutralC/CFD-BM-227-191-N.jpg","img/neutralC/CFD-AM-249-163-N.jpg","img/neutralC/CFD-MF-328-020-N.jpg","1","1","1","1","1","0","0.477636800031178","0.449750000028871","0.626412699988578","1","1","1","1","1","1","1","1","1"
"250016","img/neutralC/CFD-MF-328-020-N.jpg","img/neutralC/CFD-BM-227-191-N.jpg","img/neutralC/CFD-BM-020-001-N.jpg","1","1","0","0","1","0","0.626412699988578","0.477636800031178","0.591068400011864","1","1","1","1","1","1","1","1","1"
"250016","img/neutralC/CFD-BM-020-001-N.jpg","img/neutralC/CFD-MF-328-020-N.jpg","img/neutralC/CFD-IM-689-263-N.jpg","0","1","1","0","0","1","0.591068400011864","0.626412699988578","0.593866100010928","1","1","1","1","1","1","1","1","1"
"250016","img/neutralC/CFD-IM-689-263-N.jpg","img/neutralC/CFD-BM-020-001-N.jpg",NA,"1","0",NA,"1","0",NA,"0.593866100010928","0.591068400011864",NA,"1","1",NA,"1","1",NA,"1","1",NA
"250016","img/neutralC/CFD-IM-627-178-N.jpg",NA,"img/neutralC/CFD-WF-226-095-N.jpg","1",NA,"1","1",NA,"1","0.523538599954918",NA,"0.425838799972553","1",NA,"1","1",NA,"1","1",NA,"1"
"250016","img/neutralC/CFD-WF-226-095-N.jpg","img/neutralC/CFD-IM-627-178-N.jpg","img/neutralC/CFD-MF-342-022-N.jpg","1","1","1","1","1","1","0.425838799972553","0.523538599954918","0.498825100017712","1","1","1","1","1","1","1","1","1"
"250016","img/neutralC/CFD-MF-342-022-N.jpg","img/neutralC/CFD-WF-226-095-N.jpg","img/neutralC/CFD-AF-221-147-N.jpg","1","1","1","1","1","0","0.498825100017712","0.425838799972553","0.632410299964249","1","1","1","1","1","1","1","1","1"
"250016","img/neutralC/CFD-AF-221-147-N.jpg","img/neutralC/CFD-MF-342-022-N.jpg","img/neutralC/CFD-IM-719-221-N.jpg","1","1","0","0","1","0","0.632410299964249","0.498825100017712","0.472359900013544","1","1","1","1","1","1","1","1","1"
"250016","img/neutralC/CFD-IM-719-221-N.jpg","img/neutralC/CFD-AF-221-147-N.jpg","img/neutralC/CFD-IM-700-009-N.jpg","0","1","1","0","0","1","0.472359900013544","0.632410299964249","0.476391700038221","1","1","1","1","1","1","1","1","1"
"250016","img/neutralC/CFD-IM-700-009-N.jpg","img/neutralC/CFD-IM-719-221-N.jpg","img/neutralC/CFD-WM-255-219-N.jpg","1","0","1","1","0","0","0.476391700038221","0.472359900013544","0.526954600005411","1","1","1","1","1","1","1","1","1"
"250016","img/neutralC/CFD-WM-255-219-N.jpg","img/neutralC/CFD-IM-700-009-N.jpg","img/neutralC/CFD-WM-009-002-N.jpg","1","1","1","0","1","0","0.526954600005411","0.476391700038221","0.501713400008157","1","1","1","1","1","1","1","1","1"
"250016","img/neutralC/CFD-WM-009-002-N.jpg","img/neutralC/CFD-WM-255-219-N.jpg","img/neutralC/CFD-BF-018-039-N.jpg","1","1","1","0","0","1","0.501713400008157","0.526954600005411","0.452555499970913","1","1","1","1","1","1","1","1","1"
"250016","img/neutralC/CFD-BF-018-039-N.jpg","img/neutralC/CFD-WM-009-002-N.jpg","img/neutralC/CFD-MF-318-022-N.jpg","1","1","1","1","0","1","0.452555499970913","0.501713400008157","0.739111300033983","1","1","1","1","1","1","1","1","1"
"250016","img/neutralC/CFD-MF-318-022-N.jpg","img/neutralC/CFD-BF-018-039-N.jpg","img/neutralC/CFD-LF-215-157-N.jpg","1","1","0","1","1","0","0.739111300033983","0.452555499970913","0.475663300021552","1","1","1","1","1","1","1","1","1"
"250016","img/neutralC/CFD-LF-215-157-N.jpg","img/neutralC/CFD-MF-318-022-N.jpg","img/neutralC/CFD-MF-321-003-N.jpg","0","1","1","0","1","0","0.475663300021552","0.739111300033983","0.7402102999622","1","1","1","1","1","1","1","1","1"
"250016","img/neutralC/CFD-MF-321-003-N.jpg","img/neutralC/CFD-LF-215-157-N.jpg","img/neutralC/CFD-MM-321-021-N.jpg","1","0","1","0","0","0","0.7402102999622","0.475663300021552","0.510859500034712","1","1","1","1","1","1","1","1","1"
"250016","img/neutralC/CFD-MM-321-021-N.jpg","img/neutralC/CFD-MF-321-003-N.jpg","img/neutralC/CFD-WM-237-052-N.jpg","1","1","1","0","0","1","0.510859500034712","0.7402102999622","0.460585299995728","1","1","1","1","1","1","1","1","1"
"250016","img/neutralC/CFD-WM-237-052-N.jpg","img/neutralC/CFD-MM-321-021-N.jpg","img/neutralC/CFD-WF-238-023-N.jpg","1","1","1","1","0","0","0.460585299995728","0.510859500034712","0.535185599990655","1","1","1","1","1","1","1","1","1"
"250016","img/neutralC/CFD-WF-238-023-N.jpg","img/neutralC/CFD-WM-237-052-N.jpg","img/neutralC/CFD-WF-018-017-N.jpg","1","1","1","0","1","1","0.535185599990655","0.460585299995728","0.545048500003759","1","1","1","1","1","1","1","1","1"
"250016","img/neutralC/CFD-WF-018-017-N.jpg","img/neutralC/CFD-WF-238-023-N.jpg","img/neutralC/CFD-BM-204-003-N.jpg","1","1","1","1","0","0","0.545048500003759","0.535185599990655","0.521233300038148","1","1","1","1","1","1","1","1","1"
"250016","img/neutralC/CFD-BM-204-003-N.jpg","img/neutralC/CFD-WF-018-017-N.jpg","img/neutralC/CFD-BF-218-207-N.jpg","1","1","1","0","1","1","0.521233300038148","0.545048500003759","0.459206199971959","1","1","1","1","1","1","1","1","1"
"250016","img/neutralC/CFD-BF-218-207-N.jpg","img/neutralC/CFD-BM-204-003-N.jpg","img/neutralC/CFD-BF-254-201-N.jpg","1","1","1","1","0","0","0.459206199971959","0.521233300038148","0.539934300002642","1","1","1","1","1","1","1","1","1"
"250016","img/neutralC/CFD-BF-254-201-N.jpg","img/neutralC/CFD-BF-218-207-N.jpg","img/neutralC/CFD-BM-200-046-N.jpg","1","1","1","0","1","0","0.539934300002642","0.459206199971959","0.482106900017243","1","1","1","1","1","1","1","1","1"
"250016","img/neutralC/CFD-BM-200-046-N.jpg","img/neutralC/CFD-BF-254-201-N.jpg","img/neutralC/CFD-WM-013-001-N.jpg","1","1","1","0","0","1","0.482106900017243","0.539934300002642","0.487496700021438","1","1","1","1","1","1","1","1","1"
"250016","img/neutralC/CFD-WM-013-001-N.jpg","img/neutralC/CFD-BM-200-046-N.jpg","img/neutralC/CFD-WF-023-003-N.jpg","1","1","1","1","0","1","0.487496700021438","0.482106900017243","0.392319699982181","1","1","1","1","1","1","1","1","1"
"250016","img/neutralC/CFD-WF-023-003-N.jpg","img/neutralC/CFD-WM-013-001-N.jpg","img/neutralC/CFD-BM-023-029-N.jpg","1","1","1","1","1","1","0.392319699982181","0.487496700021438","0.411951399990358","1","1","1","1","1","1","1","1","1"
"250016","img/neutralC/CFD-BM-023-029-N.jpg","img/neutralC/CFD-WF-023-003-N.jpg","img/neutralC/CFD-IF-629-234-N.jpg","1","1","0","1","1","0","0.411951399990358","0.392319699982181","0.711979700019583","1","1","1","1","1","1","1","1","1"
"250016","img/neutralC/CFD-IF-629-234-N.jpg","img/neutralC/CFD-BM-023-029-N.jpg","img/neutralC/CFD-AM-244-222-N.jpg","0","1","1","0","1","0","0.711979700019583","0.411951399990358","0.67593070003204","1","1","1","1","1","1","1","1","1"
"250016","img/neutralC/CFD-AM-244-222-N.jpg","img/neutralC/CFD-IF-629-234-N.jpg","img/neutralC/CFD-LF-211-003-N.jpg","1","0","1","0","0","0","0.67593070003204","0.711979700019583","0.639929500001017","1","1","1","1","1","1","1","1","1"
"250016","img/neutralC/CFD-LF-211-003-N.jpg","img/neutralC/CFD-AM-244-222-N.jpg","img/neutralC/CFD-WF-027-003-N.jpg","1","1","1","0","0","1","0.639929500001017","0.67593070003204","0.566056800016668","1","1","1","1","1","1","1","1","1"
"250016","img/neutralC/CFD-WF-027-003-N.jpg","img/neutralC/CFD-LF-211-003-N.jpg","img/neutralC/CFD-WM-201-063-N.jpg","1","1","1","1","0","1","0.566056800016668","0.639929500001017","0.385157099983189","1","1","1","1","1","1","1","1","1"
"250016","img/neutralC/CFD-WM-201-063-N.jpg","img/neutralC/CFD-WF-027-003-N.jpg","img/neutralC/CFD-LM-253-075-N.jpg","1","1","0","1","1","0","0.385157099983189","0.566056800016668","0.553778600005899","1","1","1","1","1","1","1","1","1"
"250016","img/neutralC/CFD-LM-253-075-N.jpg","img/neutralC/CFD-WM-201-063-N.jpg","img/neutralC/CFD-WM-221-091-N.jpg","0","1","1","0","1","0","0.553778600005899","0.385157099983189","1.05510130000766","1","1","1","1","1","1","1","1","1"
"250016","img/neutralC/CFD-WM-221-091-N.jpg","img/neutralC/CFD-LM-253-075-N.jpg","img/neutralC/CFD-WF-245-084-N.jpg","1","0","1","0","0","1","1.05510130000766","0.553778600005899","0.485306499991566","1","1","1","1","1","1","1","1","1"
"250016","img/neutralC/CFD-WF-245-084-N.jpg","img/neutralC/CFD-WM-221-091-N.jpg","img/neutralC/CFD-AF-232-078-N.jpg","1","1","1","1","0","1","0.485306499991566","1.05510130000766","0.445166099991184","1","1","1","1","1","1","1","1","1"
"250016","img/neutralC/CFD-AF-232-078-N.jpg","img/neutralC/CFD-WF-245-084-N.jpg",NA,"1","1",NA,"1","1",NA,"0.445166099991184","0.485306499991566",NA,"1","1",NA,"1","1",NA,"1","1",NA
"250016","img/neutralC/CFD-WM-002-009-N.jpg",NA,"img/neutralC/CFD-WM-040-022-N.jpg","0",NA,"0","0",NA,"0","0.80159609997645",NA,"0.887414199998602","1",NA,"1","1",NA,"1","1",NA,"1"
"250016","img/neutralC/CFD-WM-040-022-N.jpg","img/neutralC/CFD-WM-002-009-N.jpg","img/neutralC/CFD-BF-204-189-N.jpg","0","0","0","0","0","1","0.887414199998602","0.80159609997645","0.622129299968947","1","1","1","1","1","1","1","1","1"
"250016","img/neutralC/CFD-BF-204-189-N.jpg","img/neutralC/CFD-WM-040-022-N.jpg","img/neutralC/CFD-WF-022-017-N.jpg","0","0","1","1","0","0","0.622129299968947","0.887414199998602","1.22182820003945","1","1","1","1","1","1","1","1","1"
"250016","img/neutralC/CFD-WF-022-017-N.jpg","img/neutralC/CFD-BF-204-189-N.jpg","img/neutralC/CFD-BM-247-240-N.jpg","1","0","0","0","1","0","1.22182820003945","0.622129299968947","0.453588599979412","1","1","1","1","1","1","1","1","1"
"250016","img/neutralC/CFD-BM-247-240-N.jpg","img/neutralC/CFD-WF-022-017-N.jpg","img/neutralC/CFD-AM-235-241-N.jpg","0","1","1","0","0","0","0.453588599979412","1.22182820003945","0.42342310003005","1","1","1","1","1","1","1","1","1"
"250016","img/neutralC/CFD-AM-235-241-N.jpg","img/neutralC/CFD-BM-247-240-N.jpg","img/neutralC/CFD-WF-026-002-N.jpg","1","0","1","0","0","1","0.42342310003005","0.453588599979412","0.505462100030854","1","1","1","1","1","1","1","1","1"
"250016","img/neutralC/CFD-WF-026-002-N.jpg","img/neutralC/CFD-AM-235-241-N.jpg","img/neutralC/CFD-BM-029-024-N.jpg","1","1","1","1","0","1","0.505462100030854","0.42342310003005","0.466184300021268","1","1","1","1","1","1","1","1","1"
"250016","img/neutralC/CFD-BM-029-024-N.jpg","img/neutralC/CFD-WF-026-002-N.jpg","img/neutralC/CFD-BM-211-174-N.jpg","1","1","0","1","1","0","0.466184300021268","0.505462100030854","0.503646199998911","1","1","1","1","1","1","1","1","1"
"250016","img/neutralC/CFD-BM-211-174-N.jpg","img/neutralC/CFD-BM-029-024-N.jpg","img/neutralC/CFD-LF-236-221-N.jpg","0","1","1","0","1","1","0.503646199998911","0.466184300021268","0.466292799974326","1","1","1","1","1","1","1","1","1"
"250016","img/neutralC/CFD-LF-236-221-N.jpg","img/neutralC/CFD-BM-211-174-N.jpg","img/neutralC/CFD-BF-023-010-N.jpg","1","0","1","1","0","1","0.466292799974326","0.503646199998911","0.619302299979609","1","1","1","1","1","1","1","1","1"
"250016","img/neutralC/CFD-BF-023-010-N.jpg","img/neutralC/CFD-LF-236-221-N.jpg","img/neutralC/CFD-LF-216-121-N.jpg","1","1","1","1","1","1","0.619302299979609","0.466292799974326","0.44105090002995","1","1","1","1","1","1","1","1","1"
"250016","img/neutralC/CFD-LF-216-121-N.jpg","img/neutralC/CFD-BF-023-010-N.jpg","img/neutralC/CFD-BF-201-080-N.jpg","1","1","1","1","1","1","0.44105090002995","0.619302299979609","0.445165799988899","1","1","1","1","1","1","1","1","1"
"250016","img/neutralC/CFD-BF-201-080-N.jpg","img/neutralC/CFD-LF-216-121-N.jpg","img/neutralC/CFD-IF-672-305-N.jpg","1","1","1","1","1","0","0.445165799988899","0.44105090002995","0.530083200021181","1","1","1","1","1","1","1","1","1"
"250016","img/neutralC/CFD-IF-672-305-N.jpg","img/neutralC/CFD-BF-201-080-N.jpg","img/neutralC/CFD-WM-225-127-N.jpg","1","1","1","0","1","0","0.530083200021181","0.445165799988899","0.752225700009149","1","1","1","1","1","1","1","1","1"
"250016","img/neutralC/CFD-WM-225-127-N.jpg","img/neutralC/CFD-IF-672-305-N.jpg","img/neutralC/CFD-IM-728-041-N.jpg","1","1","1","0","0","0","0.752225700009149","0.530083200021181","0.583657300041523","1","1","1","1","1","1","1","1","1"
"250016","img/neutralC/CFD-IM-728-041-N.jpg","img/neutralC/CFD-WM-225-127-N.jpg","img/neutralC/CFD-IM-639-263-N.jpg","1","1","1","0","0","1","0.583657300041523","0.752225700009149","0.529550899984315","1","1","1","1","1","1","1","1","1"
"250016","img/neutralC/CFD-IM-639-263-N.jpg","img/neutralC/CFD-IM-728-041-N.jpg","img/neutralC/CFD-WF-002-004-N.jpg","1","1","0","1","0","0","0.529550899984315","0.583657300041523","0.569141999993008","1","1","1","1","1","1","1","1","1"
"250016","img/neutralC/CFD-WF-002-004-N.jpg","img/neutralC/CFD-IM-639-263-N.jpg","img/neutralC/CFD-LM-252-076-N.jpg","0","1","1","0","1","1","0.569141999993008","0.529550899984315","0.475542499974836","1","1","1","1","1","1","1","1","1"
"250016","img/neutralC/CFD-LM-252-076-N.jpg","img/neutralC/CFD-WF-002-004-N.jpg","img/neutralC/CFD-AM-215-120-N.jpg","1","0","1","1","0","1","0.475542499974836","0.569141999993008","0.530450500024017","1","1","1","1","1","1","1","1","1"
"250016","img/neutralC/CFD-AM-215-120-N.jpg","img/neutralC/CFD-LM-252-076-N.jpg","img/neutralC/CFD-IM-674-281-N.jpg","1","1","1","1","1","1","0.530450500024017","0.475542499974836","0.462412399996538","1","1","1","1","1","1","1","1","1"
"250016","img/neutralC/CFD-IM-674-281-N.jpg","img/neutralC/CFD-AM-215-120-N.jpg","img/neutralC/CFD-AM-217-085-N.jpg","1","1","1","1","1","0","0.462412399996538","0.530450500024017","0.769038999977056","1","1","1","1","1","1","1","1","1"
"250016","img/neutralC/CFD-AM-217-085-N.jpg","img/neutralC/CFD-IM-674-281-N.jpg","img/neutralC/CFD-BM-015-015-N.jpg","1","1","1","0","1","0","0.769038999977056","0.462412399996538","1.58002490003128","1","1","1","1","1","1","1","1","1"
"250016","img/neutralC/CFD-BM-015-015-N.jpg","img/neutralC/CFD-AM-217-085-N.jpg","img/neutralC/CFD-BF-003-003-N.jpg","1","1","1","0","0","0","1.58002490003128","0.769038999977056","0.464815999963321","1","1","1","1","1","1","1","1","1"
"250016","img/neutralC/CFD-BF-003-003-N.jpg","img/neutralC/CFD-BM-015-015-N.jpg","img/neutralC/CFD-WM-257-161-N.jpg","1","1","1","0","0","1","0.464815999963321","1.58002490003128","0.505201300024055","1","1","1","1","1","1","1","1","1"
"250016","img/neutralC/CFD-WM-257-161-N.jpg","img/neutralC/CFD-BF-003-003-N.jpg","img/neutralC/CFD-WM-038-003-N.jpg","1","1","1","1","0","0","0.505201300024055","0.464815999963321","0.61830580001697","1","1","1","1","1","1","1","1","1"
"250016","img/neutralC/CFD-WM-038-003-N.jpg","img/neutralC/CFD-WM-257-161-N.jpg","img/neutralC/CFD-MM-319-052-N.jpg","1","1","1","0","1","1","0.61830580001697","0.505201300024055","0.437128200021107","1","1","1","1","1","1","1","1","1"
"250016","img/neutralC/CFD-MM-319-052-N.jpg","img/neutralC/CFD-WM-038-003-N.jpg","img/neutralC/CFD-IF-718-001-N.jpg","1","1","1","1","0","1","0.437128200021107","0.61830580001697","1.10353280004347","1","1","1","1","1","1","1","1","1"
"250016","img/neutralC/CFD-IF-718-001-N.jpg","img/neutralC/CFD-MM-319-052-N.jpg","img/neutralC/CFD-BM-027-001-N.jpg","1","1","1","1","1","0","1.10353280004347","0.437128200021107","0.586156199977268","1","1","1","1","1","1","1","1","1"
"250016","img/neutralC/CFD-BM-027-001-N.jpg","img/neutralC/CFD-IF-718-001-N.jpg","img/neutralC/CFD-BF-255-140-N.jpg","1","1","1","0","1","1","0.586156199977268","1.10353280004347","0.443203900009394","1","1","1","1","1","1","1","1","1"
"250016","img/neutralC/CFD-BF-255-140-N.jpg","img/neutralC/CFD-BM-027-001-N.jpg","img/neutralC/CFD-BF-208-266-N.jpg","1","1","1","1","0","0","0.443203900009394","0.586156199977268","0.375809599994682","1","1","1","1","1","1","1","1","1"
"250016","img/neutralC/CFD-BF-208-266-N.jpg","img/neutralC/CFD-BF-255-140-N.jpg","img/neutralC/CFD-BF-028-001-N.jpg","1","1","1","0","1","1","0.375809599994682","0.443203900009394","0.601216699986253","1","1","1","1","1","1","1","1","1"
"250016","img/neutralC/CFD-BF-028-001-N.jpg","img/neutralC/CFD-BF-208-266-N.jpg",NA,"1","1",NA,"1","0",NA,"0.601216699986253","0.375809599994682",NA,"1","1",NA,"1","1",NA,"1","1",NA
"250016","img/neutralC/CFD-AF-244-168-N.jpg",NA,"img/neutralC/CFD-AF-250-200-N.jpg","0",NA,"1","0",NA,"1","0.431012300017755",NA,"0.402729299967177","1",NA,"1","1",NA,"1","1",NA,"1"
"250016","img/neutralC/CFD-AF-250-200-N.jpg","img/neutralC/CFD-AF-244-168-N.jpg","img/neutralC/CFD-AF-205-155-N.jpg","1","0","0","1","0","0","0.402729299967177","0.431012300017755","0.458543899992947","1","1","1","1","1","1","1","1","1"
"250016","img/neutralC/CFD-AF-205-155-N.jpg","img/neutralC/CFD-AF-250-200-N.jpg","img/neutralC/CFD-AM-225-102-N.jpg","0","1","0","0","1","0","0.458543899992947","0.402729299967177","0.384287900000345","1","1","1","1","1","1","1","1","1"
"250016","img/neutralC/CFD-AM-225-102-N.jpg","img/neutralC/CFD-AF-205-155-N.jpg","img/neutralC/CFD-BF-206-143-N.jpg","0","0","1","0","0","1","0.384287900000345","0.458543899992947","0.433545600040816","1","1","1","1","1","1","1","1","1"
"250016","img/neutralC/CFD-BF-206-143-N.jpg","img/neutralC/CFD-AM-225-102-N.jpg","img/neutralC/CFD-AF-213-126-N.jpg","1","0","1","1","0","1","0.433545600040816","0.384287900000345","0.509400899987668","1","1","1","1","1","1","1","1","1"
"250016","img/neutralC/CFD-AF-213-126-N.jpg","img/neutralC/CFD-BF-206-143-N.jpg","img/neutralC/CFD-WM-018-002-N.jpg","1","1","1","1","1","0","0.509400899987668","0.433545600040816","0.611016199982259","1","1","1","1","1","1","1","1","1"
"250016","img/neutralC/CFD-WM-018-002-N.jpg","img/neutralC/CFD-AF-213-126-N.jpg","img/neutralC/CFD-IF-636-011-N.jpg","1","1","1","0","1","1","0.611016199982259","0.509400899987668","0.530071099987254","1","1","1","1","1","1","1","1","1"
"250016","img/neutralC/CFD-IF-636-011-N.jpg","img/neutralC/CFD-WM-018-002-N.jpg","img/neutralC/CFD-AF-246-242-N.jpg","1","1","0","1","0","0","0.530071099987254","0.611016199982259","0.241137599979993","1","1","1","1","1","1","1","1","1"
"250016","img/neutralC/CFD-AF-246-242-N.jpg","img/neutralC/CFD-IF-636-011-N.jpg","img/neutralC/CFD-WM-253-119-N.jpg","0","1","1","0","1","1","0.241137599979993","0.530071099987254","0.556387899967376","1","1","1","1","1","1","1","1","1"
"250016","img/neutralC/CFD-WM-253-119-N.jpg","img/neutralC/CFD-AF-246-242-N.jpg","img/neutralC/CFD-BF-040-003-N.jpg","1","0","1","1","0","1","0.556387899967376","0.241137599979993","0.510163500031922","1","1","1","1","1","1","1","1","1"
"250016","img/neutralC/CFD-BF-040-003-N.jpg","img/neutralC/CFD-WM-253-119-N.jpg","img/neutralC/CFD-AM-245-111-N.jpg","1","1","1","1","1","1","0.510163500031922","0.556387899967376","0.446371300029568","1","1","1","1","1","1","1","1","1"
"250016","img/neutralC/CFD-AM-245-111-N.jpg","img/neutralC/CFD-BF-040-003-N.jpg","img/neutralC/CFD-AF-234-208-N.jpg","1","1","0","1","1","1","0.446371300029568","0.510163500031922","0.403593300026842","1","1","1","1","1","1","1","1","1"
"250016","img/neutralC/CFD-AF-234-208-N.jpg","img/neutralC/CFD-AM-245-111-N.jpg","img/neutralC/CFD-IM-669-111-N.jpg","0","1","0","1","1","1","0.403593300026842","0.446371300029568","0.315971300005913","1","1","1","1","1","1","1","1","1"
"250016","img/neutralC/CFD-IM-669-111-N.jpg","img/neutralC/CFD-AF-234-208-N.jpg","img/neutralC/CFD-BM-004-002-N.jpg","0","0","0","1","1","0","0.315971300005913","0.403593300026842","0.332633199985139","1","1","1","1","1","1","1","1","1"
"250016","img/neutralC/CFD-BM-004-002-N.jpg","img/neutralC/CFD-IM-669-111-N.jpg","img/neutralC/CFD-IM-632-097-N.jpg","0","0","1","0","1","0","0.332633199985139","0.315971300005913","1.09006659995066","1","1","1","1","1","1","1","1","1"
"250016","img/neutralC/CFD-IM-632-097-N.jpg","img/neutralC/CFD-BM-004-002-N.jpg","img/neutralC/CFD-AM-233-236-N.jpg","1","0","1","0","0","1","1.09006659995066","0.332633199985139","0.517391400004271","1","1","1","1","1","1","1","1","1"
"250016","img/neutralC/CFD-AM-233-236-N.jpg","img/neutralC/CFD-IM-632-097-N.jpg","img/neutralC/CFD-MF-302-027-N.jpg","1","1","1","1","0","0","0.517391400004271","1.09006659995066","0.714523100003134","1","1","1","1","1","1","1","1","1"
"250016","img/neutralC/CFD-MF-302-027-N.jpg","img/neutralC/CFD-AM-233-236-N.jpg","img/neutralC/CFD-BF-235-168-N.jpg","1","1","1","0","1","1","0.714523100003134","0.517391400004271","0.354436800000258","1","1","1","1","1","1","1","1","1"
"250016","img/neutralC/CFD-BF-235-168-N.jpg","img/neutralC/CFD-MF-302-027-N.jpg","img/neutralC/CFD-WF-235-121-N.jpg","1","1","1","1","0","0","0.354436800000258","0.714523100003134","1.29453319997992","1","1","1","1","1","1","1","1","1"
"250016","img/neutralC/CFD-WF-235-121-N.jpg","img/neutralC/CFD-BF-235-168-N.jpg","img/neutralC/CFD-IM-635-010-N.jpg","1","1","1","0","1","1","1.29453319997992","0.354436800000258","0.734952299972065","1","1","1","1","1","1","1","1","1"
"250016","img/neutralC/CFD-IM-635-010-N.jpg","img/neutralC/CFD-WF-235-121-N.jpg","img/neutralC/CFD-MF-307-002-N.jpg","1","1","0","1","0","1","0.734952299972065","1.29453319997992","1.05697209999198","1","1","1","1","1","1","1","1","1"
"250016","img/neutralC/CFD-MF-307-002-N.jpg","img/neutralC/CFD-IM-635-010-N.jpg","img/neutralC/CFD-BM-215-155-N.jpg","0","1","1","1","1","0","1.05697209999198","0.734952299972065","0.433735999977216","1","1","1","1","1","1","1","1","1"
"250016","img/neutralC/CFD-BM-215-155-N.jpg","img/neutralC/CFD-MF-307-002-N.jpg","img/neutralC/CFD-LM-241-125-N.jpg","1","0","1","0","1","1","0.433735999977216","1.05697209999198","0.39238109998405","1","1","1","1","1","1","1","1","1"
"250016","img/neutralC/CFD-LM-241-125-N.jpg","img/neutralC/CFD-BM-215-155-N.jpg","img/neutralC/CFD-LM-204-001-N.jpg","1","1","0","1","0","0","0.39238109998405","0.433735999977216","1.43114170001354","1","1","1","1","1","1","1","1","1"
"250016","img/neutralC/CFD-LM-204-001-N.jpg","img/neutralC/CFD-LM-241-125-N.jpg","img/neutralC/CFD-IF-732-260-N.jpg","0","1","1","0","1","0","1.43114170001354","0.39238109998405","1.66701340000145","1","1","1","1","1","1","1","1","1"
"250016","img/neutralC/CFD-IF-732-260-N.jpg","img/neutralC/CFD-LM-204-001-N.jpg","img/neutralC/CFD-WF-210-086-N.jpg","1","0","1","0","0","0","1.66701340000145","1.43114170001354","0.687713699997403","1","1","1","1","1","1","1","1","1"
"250016","img/neutralC/CFD-WF-210-086-N.jpg","img/neutralC/CFD-IF-732-260-N.jpg","img/neutralC/CFD-LF-239-148-N.jpg","1","1","1","0","0","0","0.687713699997403","1.66701340000145","0.556010800006334","1","1","1","1","1","1","1","1","1"
"250016","img/neutralC/CFD-LF-239-148-N.jpg","img/neutralC/CFD-WF-210-086-N.jpg","img/neutralC/CFD-IM-678-482-N.jpg","1","1","1","0","0","0","0.556010800006334","0.687713699997403","1.38044529996114","1","1","1","1","1","1","1","1","1"
"250016","img/neutralC/CFD-IM-678-482-N.jpg","img/neutralC/CFD-LF-239-148-N.jpg","img/neutralC/CFD-BF-042-026-N.jpg","1","1","1","0","0","1","1.38044529996114","0.556010800006334","0.389683500048705","1","1","1","1","1","1","1","1","1"
"250016","img/neutralC/CFD-BF-042-026-N.jpg","img/neutralC/CFD-IM-678-482-N.jpg","img/neutralC/CFD-BF-020-002-N.jpg","1","1","1","1","0","1","0.389683500048705","1.38044529996114","0.466338599973824","1","1","1","1","1","1","1","1","1"
"250016","img/neutralC/CFD-BF-020-002-N.jpg","img/neutralC/CFD-BF-042-026-N.jpg","img/neutralC/CFD-BF-217-189-N.jpg","1","1","1","1","1","0","0.466338599973824","0.389683500048705","0.765130500018131","1","1","1","1","1","1","1","1","1"
"250016","img/neutralC/CFD-BF-217-189-N.jpg","img/neutralC/CFD-BF-020-002-N.jpg",NA,"1","1",NA,"0","1",NA,"0.765130500018131","0.466338599973824",NA,"1","1",NA,"1","1",NA,"1","1",NA
"250016","img/neutralC/CFD-WM-004-010-N.jpg",NA,"img/neutralC/CFD-IF-650-315-N.jpg","0",NA,"1","0",NA,"0","1.30788570002187",NA,"0.657889000023715","1",NA,"1","1",NA,"1","1",NA,"1"
"250016","img/neutralC/CFD-IF-650-315-N.jpg","img/neutralC/CFD-WM-004-010-N.jpg","img/neutralC/CFD-WF-214-122-N.jpg","1","0","1","0","0","1","0.657889000023715","1.30788570002187","0.483322400017641","1","1","1","1","1","1","1","1","1"
"250016","img/neutralC/CFD-WF-214-122-N.jpg","img/neutralC/CFD-IF-650-315-N.jpg","img/neutralC/CFD-LF-218-072-N.jpg","1","1","0","1","0","0","0.483322400017641","0.657889000023715","0.297668200044427","1","1","1","1","1","1","1","1","1"
"250016","img/neutralC/CFD-LF-218-072-N.jpg","img/neutralC/CFD-WF-214-122-N.jpg","img/neutralC/CFD-WM-020-001-N.jpg","0","1","1","0","1","1","0.297668200044427","0.483322400017641","0.912304400000721","1","1","1","1","1","1","1","1","1"
"250016","img/neutralC/CFD-WM-020-001-N.jpg","img/neutralC/CFD-LF-218-072-N.jpg","img/neutralC/CFD-AM-251-124-N.jpg","1","0","1","1","0","0","0.912304400000721","0.297668200044427","0.556883300014306","1","1","1","1","1","1","1","1","1"
"250016","img/neutralC/CFD-AM-251-124-N.jpg","img/neutralC/CFD-WM-020-001-N.jpg","img/neutralC/CFD-MF-333-012-N.jpg","1","1","1","0","1","0","0.556883300014306","0.912304400000721","0.676006699970458","1","1","1","1","1","1","1","1","1"
"250016","img/neutralC/CFD-MF-333-012-N.jpg","img/neutralC/CFD-AM-251-124-N.jpg","img/neutralC/CFD-WF-200-099-N.jpg","1","1","1","0","0","0","0.676006699970458","0.556883300014306","0.634227300004568","1","1","1","1","1","1","1","1","1"
"250016","img/neutralC/CFD-WF-200-099-N.jpg","img/neutralC/CFD-MF-333-012-N.jpg","img/neutralC/CFD-WF-001-003-N.jpg","1","1","1","0","0","1","0.634227300004568","0.676006699970458","0.463843300007284","1","1","1","1","1","1","1","1","1"
"250016","img/neutralC/CFD-WF-001-003-N.jpg","img/neutralC/CFD-WF-200-099-N.jpg","img/neutralC/CFD-LF-220-120-N.jpg","1","1","1","1","0","1","0.463843300007284","0.634227300004568","0.424059899989516","1","1","1","1","1","1","1","1","1"
"250016","img/neutralC/CFD-LF-220-120-N.jpg","img/neutralC/CFD-WF-001-003-N.jpg","img/neutralC/CFD-WM-033-025-N.jpg","1","1","1","1","1","1","0.424059899989516","0.463843300007284","0.768245999992359","1","1","1","1","1","1","1","1","1"
"250016","img/neutralC/CFD-WM-033-025-N.jpg","img/neutralC/CFD-LF-220-120-N.jpg","img/neutralC/CFD-IM-743-006-N.jpg","1","1","1","1","1","1","0.768245999992359","0.424059899989516","0.474433300027158","1","1","1","1","1","1","1","1","1"
"250016","img/neutralC/CFD-IM-743-006-N.jpg","img/neutralC/CFD-WM-033-025-N.jpg","img/neutralC/CFD-BF-232-187-N.jpg","1","1","1","1","1","1","0.474433300027158","0.768245999992359","0.463561100012157","1","1","1","1","1","1","1","1","1"
"250016","img/neutralC/CFD-BF-232-187-N.jpg","img/neutralC/CFD-IM-743-006-N.jpg","img/neutralC/CFD-BF-038-037-N.jpg","1","1","1","1","1","1","0.463561100012157","0.474433300027158","0.61729840002954","1","1","1","1","1","1","1","1","1"
"250016","img/neutralC/CFD-BF-038-037-N.jpg","img/neutralC/CFD-BF-232-187-N.jpg","img/neutralC/CFD-IM-616-214-N.jpg","1","1","0","1","1","0","0.61729840002954","0.463561100012157","0.514389800024219","1","1","1","1","1","1","1","1","1"
"250016","img/neutralC/CFD-IM-616-214-N.jpg","img/neutralC/CFD-BF-038-037-N.jpg","img/neutralC/CFD-WM-235-147-N.jpg","0","1","1","0","1","0","0.514389800024219","0.61729840002954","0.80877890001284","1","1","1","1","1","1","1","1","1"
"250016","img/neutralC/CFD-WM-235-147-N.jpg","img/neutralC/CFD-IM-616-214-N.jpg","img/neutralC/CFD-LM-237-264-N.jpg","1","0","1","0","0","0","0.80877890001284","0.514389800024219","0.625609199982136","1","1","1","1","1","1","1","1","1"
"250016","img/neutralC/CFD-LM-237-264-N.jpg","img/neutralC/CFD-WM-235-147-N.jpg","img/neutralC/CFD-WM-219-008-N.jpg","1","1","1","0","0","0","0.625609199982136","0.80877890001284","0.648524699965492","1","1","1","1","1","1","1","1","1"
"250016","img/neutralC/CFD-WM-219-008-N.jpg","img/neutralC/CFD-LM-237-264-N.jpg","img/neutralC/CFD-BF-229-179-N.jpg","1","1","0","0","0","0","0.648524699965492","0.625609199982136","1.04767790000187","1","1","1","1","1","1","1","1","1"
"250016","img/neutralC/CFD-BF-229-179-N.jpg","img/neutralC/CFD-WM-219-008-N.jpg","img/neutralC/CFD-WF-036-023-N.jpg","0","1","1","0","0","0","1.04767790000187","0.648524699965492","0.626746499969158","1","1","1","1","1","1","1","1","1"
"250016","img/neutralC/CFD-WF-036-023-N.jpg","img/neutralC/CFD-BF-229-179-N.jpg","img/neutralC/CFD-AM-242-176-N.jpg","1","0","1","0","0","1","0.626746499969158","1.04767790000187","2.06205339997541","1","1","1","1","1","1","1","1","1"
"250016","img/neutralC/CFD-AM-242-176-N.jpg","img/neutralC/CFD-WF-036-023-N.jpg","img/neutralC/CFD-BF-226-119-N.jpg","1","1","1","1","0","1","2.06205339997541","0.626746499969158","0.443184499978088","1","1","1","1","1","1","1","1","1"
"250016","img/neutralC/CFD-BF-226-119-N.jpg","img/neutralC/CFD-AM-242-176-N.jpg","img/neutralC/CFD-IF-623-129-N.jpg","1","1","1","1","1","1","0.443184499978088","2.06205339997541","0.44835520000197","1","1","1","1","1","1","1","1","1"
"250016","img/neutralC/CFD-IF-623-129-N.jpg","img/neutralC/CFD-BF-226-119-N.jpg","img/neutralC/CFD-BM-225-154-N.jpg","1","1","1","1","1","1","0.44835520000197","0.443184499978088","0.473428800003603","1","1","1","1","1","1","1","1","1"
"250016","img/neutralC/CFD-BM-225-154-N.jpg","img/neutralC/CFD-IF-623-129-N.jpg","img/neutralC/CFD-MF-352-054-N.jpg","1","1","1","1","1","0","0.473428800003603","0.44835520000197","2.73974479996832","1","1","1","1","1","1","1","1","1"
"250016","img/neutralC/CFD-MF-352-054-N.jpg","img/neutralC/CFD-BM-225-154-N.jpg","img/neutralC/CFD-MF-359-019-N.jpg","1","1","0","0","1","0","2.73974479996832","0.473428800003603","0.515646499989089","1","1","1","1","1","1","1","1","1"
"250016","img/neutralC/CFD-MF-359-019-N.jpg","img/neutralC/CFD-MF-352-054-N.jpg","img/neutralC/CFD-AM-211-052-N.jpg","0","1","1","0","0","1","0.515646499989089","2.73974479996832","0.331838999991305","1","1","1","1","1","1","1","1","1"
"250016","img/neutralC/CFD-AM-211-052-N.jpg","img/neutralC/CFD-MF-359-019-N.jpg","img/neutralC/CFD-IM-645-001-N.jpg","1","0","1","1","0","0","0.331838999991305","0.515646499989089","0.524858099990524","1","1","1","1","1","1","1","1","1"
"250016","img/neutralC/CFD-IM-645-001-N.jpg","img/neutralC/CFD-AM-211-052-N.jpg","img/neutralC/CFD-IM-671-601-N.jpg","1","1","1","0","1","0","0.524858099990524","0.331838999991305","0.415135599963833","1","1","1","1","1","1","1","1","1"
"250016","img/neutralC/CFD-IM-671-601-N.jpg","img/neutralC/CFD-IM-645-001-N.jpg","img/neutralC/CFD-IM-703-182-N.jpg","1","1","1","0","0","1","0.415135599963833","0.524858099990524","0.458479500026442","1","1","1","1","1","1","1","1","1"
"250016","img/neutralC/CFD-IM-703-182-N.jpg","img/neutralC/CFD-IM-671-601-N.jpg","img/neutralC/CFD-BM-253-004-N.jpg","1","1","1","1","0","1","0.458479500026442","0.415135599963833","0.328239399997983","1","1","1","1","1","1","1","1","1"
"250016","img/neutralC/CFD-BM-253-004-N.jpg","img/neutralC/CFD-IM-703-182-N.jpg","img/neutralC/CFD-LM-228-188-N.jpg","1","1","1","1","1","1","0.328239399997983","0.458479500026442","0.500237700005528","1","1","1","1","1","1","1","1","1"
"250016","img/neutralC/CFD-LM-228-188-N.jpg","img/neutralC/CFD-BM-253-004-N.jpg",NA,"1","1",NA,"1","1",NA,"0.500237700005528","0.328239399997983",NA,"1","1",NA,"1","1",NA,"1","1",NA
"250016","img/neutralC/CFD-IM-702-101-N.jpg",NA,"img/neutralC/CFD-BF-014-002-N.jpg","1",NA,"1","1",NA,"1","0.509034899994731",NA,"0.479375499999151","1",NA,"1","1",NA,"1","1",NA,"1"
"250016","img/neutralC/CFD-BF-014-002-N.jpg","img/neutralC/CFD-IM-702-101-N.jpg","img/neutralC/CFD-IF-660-464-N.jpg","1","1","1","1","1","0","0.479375499999151","0.509034899994731","0.447417200019117","1","1","1","1","1","1","1","1","1"
"250016","img/neutralC/CFD-IF-660-464-N.jpg","img/neutralC/CFD-BF-014-002-N.jpg","img/neutralC/CFD-MF-343-001-N.jpg","1","1","1","0","1","1","0.447417200019117","0.479375499999151","0.486197700025514","1","1","1","1","1","1","1","1","1"
"250016","img/neutralC/CFD-MF-343-001-N.jpg","img/neutralC/CFD-IF-660-464-N.jpg","img/neutralC/CFD-LM-200-045-N.jpg","1","1","1","1","0","1","0.486197700025514","0.447417200019117","0.555286500020884","1","1","1","1","1","1","1","1","1"
"250016","img/neutralC/CFD-LM-200-045-N.jpg","img/neutralC/CFD-MF-343-001-N.jpg","img/neutralC/CFD-LF-206-078-N.jpg","1","1","1","1","1","1","0.555286500020884","0.486197700025514","0.580864200019278","1","1","1","1","1","1","1","1","1"
"250016","img/neutralC/CFD-LF-206-078-N.jpg","img/neutralC/CFD-LM-200-045-N.jpg","img/neutralC/CFD-BM-217-082-N.jpg","1","1","1","1","1","0","0.580864200019278","0.555286500020884","1.46024589997251","1","1","1","1","1","1","1","1","1"
"250016","img/neutralC/CFD-BM-217-082-N.jpg","img/neutralC/CFD-LF-206-078-N.jpg","img/neutralC/CFD-WF-222-092-N.jpg","1","1","1","0","1","1","1.46024589997251","0.580864200019278","0.479626199987251","1","1","1","1","1","1","1","1","1"
"250016","img/neutralC/CFD-WF-222-092-N.jpg","img/neutralC/CFD-BM-217-082-N.jpg","img/neutralC/CFD-WM-218-074-N.jpg","1","1","0","1","0","1","0.479626199987251","1.46024589997251","0.586868400045205","1","1","1","1","1","1","1","1","1"
"250016","img/neutralC/CFD-WM-218-074-N.jpg","img/neutralC/CFD-WF-222-092-N.jpg","img/neutralC/CFD-WM-209-038-N.jpg","0","1","0","1","1","0","0.586868400045205","0.479626199987251","0.383379300008528","1","1","1","1","1","1","1","1","1"
"250016","img/neutralC/CFD-WM-209-038-N.jpg","img/neutralC/CFD-WM-218-074-N.jpg","img/neutralC/CFD-AM-220-134-N.jpg","0","0","1","0","1","0","0.383379300008528","0.586868400045205","0.435952600033488","1","1","1","1","1","1","1","1","1"
"250016","img/neutralC/CFD-AM-220-134-N.jpg","img/neutralC/CFD-WM-209-038-N.jpg","img/neutralC/CFD-WF-007-001-N.jpg","1","0","1","0","0","1","0.435952600033488","0.383379300008528","1.06956890004221","1","1","1","1","1","1","1","1","1"
"250016","img/neutralC/CFD-WF-007-001-N.jpg","img/neutralC/CFD-AM-220-134-N.jpg","img/neutralC/CFD-BM-001-014-N.jpg","1","1","0","1","0","0","1.06956890004221","0.435952600033488",NA,"1","1","0","1","1","0","1","1","0"
"250016","img/neutralC/CFD-BM-001-014-N.jpg","img/neutralC/CFD-WF-007-001-N.jpg","img/neutralC/CFD-WM-015-002-N.jpg","0","1","1","0","1","0",NA,"1.06956890004221","0.0603703999659047","0","1","1","0","1","0","0","1","1"
"250016","img/neutralC/CFD-WM-015-002-N.jpg","img/neutralC/CFD-BM-001-014-N.jpg","img/neutralC/CFD-BM-250-170-N.jpg","1","0","0","0","0","1","0.0603703999659047",NA,"0.775689600035548","1","0","1","0","0","1","1","0","1"
"250016","img/neutralC/CFD-BM-250-170-N.jpg","img/neutralC/CFD-WM-015-002-N.jpg","img/neutralC/CFD-IM-706-002-N.jpg","0","1","1","1","0","0","0.775689600035548","0.0603703999659047","0.420610400033183","1","1","1","1","0","1","1","1","1"
"250016","img/neutralC/CFD-IM-706-002-N.jpg","img/neutralC/CFD-BM-250-170-N.jpg","img/neutralC/CFD-WF-030-002-N.jpg","1","0","0","0","1","0","0.420610400033183","0.775689600035548",NA,"1","1","0","1","1","0","1","1","0"
"250016","img/neutralC/CFD-WF-030-002-N.jpg","img/neutralC/CFD-IM-706-002-N.jpg","img/neutralC/CFD-IM-664-651-N.jpg","0","1","1","0","0","1",NA,"0.420610400033183","0.671766600047704","0","1","1","0","1","1","0","1","1"
"250016","img/neutralC/CFD-IM-664-651-N.jpg","img/neutralC/CFD-WF-030-002-N.jpg","img/neutralC/CFD-AF-253-130-N.jpg","1","0","1","1","0","1","0.671766600047704",NA,"0.414080000016838","1","0","1","1","0","1","1","0","1"
"250016","img/neutralC/CFD-AF-253-130-N.jpg","img/neutralC/CFD-IM-664-651-N.jpg","img/neutralC/CFD-MM-324-069-N.jpg","1","1","0","1","1","1","0.414080000016838","0.671766600047704","0.372658199979924","1","1","1","1","1","1","1","1","1"
"250016","img/neutralC/CFD-MM-324-069-N.jpg","img/neutralC/CFD-AF-253-130-N.jpg","img/neutralC/CFD-BF-237-172-N.jpg","0","1","1","1","1","1","0.372658199979924","0.414080000016838","1.81049689999782","1","1","1","1","1","1","1","1","1"
"250016","img/neutralC/CFD-BF-237-172-N.jpg","img/neutralC/CFD-MM-324-069-N.jpg","img/neutralC/CFD-LF-255-088-N.jpg","1","0","1","1","1","0","1.81049689999782","0.372658199979924","0.473206199996639","1","1","1","1","1","1","1","1","1"
"250016","img/neutralC/CFD-LF-255-088-N.jpg","img/neutralC/CFD-BF-237-172-N.jpg","img/neutralC/CFD-LM-225-130-N.jpg","1","1","1","0","1","0","0.473206199996639","1.81049689999782","0.589061299979221","1","1","1","1","1","1","1","1","1"
"250016","img/neutralC/CFD-LM-225-130-N.jpg","img/neutralC/CFD-LF-255-088-N.jpg","img/neutralC/CFD-IM-680-369-N.jpg","1","1","0","0","0","1","0.589061299979221","0.473206199996639",NA,"1","1","0","1","1","0","1","1","0"
"250016","img/neutralC/CFD-IM-680-369-N.jpg","img/neutralC/CFD-LM-225-130-N.jpg","img/neutralC/CFD-IF-626-375-N.jpg","0","1","0","1","0","0",NA,"0.589061299979221","0.85213879996445","0","1","1","0","1","1","0","1","1"
"250016","img/neutralC/CFD-IF-626-375-N.jpg","img/neutralC/CFD-IM-680-369-N.jpg","img/neutralC/CFD-MF-316-001-N.jpg","0","0","0","0","1","0","0.85213879996445",NA,"0.444882299983874","1","0","1","1","0","1","1","0","1"
"250016","img/neutralC/CFD-MF-316-001-N.jpg","img/neutralC/CFD-IF-626-375-N.jpg","img/neutralC/CFD-IM-667-369-N.jpg","0","0","1","0","0","0","0.444882299983874","0.85213879996445","0.498374099959619","1","1","1","1","1","1","1","1","1"
"250016","img/neutralC/CFD-IM-667-369-N.jpg","img/neutralC/CFD-MF-316-001-N.jpg","img/neutralC/CFD-AF-233-190-N.jpg","1","0","1","0","0","0","0.498374099959619","0.444882299983874","0.295075099973474","1","1","1","1","1","1","1","1","1"
"250016","img/neutralC/CFD-AF-233-190-N.jpg","img/neutralC/CFD-IM-667-369-N.jpg","img/neutralC/CFD-WF-244-163-N.jpg","1","1","1","0","0","1","0.295075099973474","0.498374099959619","0.811303099966608","1","1","1","1","1","1","1","1","1"
"250016","img/neutralC/CFD-WF-244-163-N.jpg","img/neutralC/CFD-AF-233-190-N.jpg","img/neutralC/CFD-MF-357-002-N.jpg","1","1","1","1","0","0","0.811303099966608","0.295075099973474","0.533754699979909","1","1","1","1","1","1","1","1","2"
"250016","img/neutralC/CFD-MF-357-002-N.jpg","img/neutralC/CFD-WF-244-163-N.jpg","img/neutralC/CFD-MF-303-013-N.jpg","1","1","0","0","1","0","0.533754699979909","0.811303099966608",NA,"1","1","0","1","1","0","2","1","0"
"250016","img/neutralC/CFD-MF-303-013-N.jpg","img/neutralC/CFD-MF-357-002-N.jpg","img/neutralC/CFD-MF-305-014-N.jpg","0","1","1","0","0","1",NA,"0.533754699979909","0.455225199984852","0","1","1","0","1","1","0","2","1"
"250016","img/neutralC/CFD-MF-305-014-N.jpg","img/neutralC/CFD-MF-303-013-N.jpg",NA,"1","0",NA,"1","0",NA,"0.455225199984852",NA,NA,"1","0",NA,"1","0",NA,"1","0",NA
"250016","img/neutralC/CFD-BF-039-031-N.jpg",NA,"img/neutralC/CFD-LM-215-247-N.jpg","1",NA,"1","1",NA,"0","0.535850200045388",NA,"0.592670499987435","1",NA,"1","1",NA,"1","1",NA,"1"
"250016","img/neutralC/CFD-LM-215-247-N.jpg","img/neutralC/CFD-BF-039-031-N.jpg","img/neutralC/CFD-MF-337-026-N.jpg","1","1","1","0","1","1","0.592670499987435","0.535850200045388","0.706360000011045","1","1","1","1","1","1","1","1","1"
"250016","img/neutralC/CFD-MF-337-026-N.jpg","img/neutralC/CFD-LM-215-247-N.jpg","img/neutralC/CFD-BM-239-136-N.jpg","1","1","1","1","0","1","0.706360000011045","0.592670499987435","0.517319000035059","1","1","1","1","1","1","1","1","1"
"250016","img/neutralC/CFD-BM-239-136-N.jpg","img/neutralC/CFD-MF-337-026-N.jpg","img/neutralC/CFD-IF-710-016-N.jpg","1","1","1","1","1","0","0.517319000035059","0.706360000011045","0.594329100043979","1","1","1","1","1","1","1","1","1"
"250016","img/neutralC/CFD-IF-710-016-N.jpg","img/neutralC/CFD-BM-239-136-N.jpg","img/neutralC/CFD-LF-224-176-N.jpg","1","1","1","0","1","0","0.594329100043979","0.517319000035059","0.509549600013997","1","1","1","1","1","1","1","1","1"
"250016","img/neutralC/CFD-LF-224-176-N.jpg","img/neutralC/CFD-IF-710-016-N.jpg","img/neutralC/CFD-BM-033-003-N.jpg","1","1","0","0","0","0","0.509549600013997","0.594329100043979","2.3914466999704","1","1","1","1","1","1","1","1","1"
"250016","img/neutralC/CFD-BM-033-003-N.jpg","img/neutralC/CFD-LF-224-176-N.jpg","img/neutralC/CFD-AM-201-076-N.jpg","0","1","1","0","0","1","2.3914466999704","0.509549600013997","0.438943699991796","1","1","1","1","1","1","1","1","1"
"250016","img/neutralC/CFD-AM-201-076-N.jpg","img/neutralC/CFD-BM-033-003-N.jpg","img/neutralC/CFD-IM-651-308-N.jpg","1","0","1","1","0","0","0.438943699991796","2.3914466999704","0.622136000019964","1","1","1","1","1","1","1","1","1"
"250016","img/neutralC/CFD-IM-651-308-N.jpg","img/neutralC/CFD-AM-201-076-N.jpg","img/neutralC/CFD-BF-029-031-N.jpg","1","1","1","0","1","1","0.622136000019964","0.438943699991796","1.37773659999948","1","1","1","1","1","1","1","1","1"
"250016","img/neutralC/CFD-BF-029-031-N.jpg","img/neutralC/CFD-IM-651-308-N.jpg","img/neutralC/CFD-WF-213-031-N.jpg","1","1","0","1","0","1","1.37773659999948","0.622136000019964","1.17143230000511","1","1","1","1","1","1","1","1","1"
"250016","img/neutralC/CFD-WF-213-031-N.jpg","img/neutralC/CFD-BF-029-031-N.jpg","img/neutralC/CFD-IF-693-172-N.jpg","0","1","1","1","1","0","1.17143230000511","1.37773659999948","0.497496899974067","1","1","1","1","1","1","1","1","1"
"250016","img/neutralC/CFD-IF-693-172-N.jpg","img/neutralC/CFD-WF-213-031-N.jpg","img/neutralC/CFD-IM-684-008-N.jpg","1","0","1","0","1","1","0.497496899974067","1.17143230000511","0.405371400003787","1","1","1","1","1","1","1","1","1"
"250016","img/neutralC/CFD-IM-684-008-N.jpg","img/neutralC/CFD-IF-693-172-N.jpg","img/neutralC/CFD-BM-019-002-N.jpg","1","1","0","1","0","0","0.405371400003787","0.497496899974067","0.410768200003076","1","1","1","1","1","1","1","1","1"
"250016","img/neutralC/CFD-BM-019-002-N.jpg","img/neutralC/CFD-IM-684-008-N.jpg","img/neutralC/CFD-LF-230-203-N.jpg","0","1","1","0","1","0","0.410768200003076","0.405371400003787","0.712320699996781","1","1","1","1","1","1","1","1","1"
"250016","img/neutralC/CFD-LF-230-203-N.jpg","img/neutralC/CFD-BM-019-002-N.jpg","img/neutralC/CFD-WM-041-021-N.jpg","1","0","0","0","0","0","0.712320699996781","0.410768200003076","0.488306000013836","1","1","1","1","1","1","1","1","1"
"250016","img/neutralC/CFD-WM-041-021-N.jpg","img/neutralC/CFD-LF-230-203-N.jpg","img/neutralC/CFD-BF-253-202-N.jpg","0","1","1","0","0","0","0.488306000013836","0.712320699996781","0.620223300007638","1","1","1","1","1","1","1","1","1"
"250016","img/neutralC/CFD-BF-253-202-N.jpg","img/neutralC/CFD-WM-041-021-N.jpg","img/neutralC/CFD-LF-203-066-N.jpg","1","0","1","0","0","0","0.620223300007638","0.488306000013836","0.706376899965107","1","1","1","1","1","1","1","1","1"
"250016","img/neutralC/CFD-LF-203-066-N.jpg","img/neutralC/CFD-BF-253-202-N.jpg","img/neutralC/CFD-IF-634-382-N.jpg","1","1","1","0","0","1","0.706376899965107","0.620223300007638","0.602414599969052","1","1","1","1","1","1","1","1","1"
"250016","img/neutralC/CFD-IF-634-382-N.jpg","img/neutralC/CFD-LF-203-066-N.jpg","img/neutralC/CFD-BF-205-141-N.jpg","1","1","1","1","0","0","0.602414599969052","0.706376899965107","0.425936499959789","1","1","1","1","1","1","1","1","1"
"250016","img/neutralC/CFD-BF-205-141-N.jpg","img/neutralC/CFD-IF-634-382-N.jpg","img/neutralC/CFD-LF-205-100-N.jpg","1","1","1","0","1","1","0.425936499959789","0.602414599969052","0.345284100039862","1","1","1","1","1","1","1","1","1"
"250016","img/neutralC/CFD-LF-205-100-N.jpg","img/neutralC/CFD-BF-205-141-N.jpg","img/neutralC/CFD-WM-011-002-N.jpg","1","1","0","1","0","0","0.345284100039862","0.425936499959789","0.628987000032794","1","1","1","1","1","1","1","1","1"
"250016","img/neutralC/CFD-WM-011-002-N.jpg","img/neutralC/CFD-LF-205-100-N.jpg","img/neutralC/CFD-AF-231-357-N.jpg","0","1","1","0","1","1","0.628987000032794","0.345284100039862","2.18819489999441","1","1","1","1","1","1","1","1","1"
"250016","img/neutralC/CFD-AF-231-357-N.jpg","img/neutralC/CFD-WM-011-002-N.jpg","img/neutralC/CFD-WM-021-001-N.jpg","1","0","0","1","0","1","2.18819489999441","0.628987000032794","1.01242420001654","1","1","1","1","1","1","1","1","1"
"250016","img/neutralC/CFD-WM-021-001-N.jpg","img/neutralC/CFD-AF-231-357-N.jpg","img/neutralC/CFD-AM-212-050-N.jpg","0","1","1","1","1","1","1.01242420001654","2.18819489999441","0.561535899993032","1","1","1","1","1","1","1","1","1"
"250016","img/neutralC/CFD-AM-212-050-N.jpg","img/neutralC/CFD-WM-021-001-N.jpg","img/neutralC/CFD-MM-316-156-N.jpg","1","0","0","1","1","1","0.561535899993032","1.01242420001654",NA,"1","1","0","1","1","0","1","1","0"
"250016","img/neutralC/CFD-MM-316-156-N.jpg","img/neutralC/CFD-AM-212-050-N.jpg","img/neutralC/CFD-LM-218-183-N.jpg","0","1","1","1","1","1",NA,"0.561535899993032","0.584992000018246","0","1","1","0","1","1","0","1","1"
"250016","img/neutralC/CFD-LM-218-183-N.jpg","img/neutralC/CFD-MM-316-156-N.jpg","img/neutralC/CFD-BM-041-035-N.jpg","1","0","0","1","1","0","0.584992000018246",NA,"0.268745000008494","1","0","1","1","0","1","1","0","1"
"250016","img/neutralC/CFD-BM-041-035-N.jpg","img/neutralC/CFD-LM-218-183-N.jpg","img/neutralC/CFD-WF-224-099-N.jpg","0","1","1","0","1","0","0.268745000008494","0.584992000018246","0.873246300034225","1","1","1","1","1","1","1","1","1"
"250016","img/neutralC/CFD-WF-224-099-N.jpg","img/neutralC/CFD-BM-041-035-N.jpg","img/neutralC/CFD-LF-214-090-N.jpg","1","0","1","0","0","0","0.873246300034225","0.268745000008494","0.711099999956787","1","1","1","1","1","1","1","1","1"
"250016","img/neutralC/CFD-LF-214-090-N.jpg","img/neutralC/CFD-WF-224-099-N.jpg","img/neutralC/CFD-BF-213-188-N.jpg","1","1","0","0","0","1","0.711099999956787","0.873246300034225","0.785161799984053","1","1","1","1","1","1","1","1","1"
"250016","img/neutralC/CFD-BF-213-188-N.jpg","img/neutralC/CFD-LF-214-090-N.jpg","img/neutralC/CFD-WF-250-167-N.jpg","0","1","1","1","0","1","0.785161799984053","0.711099999956787","0.401818500016816","1","1","1","1","1","1","1","1","1"
"250016","img/neutralC/CFD-WF-250-167-N.jpg","img/neutralC/CFD-BF-213-188-N.jpg",NA,"1","0",NA,"1","1",NA,"0.401818500016816","0.785161799984053",NA,"1","1",NA,"1","1",NA,"1","1",NA
"250016","img/neutralC/CFD-BF-043-003-N.jpg",NA,"img/neutralC/CFD-IF-619-197-N.jpg","0",NA,"1","0",NA,"0","0.464535799983423",NA,"0.639125799993053","1",NA,"1","1",NA,"1","2",NA,"1"
"250016","img/neutralC/CFD-IF-619-197-N.jpg","img/neutralC/CFD-BF-043-003-N.jpg","img/neutralC/CFD-MF-327-002-N.jpg","1","0","0","0","0","0","0.639125799993053","0.464535799983423","0.434832500002813","1","1","1","1","1","1","1","2","1"
"250016","img/neutralC/CFD-MF-327-002-N.jpg","img/neutralC/CFD-IF-619-197-N.jpg","img/neutralC/CFD-AF-215-70-N.jpg","0","1","1","0","0","0","0.434832500002813","0.639125799993053","0.622711799980607","1","1","1","1","1","1","1","1","1"
"250016","img/neutralC/CFD-AF-215-70-N.jpg","img/neutralC/CFD-MF-327-002-N.jpg","img/neutralC/CFD-IM-685-004-N.jpg","1","0","1","0","0","1","0.622711799980607","0.434832500002813","0.472471599990968","1","1","1","1","1","1","1","1","1"
"250016","img/neutralC/CFD-IM-685-004-N.jpg","img/neutralC/CFD-AF-215-70-N.jpg","img/neutralC/CFD-AF-229-160-N.jpg","1","1","0","1","0","0","0.472471599990968","0.622711799980607","1.22606810001889","1","1","1","1","1","1","1","1","1"
"250016","img/neutralC/CFD-AF-229-160-N.jpg","img/neutralC/CFD-IM-685-004-N.jpg","img/neutralC/CFD-LF-201-035-N.jpg","0","1","0","0","1","1","1.22606810001889","0.472471599990968",NA,"1","1","0","1","1","0","1","1","0"
"250016","img/neutralC/CFD-LF-201-035-N.jpg","img/neutralC/CFD-AF-229-160-N.jpg","img/neutralC/CFD-LM-217-162-N.jpg","0","0","1","1","0","0",NA,"1.22606810001889","0.564135299995542","0","1","1","0","1","1","0","1","1"
"250016","img/neutralC/CFD-LM-217-162-N.jpg","img/neutralC/CFD-LF-201-035-N.jpg","img/neutralC/CFD-WF-217-085-N.jpg","1","0","1","0","1","1","0.564135299995542",NA,"0.450982099981047","1","0","1","1","0","1","1","0","1"
"250016","img/neutralC/CFD-WF-217-085-N.jpg","img/neutralC/CFD-LM-217-162-N.jpg","img/neutralC/CFD-IF-608-390-N.jpg","1","1","1","1","0","1","0.450982099981047","0.564135299995542","2.97486789996037","1","1","1","1","1","1","1","1","1"
"250016","img/neutralC/CFD-IF-608-390-N.jpg","img/neutralC/CFD-WF-217-085-N.jpg","img/neutralC/CFD-WF-012-002-N.jpg","1","1","1","1","1","1","2.97486789996037","0.450982099981047","0.484829199966043","1","1","1","1","1","1","1","1","1"
"250016","img/neutralC/CFD-WF-012-002-N.jpg","img/neutralC/CFD-IF-608-390-N.jpg","img/neutralC/CFD-BM-243-218-N.jpg","1","1","0","1","1","1","0.484829199966043","2.97486789996037",NA,"1","1","0","1","1","0","1","1","0"
"250016","img/neutralC/CFD-BM-243-218-N.jpg","img/neutralC/CFD-WF-012-002-N.jpg","img/neutralC/CFD-WF-008-002-N.jpg","0","1","1","1","1","1",NA,"0.484829199966043","0.525312000012491","0","1","1","0","1","1","0","1","1"
"250016","img/neutralC/CFD-WF-008-002-N.jpg","img/neutralC/CFD-BM-243-218-N.jpg","img/neutralC/CFD-AF-254-167-N.jpg","1","0","1","1","1","1","0.525312000012491",NA,"0.449251399957575","1","0","1","1","0","1","1","0","1"
"250016","img/neutralC/CFD-AF-254-167-N.jpg","img/neutralC/CFD-WF-008-002-N.jpg","img/neutralC/CFD-MF-329-001-N.jpg","1","1","0","1","1","0","0.449251399957575","0.525312000012491",NA,"1","1","0","1","1","0","1","1","0"
"250016","img/neutralC/CFD-MF-329-001-N.jpg","img/neutralC/CFD-AF-254-167-N.jpg","img/neutralC/CFD-MF-340-026-N.jpg","0","1","1","0","1","1",NA,"0.449251399957575","0.611024799989536","0","1","1","0","1","1","0","1","1"
"250016","img/neutralC/CFD-MF-340-026-N.jpg","img/neutralC/CFD-MF-329-001-N.jpg","img/neutralC/CFD-AM-236-090-N.jpg","1","0","1","1","0","1","0.611024799989536",NA,"0.440586299984716","1","0","1","1","0","1","1","0","1"
"250016","img/neutralC/CFD-AM-236-090-N.jpg","img/neutralC/CFD-MF-340-026-N.jpg","img/neutralC/CFD-WM-024-015-N.jpg","1","1","0","1","1","1","0.440586299984716","0.611024799989536",NA,"1","1","0","1","1","0","1","1","0"
"250016","img/neutralC/CFD-WM-024-015-N.jpg","img/neutralC/CFD-AM-236-090-N.jpg","img/neutralC/CFD-WM-213-076-N.jpg","0","1","1","1","1","1",NA,"0.440586299984716","0.542370299983304","0","1","1","0","1","1","0","1","1"
"250016","img/neutralC/CFD-WM-213-076-N.jpg","img/neutralC/CFD-WM-024-015-N.jpg","img/neutralC/CFD-BM-039-029-N.jpg","1","0","0","1","1","1","0.542370299983304",NA,"0.907406900019851","1","0","1","1","0","1","1","0","1"
"250016","img/neutralC/CFD-BM-039-029-N.jpg","img/neutralC/CFD-WM-213-076-N.jpg","img/neutralC/CFD-WM-232-070-N.jpg","0","1","1","1","1","0","0.907406900019851","0.542370299983304","0.534486799966544","1","1","1","1","1","1","1","1","1"
"250016","img/neutralC/CFD-WM-232-070-N.jpg","img/neutralC/CFD-BM-039-029-N.jpg","img/neutralC/CFD-IM-604-014-N.jpg","1","0","0","0","1","0","0.534486799966544","0.907406900019851",NA,"1","1","0","1","1","0","1","1","0"
"250016","img/neutralC/CFD-IM-604-014-N.jpg","img/neutralC/CFD-WM-232-070-N.jpg","img/neutralC/CFD-BF-051-035-N.jpg","0","1","1","0","0","0",NA,"0.534486799966544","0.604091699991841","0","1","1","0","1","1","0","1","1"
"250016","img/neutralC/CFD-BF-051-035-N.jpg","img/neutralC/CFD-IM-604-014-N.jpg","img/neutralC/CFD-IM-675-015-N.jpg","1","0","1","0","0","1","0.604091699991841",NA,"0.522546500025783","1","0","1","1","0","1","1","0","1"
"250016","img/neutralC/CFD-IM-675-015-N.jpg","img/neutralC/CFD-BF-051-035-N.jpg","img/neutralC/CFD-LF-226-174-N.jpg","1","1","0","1","0","0","0.522546500025783","0.604091699991841","0.499444599961862","1","1","1","1","1","1","1","1","1"
"250016","img/neutralC/CFD-LF-226-174-N.jpg","img/neutralC/CFD-IM-675-015-N.jpg","img/neutralC/CFD-IM-709-103-N.jpg","0","1","0","0","1","0","0.499444599961862","0.522546500025783",NA,"1","1","0","1","1","0","1","1","0"
"250016","img/neutralC/CFD-IM-709-103-N.jpg","img/neutralC/CFD-LF-226-174-N.jpg","img/neutralC/CFD-WF-212-050-N.jpg","0","0","0","0","0","0",NA,"0.499444599961862",NA,"0","1","0","0","1","0","0","1","0"
"250016","img/neutralC/CFD-WF-212-050-N.jpg","img/neutralC/CFD-IM-709-103-N.jpg","img/neutralC/CFD-BF-224-002-N.jpg","0","0","0","0","0","1",NA,NA,NA,"0","0","0","0","0","0","0","0","0"
"250016","img/neutralC/CFD-BF-224-002-N.jpg","img/neutralC/CFD-WF-212-050-N.jpg","img/neutralC/CFD-MM-304-002-N.jpg","0","0","1","1","0","1",NA,NA,"0.616570100013632","0","0","1","0","0","1","0","0","1"
"250016","img/neutralC/CFD-MM-304-002-N.jpg","img/neutralC/CFD-BF-224-002-N.jpg","img/neutralC/CFD-MF-300-002-N.jpg","1","0","0","1","1","0","0.616570100013632",NA,"0.51718849997269","1","0","1","1","0","1","1","0","1"
"250016","img/neutralC/CFD-MF-300-002-N.jpg","img/neutralC/CFD-MM-304-002-N.jpg","img/neutralC/CFD-IM-637-007-N.jpg","0","1","1","0","1","0","0.51718849997269","0.616570100013632","0.621465000032913","1","1","1","1","1","1","1","1","2"
"250016","img/neutralC/CFD-IM-637-007-N.jpg","img/neutralC/CFD-MF-300-002-N.jpg","img/neutralC/CFD-WF-248-129-N.jpg","1","0","0","0","0","0","0.621465000032913","0.51718849997269",NA,"1","1","0","1","1","0","2","1","0"
"250016","img/neutralC/CFD-WF-248-129-N.jpg","img/neutralC/CFD-IM-637-007-N.jpg",NA,"0","1",NA,"0","0",NA,NA,"0.621465000032913",NA,"0","1",NA,"0","1",NA,"0","2",NA
