"participant_id","current_trial_face","pre_trial_face","post_trial_face","current_trial_accuracy","pre_trial_accuracy","post_trial_accuracy","current_trial_congruency","pre_trial_congruency","post_trial_congruency","current_trial_rt","pre_trial_rt","post_trial_rt","current_trial_responded","pre_trial_responded","post_trial_responded","current_trial_legitResponse","pre_trial_legitResponse","post_trial_legitResponse","current_trial_resp_nums","pre_trial_resp_nums","post_trial_resp_nums"
"250066","img/neutralC/CFD-WF-243-148-N.jpg",NA,"img/neutralC/CFD-AM-243-212-N.jpg","0",NA,"1","0",NA,"1","0.977625299943611",NA,"0.623909100191668","1",NA,"1","1",NA,"1","1",NA,"1"
"250066","img/neutralC/CFD-AM-243-212-N.jpg","img/neutralC/CFD-WF-243-148-N.jpg","img/neutralC/CFD-WF-241-210-N.jpg","1","0","1","1","0","0","0.623909100191668","0.977625299943611","0.502878600033","1","1","1","1","1","1","1","1","1"
"250066","img/neutralC/CFD-WF-241-210-N.jpg","img/neutralC/CFD-AM-243-212-N.jpg","img/neutralC/CFD-LF-212-066-N.jpg","1","1","1","0","1","1","0.502878600033","0.623909100191668","0.48442649981007","1","1","1","1","1","1","1","1","1"
"250066","img/neutralC/CFD-LF-212-066-N.jpg","img/neutralC/CFD-WF-241-210-N.jpg","img/neutralC/CFD-AM-219-101-N.jpg","1","1","1","1","0","0","0.48442649981007","0.502878600033","0.584327700082213","1","1","1","1","1","1","1","1","1"
"250066","img/neutralC/CFD-AM-219-101-N.jpg","img/neutralC/CFD-LF-212-066-N.jpg","img/neutralC/CFD-MF-328-020-N.jpg","1","1","1","0","1","0","0.584327700082213","0.48442649981007","0.628239500103518","1","1","1","1","1","1","1","1","1"
"250066","img/neutralC/CFD-MF-328-020-N.jpg","img/neutralC/CFD-AM-219-101-N.jpg","img/neutralC/CFD-BM-043-071-N.jpg","1","1","1","0","0","0","0.628239500103518","0.584327700082213","0.53729430004023","1","1","1","1","1","1","1","1","1"
"250066","img/neutralC/CFD-BM-043-071-N.jpg","img/neutralC/CFD-MF-328-020-N.jpg","img/neutralC/CFD-BM-020-001-N.jpg","1","1","1","0","0","0","0.53729430004023","0.628239500103518","0.601612800033763","1","1","1","1","1","1","1","1","1"
"250066","img/neutralC/CFD-BM-020-001-N.jpg","img/neutralC/CFD-BM-043-071-N.jpg","img/neutralC/CFD-BM-021-021-N.jpg","1","1","1","0","0","1","0.601612800033763","0.53729430004023","1.0020860999357","1","1","1","1","1","1","1","1","1"
"250066","img/neutralC/CFD-BM-021-021-N.jpg","img/neutralC/CFD-BM-020-001-N.jpg","img/neutralC/CFD-WF-207-014-N.jpg","1","1","1","1","0","1","1.0020860999357","0.601612800033763","0.788977900054306","1","1","1","1","1","1","1","1","1"
"250066","img/neutralC/CFD-WF-207-014-N.jpg","img/neutralC/CFD-BM-021-021-N.jpg","img/neutralC/CFD-BF-012-001-N.jpg","1","1","0","1","1","0","0.788977900054306","1.0020860999357","0.715080800000578","1","1","1","1","1","1","1","1","1"
"250066","img/neutralC/CFD-BF-012-001-N.jpg","img/neutralC/CFD-WF-207-014-N.jpg","img/neutralC/CFD-AM-249-163-N.jpg","0","1","1","0","1","1","0.715080800000578","0.788977900054306","0.985098799923435","1","1","1","1","1","1","1","1","1"
"250066","img/neutralC/CFD-AM-249-163-N.jpg","img/neutralC/CFD-BF-012-001-N.jpg","img/neutralC/CFD-BM-009-002-N.jpg","1","0","1","1","0","1","0.985098799923435","0.715080800000578","0.914954600157216","1","1","1","1","1","1","1","1","1"
"250066","img/neutralC/CFD-BM-009-002-N.jpg","img/neutralC/CFD-AM-249-163-N.jpg","img/neutralC/CFD-IM-689-263-N.jpg","1","1","1","1","1","1","0.914954600157216","0.985098799923435","0.673391600139439","1","1","1","1","1","1","1","1","1"
"250066","img/neutralC/CFD-IM-689-263-N.jpg","img/neutralC/CFD-BM-009-002-N.jpg","img/neutralC/CFD-LM-240-013-N.jpg","1","1","1","1","1","1","0.673391600139439","0.914954600157216","0.809001300018281","1","1","1","1","1","1","1","1","1"
"250066","img/neutralC/CFD-LM-240-013-N.jpg","img/neutralC/CFD-IM-689-263-N.jpg","img/neutralC/CFD-WF-009-001-N.jpg","1","1","1","1","1","1","0.809001300018281","0.673391600139439","0.825203399872407","1","1","1","1","1","1","1","1","1"
"250066","img/neutralC/CFD-WF-009-001-N.jpg","img/neutralC/CFD-LM-240-013-N.jpg","img/neutralC/CFD-BF-244-231-N.jpg","1","1","1","1","1","1","0.825203399872407","0.809001300018281","0.852282600011677","1","1","1","1","1","1","1","1","1"
"250066","img/neutralC/CFD-BF-244-231-N.jpg","img/neutralC/CFD-WF-009-001-N.jpg","img/neutralC/CFD-WM-023-001-N.jpg","1","1","1","1","1","0","0.852282600011677","0.825203399872407","0.79978369991295","1","1","1","1","1","1","1","1","1"
"250066","img/neutralC/CFD-WM-023-001-N.jpg","img/neutralC/CFD-BF-244-231-N.jpg","img/neutralC/CFD-WM-028-003-N.jpg","1","1","1","0","1","1","0.79978369991295","0.852282600011677","0.735815099906176","1","1","1","1","1","1","1","1","1"
"250066","img/neutralC/CFD-WM-028-003-N.jpg","img/neutralC/CFD-WM-023-001-N.jpg","img/neutralC/CFD-LF-238-154-N.jpg","1","1","1","1","0","1","0.735815099906176","0.79978369991295","0.759404100012034","1","1","1","1","1","1","1","1","1"
"250066","img/neutralC/CFD-LF-238-154-N.jpg","img/neutralC/CFD-WM-028-003-N.jpg","img/neutralC/CFD-MM-306-010-N.jpg","1","1","1","1","1","0","0.759404100012034","0.735815099906176","0.715252100024372","1","1","1","1","1","1","1","1","1"
"250066","img/neutralC/CFD-MM-306-010-N.jpg","img/neutralC/CFD-LF-238-154-N.jpg","img/neutralC/CFD-WM-025-002-N.jpg","1","1","1","0","1","0","0.715252100024372","0.759404100012034","0.662874300032854","1","1","1","1","1","1","1","1","1"
"250066","img/neutralC/CFD-WM-025-002-N.jpg","img/neutralC/CFD-MM-306-010-N.jpg","img/neutralC/CFD-BM-227-191-N.jpg","1","1","1","0","0","1","0.662874300032854","0.715252100024372","0.624657400185242","1","1","1","1","1","1","1","1","1"
"250066","img/neutralC/CFD-BM-227-191-N.jpg","img/neutralC/CFD-WM-025-002-N.jpg","img/neutralC/CFD-BM-030-003-N.jpg","1","1","1","1","0","0","0.624657400185242","0.662874300032854","0.626535400049761","1","1","1","1","1","1","1","1","1"
"250066","img/neutralC/CFD-BM-030-003-N.jpg","img/neutralC/CFD-BM-227-191-N.jpg","img/neutralC/CFD-IF-676-017-N.jpg","1","1","1","0","1","1","0.626535400049761","0.624657400185242","0.641882000025362","1","1","1","1","1","1","1","1","1"
"250066","img/neutralC/CFD-IF-676-017-N.jpg","img/neutralC/CFD-BM-030-003-N.jpg","img/neutralC/CFD-IM-606-008-N.jpg","1","1","1","1","0","0","0.641882000025362","0.626535400049761","0.613700599875301","1","1","1","1","1","1","1","1","1"
"250066","img/neutralC/CFD-IM-606-008-N.jpg","img/neutralC/CFD-IF-676-017-N.jpg","img/neutralC/CFD-IM-615-167-N.jpg","1","1","1","0","1","0","0.613700599875301","0.641882000025362","0.83355880016461","1","1","1","1","1","1","1","1","1"
"250066","img/neutralC/CFD-IM-615-167-N.jpg","img/neutralC/CFD-IM-606-008-N.jpg","img/neutralC/CFD-AF-237-223-N.jpg","1","1","1","0","0","0","0.83355880016461","0.613700599875301","0.612464299891144","1","1","1","1","1","1","1","1","1"
"250066","img/neutralC/CFD-AF-237-223-N.jpg","img/neutralC/CFD-IM-615-167-N.jpg","img/neutralC/CFD-AM-205-153-N.jpg","1","1","1","0","0","1","0.612464299891144","0.83355880016461","0.578956599812955","1","1","1","1","1","1","1","1","1"
"250066","img/neutralC/CFD-AM-205-153-N.jpg","img/neutralC/CFD-AF-237-223-N.jpg","img/neutralC/CFD-LF-222-147-N.jpg","1","1","1","1","0","0","0.578956599812955","0.612464299891144","0.707002899842337","1","1","1","1","1","1","1","1","1"
"250066","img/neutralC/CFD-LF-222-147-N.jpg","img/neutralC/CFD-AM-205-153-N.jpg","img/neutralC/CFD-WF-221-005-N.jpg","1","1","1","0","1","0","0.707002899842337","0.578956599812955","0.68597670015879","1","1","1","1","1","1","1","1","1"
"250066","img/neutralC/CFD-WF-221-005-N.jpg","img/neutralC/CFD-LF-222-147-N.jpg","img/neutralC/CFD-IM-697-015-N.jpg","1","1","1","0","0","1","0.68597670015879","0.707002899842337","0.718466100050136","1","1","1","1","1","1","1","1","1"
"250066","img/neutralC/CFD-IM-697-015-N.jpg","img/neutralC/CFD-WF-221-005-N.jpg",NA,"1","1",NA,"1","0",NA,"0.718466100050136","0.68597670015879",NA,"1","1",NA,"1","1",NA,"1","1",NA
"250066","img/neutralC/CFD-BF-033-028-N.jpg",NA,"img/neutralC/CFD-WM-258-125-N.jpg","1",NA,"1","0",NA,"0","0.537472099997103",NA,"0.537773299962282","1",NA,"1","1",NA,"1","1",NA,"1"
"250066","img/neutralC/CFD-WM-258-125-N.jpg","img/neutralC/CFD-BF-033-028-N.jpg","img/neutralC/CFD-MF-313-002-N.jpg","1","1","1","0","0","0","0.537773299962282","0.537472099997103","0.533259299816564","1","1","1","1","1","1","1","1","1"
"250066","img/neutralC/CFD-MF-313-002-N.jpg","img/neutralC/CFD-WM-258-125-N.jpg","img/neutralC/CFD-BF-010-001-N.jpg","1","1","1","0","0","1","0.533259299816564","0.537773299962282","0.541691299993545","1","1","1","1","1","1","1","1","1"
"250066","img/neutralC/CFD-BF-010-001-N.jpg","img/neutralC/CFD-MF-313-002-N.jpg","img/neutralC/CFD-BM-026-002-N.jpg","1","1","1","1","0","0","0.541691299993545","0.533259299816564","0.502184899989516","1","1","1","1","1","1","1","1","1"
"250066","img/neutralC/CFD-BM-026-002-N.jpg","img/neutralC/CFD-BF-010-001-N.jpg","img/neutralC/CFD-LM-233-171-N.jpg","1","1","1","0","1","0","0.502184899989516","0.541691299993545","0.475734199862927","1","1","1","1","1","1","1","1","1"
"250066","img/neutralC/CFD-LM-233-171-N.jpg","img/neutralC/CFD-BM-026-002-N.jpg","img/neutralC/CFD-BM-018-001-N.jpg","1","1","1","0","0","1","0.475734199862927","0.502184899989516","0.704101399984211","1","1","1","1","1","1","1","1","1"
"250066","img/neutralC/CFD-BM-018-001-N.jpg","img/neutralC/CFD-LM-233-171-N.jpg","img/neutralC/CFD-LF-247-051-N.jpg","1","1","1","1","0","1","0.704101399984211","0.475734199862927","0.461668300209567","1","1","1","1","1","1","1","1","1"
"250066","img/neutralC/CFD-LF-247-051-N.jpg","img/neutralC/CFD-BM-018-001-N.jpg","img/neutralC/CFD-IM-686-097-N.jpg","1","1","1","1","1","0","0.461668300209567","0.704101399984211","0.480830700136721","1","1","1","1","1","1","1","1","1"
"250066","img/neutralC/CFD-IM-686-097-N.jpg","img/neutralC/CFD-LF-247-051-N.jpg","img/neutralC/CFD-BM-231-155-N.jpg","1","1","1","0","1","1","0.480830700136721","0.461668300209567","0.528271599905565","1","1","1","1","1","1","1","1","1"
"250066","img/neutralC/CFD-BM-231-155-N.jpg","img/neutralC/CFD-IM-686-097-N.jpg","img/neutralC/CFD-AF-241-141-N.jpg","1","1","1","1","0","1","0.528271599905565","0.480830700136721","0.46680900012143","1","1","1","1","1","1","1","1","1"
"250066","img/neutralC/CFD-AF-241-141-N.jpg","img/neutralC/CFD-BM-231-155-N.jpg","img/neutralC/CFD-LM-219-295-N.jpg","1","1","1","1","1","1","0.46680900012143","0.528271599905565","0.57094780006446","1","1","1","1","1","1","1","1","1"
"250066","img/neutralC/CFD-LM-219-295-N.jpg","img/neutralC/CFD-AF-241-141-N.jpg","img/neutralC/CFD-IM-727-195-N.jpg","1","1","1","1","1","1","0.57094780006446","0.46680900012143","0.477738399989903","1","1","1","1","1","1","1","1","1"
"250066","img/neutralC/CFD-IM-727-195-N.jpg","img/neutralC/CFD-LM-219-295-N.jpg","img/neutralC/CFD-BF-238-190-N.jpg","1","1","1","1","1","1","0.477738399989903","0.57094780006446","0.61598170013167","1","1","1","1","1","1","1","1","1"
"250066","img/neutralC/CFD-BF-238-190-N.jpg","img/neutralC/CFD-IM-727-195-N.jpg","img/neutralC/CFD-LF-250-169-N.jpg","1","1","1","1","1","1","0.61598170013167","0.477738399989903","0.618505300022662","1","1","1","1","1","1","1","1","1"
"250066","img/neutralC/CFD-LF-250-169-N.jpg","img/neutralC/CFD-BF-238-190-N.jpg","img/neutralC/CFD-BM-005-003-N.jpg","1","1","1","1","1","1","0.618505300022662","0.61598170013167","0.417487900005654","1","1","1","1","1","1","1","1","1"
"250066","img/neutralC/CFD-BM-005-003-N.jpg","img/neutralC/CFD-LF-250-169-N.jpg","img/neutralC/CFD-IM-657-308-N.jpg","1","1","1","1","1","0","0.417487900005654","0.618505300022662","0.670797399943694","1","1","1","1","1","1","1","1","1"
"250066","img/neutralC/CFD-IM-657-308-N.jpg","img/neutralC/CFD-BM-005-003-N.jpg","img/neutralC/CFD-BM-212-117-N.jpg","1","1","1","0","1","0","0.670797399943694","0.417487900005654","0.596077700145543","1","1","1","1","1","1","1","1","1"
"250066","img/neutralC/CFD-BM-212-117-N.jpg","img/neutralC/CFD-IM-657-308-N.jpg","img/neutralC/CFD-WF-209-052-N.jpg","1","1","1","0","0","1","0.596077700145543","0.670797399943694","0.517211700091138","1","1","1","1","1","1","1","1","1"
"250066","img/neutralC/CFD-WF-209-052-N.jpg","img/neutralC/CFD-BM-212-117-N.jpg","img/neutralC/CFD-LM-226-175-N.jpg","1","1","1","1","0","0","0.517211700091138","0.596077700145543","0.522719600005075","1","1","1","1","1","1","1","1","1"
"250066","img/neutralC/CFD-LM-226-175-N.jpg","img/neutralC/CFD-WF-209-052-N.jpg","img/neutralC/CFD-WM-242-011-N.jpg","1","1","1","0","1","0","0.522719600005075","0.517211700091138","0.565462299855426","1","1","1","1","1","1","1","1","1"
"250066","img/neutralC/CFD-WM-242-011-N.jpg","img/neutralC/CFD-LM-226-175-N.jpg","img/neutralC/CFD-AF-202-122-N.jpg","1","1","1","0","0","1","0.565462299855426","0.522719600005075","0.464234299957752","1","1","1","1","1","1","1","1","1"
"250066","img/neutralC/CFD-AF-202-122-N.jpg","img/neutralC/CFD-WM-242-011-N.jpg","img/neutralC/CFD-IM-638-250-1-N.jpg","1","1","1","1","0","1","0.464234299957752","0.565462299855426","0.481883900007233","1","1","1","1","1","1","1","1","1"
"250066","img/neutralC/CFD-IM-638-250-1-N.jpg","img/neutralC/CFD-AF-202-122-N.jpg","img/neutralC/CFD-IM-653-008-N.jpg","1","1","1","1","1","0","0.481883900007233","0.464234299957752","0.563723099883646","1","1","1","1","1","1","1","1","1"
"250066","img/neutralC/CFD-IM-653-008-N.jpg","img/neutralC/CFD-IM-638-250-1-N.jpg","img/neutralC/CFD-IM-617-174-N.jpg","1","1","1","0","1","0","0.563723099883646","0.481883900007233","0.530085300095379","1","1","1","1","1","1","1","1","1"
"250066","img/neutralC/CFD-IM-617-174-N.jpg","img/neutralC/CFD-IM-653-008-N.jpg","img/neutralC/CFD-AF-206-079-N.jpg","1","1","1","0","0","1","0.530085300095379","0.563723099883646","0.775273399893194","1","1","1","1","1","1","1","1","1"
"250066","img/neutralC/CFD-AF-206-079-N.jpg","img/neutralC/CFD-IM-617-174-N.jpg","img/neutralC/CFD-WM-017-002-N.jpg","1","1","1","1","0","0","0.775273399893194","0.530085300095379","0.58473869995214","1","1","1","1","1","1","1","1","1"
"250066","img/neutralC/CFD-WM-017-002-N.jpg","img/neutralC/CFD-AF-206-079-N.jpg","img/neutralC/CFD-LF-242-121-N.jpg","1","1","1","0","1","0","0.58473869995214","0.775273399893194","0.557928599882871","1","1","1","1","1","1","1","1","1"
"250066","img/neutralC/CFD-LF-242-121-N.jpg","img/neutralC/CFD-WM-017-002-N.jpg","img/neutralC/CFD-LF-245-166-N.jpg","1","1","1","0","0","1","0.557928599882871","0.58473869995214","0.715446699876338","1","1","1","1","1","1","1","1","1"
"250066","img/neutralC/CFD-LF-245-166-N.jpg","img/neutralC/CFD-LF-242-121-N.jpg","img/neutralC/CFD-IF-665-015-N.jpg","1","1","1","1","0","0","0.715446699876338","0.557928599882871","0.551865000044927","1","1","1","1","1","1","1","1","1"
"250066","img/neutralC/CFD-IF-665-015-N.jpg","img/neutralC/CFD-LF-245-166-N.jpg","img/neutralC/CFD-IF-620-218-N.jpg","1","1","1","0","1","0","0.551865000044927","0.715446699876338","0.460985500132665","1","1","1","1","1","1","1","1","1"
"250066","img/neutralC/CFD-IF-620-218-N.jpg","img/neutralC/CFD-IF-665-015-N.jpg","img/neutralC/CFD-WM-227-099-N.jpg","1","1","1","0","0","1","0.460985500132665","0.551865000044927","0.37147399992682","1","1","1","1","1","1","1","1","1"
"250066","img/neutralC/CFD-WM-227-099-N.jpg","img/neutralC/CFD-IF-620-218-N.jpg",NA,"1","1",NA,"1","0",NA,"0.37147399992682","0.460985500132665",NA,"1","1",NA,"1","1",NA,"1","1",NA
"250066","img/neutralC/CFD-BF-039-031-N.jpg",NA,"img/neutralC/CFD-BF-205-141-N.jpg","1",NA,"1","1",NA,"0","0.548490999964997",NA,"0.59178590006195","1",NA,"1","1",NA,"1","1",NA,"1"
"250066","img/neutralC/CFD-BF-205-141-N.jpg","img/neutralC/CFD-BF-039-031-N.jpg","img/neutralC/CFD-MF-337-026-N.jpg","1","1","1","0","1","1","0.59178590006195","0.548490999964997","0.480217499891296","1","1","1","1","1","1","1","1","1"
"250066","img/neutralC/CFD-MF-337-026-N.jpg","img/neutralC/CFD-BF-205-141-N.jpg","img/neutralC/CFD-WM-041-021-N.jpg","1","1","1","1","0","0","0.480217499891296","0.59178590006195","0.40085870004259","1","1","1","1","1","1","1","1","1"
"250066","img/neutralC/CFD-WM-041-021-N.jpg","img/neutralC/CFD-MF-337-026-N.jpg","img/neutralC/CFD-BF-029-031-N.jpg","1","1","1","0","1","1","0.40085870004259","0.480217499891296","0.414718399988487","1","1","1","1","1","1","1","1","1"
"250066","img/neutralC/CFD-BF-029-031-N.jpg","img/neutralC/CFD-WM-041-021-N.jpg","img/neutralC/CFD-LF-205-100-N.jpg","1","1","1","1","0","1","0.414718399988487","0.40085870004259","0.376764100044966","1","1","1","1","1","1","1","1","1"
"250066","img/neutralC/CFD-LF-205-100-N.jpg","img/neutralC/CFD-BF-029-031-N.jpg","img/neutralC/CFD-BM-019-002-N.jpg","1","1","1","1","1","0","0.376764100044966","0.414718399988487","0.397004700032994","1","1","1","1","1","1","1","1","1"
"250066","img/neutralC/CFD-BM-019-002-N.jpg","img/neutralC/CFD-LF-205-100-N.jpg","img/neutralC/CFD-IF-710-016-N.jpg","1","1","1","0","1","0","0.397004700032994","0.376764100044966","0.40484830015339","1","1","1","1","1","1","1","1","1"
"250066","img/neutralC/CFD-IF-710-016-N.jpg","img/neutralC/CFD-BM-019-002-N.jpg","img/neutralC/CFD-MM-316-156-N.jpg","1","1","1","0","0","1","0.40484830015339","0.397004700032994","0.565735100070015","1","1","1","1","1","1","1","1","1"
"250066","img/neutralC/CFD-MM-316-156-N.jpg","img/neutralC/CFD-IF-710-016-N.jpg","img/neutralC/CFD-AF-231-357-N.jpg","1","1","1","1","0","1","0.565735100070015","0.40484830015339","0.602147599915043","1","1","1","1","1","1","1","1","1"
"250066","img/neutralC/CFD-AF-231-357-N.jpg","img/neutralC/CFD-MM-316-156-N.jpg","img/neutralC/CFD-IF-693-172-N.jpg","1","1","1","1","1","0","0.602147599915043","0.565735100070015","0.567305200034752","1","1","1","1","1","1","1","1","1"
"250066","img/neutralC/CFD-IF-693-172-N.jpg","img/neutralC/CFD-AF-231-357-N.jpg","img/neutralC/CFD-LM-218-183-N.jpg","1","1","1","0","1","1","0.567305200034752","0.602147599915043","0.503887700149789","1","1","1","1","1","1","1","1","1"
"250066","img/neutralC/CFD-LM-218-183-N.jpg","img/neutralC/CFD-IF-693-172-N.jpg","img/neutralC/CFD-WM-021-001-N.jpg","1","1","1","1","0","1","0.503887700149789","0.567305200034752","0.439985599834472","1","1","1","1","1","1","1","1","1"
"250066","img/neutralC/CFD-WM-021-001-N.jpg","img/neutralC/CFD-LM-218-183-N.jpg","img/neutralC/CFD-LF-214-090-N.jpg","1","1","1","1","1","0","0.439985599834472","0.503887700149789","0.537996199913323","1","1","1","1","1","1","1","1","1"
"250066","img/neutralC/CFD-LF-214-090-N.jpg","img/neutralC/CFD-WM-021-001-N.jpg","img/neutralC/CFD-WF-250-167-N.jpg","1","1","1","0","1","1","0.537996199913323","0.439985599834472","0.529164500068873","1","1","1","1","1","1","1","1","1"
"250066","img/neutralC/CFD-WF-250-167-N.jpg","img/neutralC/CFD-LF-214-090-N.jpg","img/neutralC/CFD-IF-634-382-N.jpg","1","1","1","1","0","1","0.529164500068873","0.537996199913323","0.566550499992445","1","1","1","1","1","1","1","1","1"
"250066","img/neutralC/CFD-IF-634-382-N.jpg","img/neutralC/CFD-WF-250-167-N.jpg","img/neutralC/CFD-AM-212-050-N.jpg","1","1","1","1","1","1","0.566550499992445","0.529164500068873","0.481621899874881","1","1","1","1","1","1","1","1","1"
"250066","img/neutralC/CFD-AM-212-050-N.jpg","img/neutralC/CFD-IF-634-382-N.jpg","img/neutralC/CFD-BF-253-202-N.jpg","1","1","1","1","1","0","0.481621899874881","0.566550499992445","0.588569300016388","1","1","1","1","1","1","1","1","1"
"250066","img/neutralC/CFD-BF-253-202-N.jpg","img/neutralC/CFD-AM-212-050-N.jpg","img/neutralC/CFD-LF-224-176-N.jpg","1","1","1","0","1","0","0.588569300016388","0.481621899874881","0.517599900020286","1","1","1","1","1","1","1","1","1"
"250066","img/neutralC/CFD-LF-224-176-N.jpg","img/neutralC/CFD-BF-253-202-N.jpg","img/neutralC/CFD-WF-213-031-N.jpg","1","1","1","0","0","1","0.517599900020286","0.588569300016388","0.434768200153485","1","1","1","1","1","1","1","1","1"
"250066","img/neutralC/CFD-WF-213-031-N.jpg","img/neutralC/CFD-LF-224-176-N.jpg","img/neutralC/CFD-LF-203-066-N.jpg","1","1","1","1","0","0","0.434768200153485","0.517599900020286","0.577853600028902","1","1","1","1","1","1","1","1","1"
"250066","img/neutralC/CFD-LF-203-066-N.jpg","img/neutralC/CFD-WF-213-031-N.jpg","img/neutralC/CFD-BM-041-035-N.jpg","1","1","1","0","1","0","0.577853600028902","0.434768200153485","0.590535999974236","1","1","1","1","1","1","1","1","1"
"250066","img/neutralC/CFD-BM-041-035-N.jpg","img/neutralC/CFD-LF-203-066-N.jpg","img/neutralC/CFD-AM-201-076-N.jpg","1","1","1","0","0","1","0.590535999974236","0.577853600028902","0.508992299903184","1","1","1","1","1","1","1","1","1"
"250066","img/neutralC/CFD-AM-201-076-N.jpg","img/neutralC/CFD-BM-041-035-N.jpg","img/neutralC/CFD-WM-011-002-N.jpg","1","1","1","1","0","0","0.508992299903184","0.590535999974236","0.476856499910355","1","1","1","1","1","1","1","1","1"
"250066","img/neutralC/CFD-WM-011-002-N.jpg","img/neutralC/CFD-AM-201-076-N.jpg","img/neutralC/CFD-LM-215-247-N.jpg","1","1","1","0","1","0","0.476856499910355","0.508992299903184","0.477515699807554","1","1","1","1","1","1","1","1","1"
"250066","img/neutralC/CFD-LM-215-247-N.jpg","img/neutralC/CFD-WM-011-002-N.jpg","img/neutralC/CFD-IM-651-308-N.jpg","1","1","1","0","0","0","0.477515699807554","0.476856499910355","0.510859099915251","1","1","1","1","1","1","1","1","1"
"250066","img/neutralC/CFD-IM-651-308-N.jpg","img/neutralC/CFD-LM-215-247-N.jpg","img/neutralC/CFD-IM-684-008-N.jpg","1","1","1","0","0","1","0.510859099915251","0.477515699807554","0.778131400002167","1","1","1","1","1","1","1","1","1"
"250066","img/neutralC/CFD-IM-684-008-N.jpg","img/neutralC/CFD-IM-651-308-N.jpg","img/neutralC/CFD-WF-224-099-N.jpg","1","1","1","1","0","0","0.778131400002167","0.510859099915251","0.557878100080416","1","1","1","1","1","1","1","1","1"
"250066","img/neutralC/CFD-WF-224-099-N.jpg","img/neutralC/CFD-IM-684-008-N.jpg","img/neutralC/CFD-BM-033-003-N.jpg","1","1","1","0","1","0","0.557878100080416","0.778131400002167","0.650900400010869","1","1","1","1","1","1","1","1","1"
"250066","img/neutralC/CFD-BM-033-003-N.jpg","img/neutralC/CFD-WF-224-099-N.jpg","img/neutralC/CFD-BF-213-188-N.jpg","1","1","1","0","0","1","0.650900400010869","0.557878100080416","0.547971300082281","1","1","1","1","1","1","1","1","1"
"250066","img/neutralC/CFD-BF-213-188-N.jpg","img/neutralC/CFD-BM-033-003-N.jpg","img/neutralC/CFD-LF-230-203-N.jpg","1","1","1","1","0","0","0.547971300082281","0.650900400010869","0.59707530005835","1","1","1","1","1","1","1","1","1"
"250066","img/neutralC/CFD-LF-230-203-N.jpg","img/neutralC/CFD-BF-213-188-N.jpg","img/neutralC/CFD-BM-239-136-N.jpg","1","1","1","0","1","1","0.59707530005835","0.547971300082281","0.574956800090149","1","1","1","1","1","1","1","1","1"
"250066","img/neutralC/CFD-BM-239-136-N.jpg","img/neutralC/CFD-LF-230-203-N.jpg",NA,"1","1",NA,"1","0",NA,"0.574956800090149","0.59707530005835",NA,"1","1",NA,"1","1",NA,"1","1",NA
"250066","img/neutralC/CFD-IM-675-015-N.jpg",NA,"img/neutralC/CFD-IM-685-004-N.jpg","1",NA,"1","1",NA,"1","0.634202599991113",NA,"0.585086099803448","1",NA,"1","1",NA,"1","1",NA,"1"
"250066","img/neutralC/CFD-IM-685-004-N.jpg","img/neutralC/CFD-IM-675-015-N.jpg","img/neutralC/CFD-AF-215-70-N.jpg","1","1","1","1","1","0","0.585086099803448","0.634202599991113","0.505816499935463","1","1","1","1","1","1","1","1","1"
"250066","img/neutralC/CFD-AF-215-70-N.jpg","img/neutralC/CFD-IM-685-004-N.jpg","img/neutralC/CFD-LM-217-162-N.jpg","1","1","1","0","1","0","0.505816499935463","0.585086099803448","0.456668500090018","1","1","1","1","1","1","1","1","1"
"250066","img/neutralC/CFD-LM-217-162-N.jpg","img/neutralC/CFD-AF-215-70-N.jpg","img/neutralC/CFD-WF-012-002-N.jpg","1","1","1","0","0","1","0.456668500090018","0.505816499935463","0.547291700029746","1","1","1","1","1","1","1","1","1"
"250066","img/neutralC/CFD-WF-012-002-N.jpg","img/neutralC/CFD-LM-217-162-N.jpg","img/neutralC/CFD-AF-254-167-N.jpg","1","1","1","1","0","1","0.547291700029746","0.456668500090018","0.547535300021991","1","1","1","1","1","1","1","1","1"
"250066","img/neutralC/CFD-AF-254-167-N.jpg","img/neutralC/CFD-WF-012-002-N.jpg","img/neutralC/CFD-IM-709-103-N.jpg","1","1","1","1","1","0","0.547535300021991","0.547291700029746","0.553667699918151","1","1","1","1","1","1","1","1","1"
"250066","img/neutralC/CFD-IM-709-103-N.jpg","img/neutralC/CFD-AF-254-167-N.jpg","img/neutralC/CFD-AM-236-090-N.jpg","1","1","1","0","1","1","0.553667699918151","0.547535300021991","0.446327700046822","1","1","1","1","1","1","1","1","1"
"250066","img/neutralC/CFD-AM-236-090-N.jpg","img/neutralC/CFD-IM-709-103-N.jpg","img/neutralC/CFD-WF-212-050-N.jpg","1","1","1","1","0","0","0.446327700046822","0.553667699918151","0.483700799988583","1","1","1","1","1","1","1","1","1"
"250066","img/neutralC/CFD-WF-212-050-N.jpg","img/neutralC/CFD-AM-236-090-N.jpg","img/neutralC/CFD-WM-024-015-N.jpg","1","1","1","0","1","1","0.483700799988583","0.446327700046822","0.724123300053179","1","1","1","1","1","1","1","1","1"
"250066","img/neutralC/CFD-WM-024-015-N.jpg","img/neutralC/CFD-WF-212-050-N.jpg","img/neutralC/CFD-IF-608-390-N.jpg","1","1","1","1","0","1","0.724123300053179","0.483700799988583","0.455183999845758","1","1","1","1","1","1","1","1","1"
"250066","img/neutralC/CFD-IF-608-390-N.jpg","img/neutralC/CFD-WM-024-015-N.jpg","img/neutralC/CFD-IM-637-007-N.jpg","1","1","1","1","1","0","0.455183999845758","0.724123300053179","0.456678200047463","1","1","1","1","1","1","1","1","1"
"250066","img/neutralC/CFD-IM-637-007-N.jpg","img/neutralC/CFD-IF-608-390-N.jpg","img/neutralC/CFD-WM-213-076-N.jpg","1","1","1","0","1","1","0.456678200047463","0.455183999845758","0.409197799861431","1","1","1","1","1","1","1","1","1"
"250066","img/neutralC/CFD-WM-213-076-N.jpg","img/neutralC/CFD-IM-637-007-N.jpg","img/neutralC/CFD-BF-043-003-N.jpg","1","1","1","1","0","0","0.409197799861431","0.456678200047463","0.523999400204048","1","1","1","1","1","1","1","1","1"
"250066","img/neutralC/CFD-BF-043-003-N.jpg","img/neutralC/CFD-WM-213-076-N.jpg","img/neutralC/CFD-WF-217-085-N.jpg","1","1","1","0","1","1","0.523999400204048","0.409197799861431","0.564184000017121","1","1","1","1","1","1","1","1","1"
"250066","img/neutralC/CFD-WF-217-085-N.jpg","img/neutralC/CFD-BF-043-003-N.jpg","img/neutralC/CFD-MM-304-002-N.jpg","1","1","1","1","0","1","0.564184000017121","0.523999400204048","0.521982599981129","1","1","1","1","1","1","1","1","1"
"250066","img/neutralC/CFD-MM-304-002-N.jpg","img/neutralC/CFD-WF-217-085-N.jpg","img/neutralC/CFD-LF-201-035-N.jpg","1","1","1","1","1","1","0.521982599981129","0.564184000017121","0.440331200137734","1","1","1","1","1","1","1","1","1"
"250066","img/neutralC/CFD-LF-201-035-N.jpg","img/neutralC/CFD-MM-304-002-N.jpg","img/neutralC/CFD-LF-226-174-N.jpg","1","1","1","1","1","0","0.440331200137734","0.521982599981129","0.718548000091687","1","1","1","1","1","1","1","1","1"
"250066","img/neutralC/CFD-LF-226-174-N.jpg","img/neutralC/CFD-LF-201-035-N.jpg","img/neutralC/CFD-BM-243-218-N.jpg","1","1","1","0","1","1","0.718548000091687","0.440331200137734","0.473688900005072","1","1","1","1","1","1","1","1","1"
"250066","img/neutralC/CFD-BM-243-218-N.jpg","img/neutralC/CFD-LF-226-174-N.jpg","img/neutralC/CFD-MF-340-026-N.jpg","1","1","1","1","0","1","0.473688900005072","0.718548000091687","0.535683599999174","1","1","1","1","1","1","1","1","1"
"250066","img/neutralC/CFD-MF-340-026-N.jpg","img/neutralC/CFD-BM-243-218-N.jpg","img/neutralC/CFD-IF-619-197-N.jpg","1","1","1","1","1","0","0.535683599999174","0.473688900005072","0.41194809996523","1","1","1","1","1","1","1","1","1"
"250066","img/neutralC/CFD-IF-619-197-N.jpg","img/neutralC/CFD-MF-340-026-N.jpg","img/neutralC/CFD-MF-300-002-N.jpg","1","1","1","0","1","0","0.41194809996523","0.535683599999174","0.568898799829185","1","1","1","1","1","1","1","1","1"
"250066","img/neutralC/CFD-MF-300-002-N.jpg","img/neutralC/CFD-IF-619-197-N.jpg","img/neutralC/CFD-IM-604-014-N.jpg","1","1","1","0","0","0","0.568898799829185","0.41194809996523","0.441094800131395","1","1","1","1","1","1","1","1","1"
"250066","img/neutralC/CFD-IM-604-014-N.jpg","img/neutralC/CFD-MF-300-002-N.jpg","img/neutralC/CFD-BM-039-029-N.jpg","1","1","1","0","0","1","0.441094800131395","0.568898799829185","0.426938599906862","1","1","1","1","1","1","1","1","1"
"250066","img/neutralC/CFD-BM-039-029-N.jpg","img/neutralC/CFD-IM-604-014-N.jpg","img/neutralC/CFD-AF-229-160-N.jpg","1","1","1","1","0","0","0.426938599906862","0.441094800131395","0.556565599981695","1","1","1","1","1","1","1","1","1"
"250066","img/neutralC/CFD-AF-229-160-N.jpg","img/neutralC/CFD-BM-039-029-N.jpg","img/neutralC/CFD-MF-329-001-N.jpg","1","1","1","0","1","0","0.556565599981695","0.426938599906862","0.586009999969974","1","1","1","1","1","1","1","1","1"
"250066","img/neutralC/CFD-MF-329-001-N.jpg","img/neutralC/CFD-AF-229-160-N.jpg","img/neutralC/CFD-WF-248-129-N.jpg","1","1","1","0","0","0","0.586009999969974","0.556565599981695","0.694658899912611","1","1","1","1","1","1","1","1","1"
"250066","img/neutralC/CFD-WF-248-129-N.jpg","img/neutralC/CFD-MF-329-001-N.jpg","img/neutralC/CFD-BF-224-002-N.jpg","1","1","1","0","0","1","0.694658899912611","0.586009999969974","0.649837099947035","1","1","1","1","1","1","1","1","1"
"250066","img/neutralC/CFD-BF-224-002-N.jpg","img/neutralC/CFD-WF-248-129-N.jpg","img/neutralC/CFD-BF-051-035-N.jpg","1","1","1","1","0","0","0.649837099947035","0.694658899912611","0.479864399880171","1","1","1","1","1","1","1","1","1"
"250066","img/neutralC/CFD-BF-051-035-N.jpg","img/neutralC/CFD-BF-224-002-N.jpg","img/neutralC/CFD-MF-327-002-N.jpg","1","1","1","0","1","0","0.479864399880171","0.649837099947035","0.55210949992761","1","1","1","1","1","1","1","1","1"
"250066","img/neutralC/CFD-MF-327-002-N.jpg","img/neutralC/CFD-BF-051-035-N.jpg","img/neutralC/CFD-WM-232-070-N.jpg","1","1","1","0","0","0","0.55210949992761","0.479864399880171","0.474329400109127","1","1","1","1","1","1","1","1","1"
"250066","img/neutralC/CFD-WM-232-070-N.jpg","img/neutralC/CFD-MF-327-002-N.jpg","img/neutralC/CFD-WF-008-002-N.jpg","1","1","1","0","0","1","0.474329400109127","0.55210949992761","0.51101340004243","1","1","1","1","1","1","1","1","1"
"250066","img/neutralC/CFD-WF-008-002-N.jpg","img/neutralC/CFD-WM-232-070-N.jpg",NA,"1","1",NA,"1","0",NA,"0.51101340004243","0.474329400109127",NA,"1","1",NA,"1","1",NA,"1","1",NA
"250066","img/neutralC/CFD-BF-044-034-N.jpg",NA,"img/neutralC/CFD-AM-230-150-N.jpg","1",NA,"1","0",NA,"0","0.585119900060818",NA,"0.516892000101507","1",NA,"1","1",NA,"1","1",NA,"1"
"250066","img/neutralC/CFD-AM-230-150-N.jpg","img/neutralC/CFD-BF-044-034-N.jpg","img/neutralC/CFD-IF-729-393-N.jpg","1","1","1","0","0","0","0.516892000101507","0.585119900060818","0.574557699961588","1","1","1","1","1","1","1","1","1"
"250066","img/neutralC/CFD-IF-729-393-N.jpg","img/neutralC/CFD-AM-230-150-N.jpg","img/neutralC/CFD-BM-207-024-N.jpg","1","1","1","0","0","1","0.574557699961588","0.516892000101507","0.414709999924526","1","1","1","1","1","1","1","1","1"
"250066","img/neutralC/CFD-BM-207-024-N.jpg","img/neutralC/CFD-IF-729-393-N.jpg","img/neutralC/CFD-IM-707-105-N.jpg","1","1","1","1","0","1","0.414709999924526","0.574557699961588","0.497655699960887","1","1","1","1","1","1","1","1","1"
"250066","img/neutralC/CFD-IM-707-105-N.jpg","img/neutralC/CFD-BM-207-024-N.jpg","img/neutralC/CFD-LM-213-061-N.jpg","1","1","1","1","1","0","0.497655699960887","0.414709999924526","0.424146899953484","1","1","1","1","1","1","1","1","1"
"250066","img/neutralC/CFD-LM-213-061-N.jpg","img/neutralC/CFD-IM-707-105-N.jpg","img/neutralC/CFD-WF-029-002-N.jpg","1","1","1","0","1","0","0.424146899953484","0.497655699960887","0.406901099951938","1","1","1","1","1","1","1","1","1"
"250066","img/neutralC/CFD-WF-029-002-N.jpg","img/neutralC/CFD-LM-213-061-N.jpg","img/neutralC/CFD-WM-034-030-N.jpg","1","1","1","0","0","1","0.406901099951938","0.424146899953484","0.669670099858195","1","1","1","1","1","1","1","1","1"
"250066","img/neutralC/CFD-WM-034-030-N.jpg","img/neutralC/CFD-WF-029-002-N.jpg","img/neutralC/CFD-BM-241-235-N.jpg","1","1","1","1","0","0","0.669670099858195","0.406901099951938","0.511734600178897","1","1","1","1","1","1","1","1","1"
"250066","img/neutralC/CFD-BM-241-235-N.jpg","img/neutralC/CFD-WM-034-030-N.jpg","img/neutralC/CFD-BF-036-027-N.jpg","1","1","1","0","1","0","0.511734600178897","0.669670099858195","0.468229499878362","1","1","1","1","1","1","1","1","1"
"250066","img/neutralC/CFD-BF-036-027-N.jpg","img/neutralC/CFD-BM-241-235-N.jpg","img/neutralC/CFD-IM-726-248-N.jpg","1","1","1","0","0","0","0.468229499878362","0.511734600178897","0.52863710001111","1","1","1","1","1","1","1","1","1"
"250066","img/neutralC/CFD-IM-726-248-N.jpg","img/neutralC/CFD-BF-036-027-N.jpg","img/neutralC/CFD-BF-006-017-N.jpg","1","1","1","0","0","0","0.52863710001111","0.468229499878362","0.392435200046748","1","1","1","1","1","1","1","1","1"
"250066","img/neutralC/CFD-BF-006-017-N.jpg","img/neutralC/CFD-IM-726-248-N.jpg","img/neutralC/CFD-MF-301-024-N.jpg","1","1","1","0","0","0","0.392435200046748","0.52863710001111","0.527414300013334","1","1","1","1","1","1","1","1","1"
"250066","img/neutralC/CFD-MF-301-024-N.jpg","img/neutralC/CFD-BF-006-017-N.jpg","img/neutralC/CFD-BF-236-177-N.jpg","1","1","1","0","0","0","0.527414300013334","0.392435200046748","0.427334999898449","1","1","1","1","1","1","1","1","1"
"250066","img/neutralC/CFD-BF-236-177-N.jpg","img/neutralC/CFD-MF-301-024-N.jpg","img/neutralC/CFD-BM-036-003-N.jpg","1","1","1","0","0","1","0.427334999898449","0.527414300013334","0.397983300033957","1","1","1","1","1","1","1","1","1"
"250066","img/neutralC/CFD-BM-036-003-N.jpg","img/neutralC/CFD-BF-236-177-N.jpg","img/neutralC/CFD-IM-721-341-N.jpg","1","1","1","1","0","1","0.397983300033957","0.427334999898449","0.516520799836144","1","1","1","1","1","1","1","1","1"
"250066","img/neutralC/CFD-IM-721-341-N.jpg","img/neutralC/CFD-BM-036-003-N.jpg","img/neutralC/CFD-WM-248-036-N.jpg","1","1","1","1","1","1","0.516520799836144","0.397983300033957","0.325559800025076","1","1","1","1","1","1","1","1","1"
"250066","img/neutralC/CFD-WM-248-036-N.jpg","img/neutralC/CFD-IM-721-341-N.jpg","img/neutralC/CFD-LF-204-133-N.jpg","1","1","1","1","1","1","0.325559800025076","0.516520799836144","0.590388600016013","1","1","1","1","1","1","1","1","1"
"250066","img/neutralC/CFD-LF-204-133-N.jpg","img/neutralC/CFD-WM-248-036-N.jpg","img/neutralC/CFD-BF-214-308-N.jpg","1","1","1","1","1","1","0.590388600016013","0.325559800025076","0.433352300198749","1","1","1","1","1","1","1","1","1"
"250066","img/neutralC/CFD-BF-214-308-N.jpg","img/neutralC/CFD-LF-204-133-N.jpg","img/neutralC/CFD-WF-233-112-N.jpg","1","1","1","1","1","1","0.433352300198749","0.590388600016013","0.417953199939802","1","1","1","1","1","1","1","1","1"
"250066","img/neutralC/CFD-WF-233-112-N.jpg","img/neutralC/CFD-BF-214-308-N.jpg","img/neutralC/CFD-IF-677-452-1-N.jpg","1","1","1","1","1","1","0.417953199939802","0.433352300198749","0.383844200056046","1","1","1","1","1","1","1","1","1"
"250066","img/neutralC/CFD-IF-677-452-1-N.jpg","img/neutralC/CFD-WF-233-112-N.jpg","img/neutralC/CFD-IM-696-001-N.jpg","1","1","1","1","1","0","0.383844200056046","0.417953199939802","0.29351200000383","1","1","1","1","1","1","1","1","1"
"250066","img/neutralC/CFD-IM-696-001-N.jpg","img/neutralC/CFD-IF-677-452-1-N.jpg","img/neutralC/CFD-WM-014-002-N.jpg","1","1","1","0","1","0","0.29351200000383","0.383844200056046","0.370604600058869","1","1","1","1","1","1","1","1","1"
"250066","img/neutralC/CFD-WM-014-002-N.jpg","img/neutralC/CFD-IM-696-001-N.jpg","img/neutralC/CFD-WF-234-086-N.jpg","1","1","1","0","0","1","0.370604600058869","0.29351200000383","0.394198499852791","1","1","1","1","1","1","1","1","1"
"250066","img/neutralC/CFD-WF-234-086-N.jpg","img/neutralC/CFD-WM-014-002-N.jpg","img/neutralC/CFD-BF-002-001-N.jpg","1","1","1","1","0","0","0.394198499852791","0.370604600058869","0.379009099910036","1","1","1","1","1","1","1","1","1"
"250066","img/neutralC/CFD-BF-002-001-N.jpg","img/neutralC/CFD-WF-234-086-N.jpg","img/neutralC/CFD-BF-207-004-N.jpg","1","1","1","0","1","1","0.379009099910036","0.394198499852791","0.416582100093365","1","1","1","1","1","1","1","1","1"
"250066","img/neutralC/CFD-BF-207-004-N.jpg","img/neutralC/CFD-BF-002-001-N.jpg","img/neutralC/CFD-BF-011-002-N.jpg","1","1","1","1","0","1","0.416582100093365","0.379009099910036","0.497534000081941","1","1","1","1","1","1","1","1","1"
"250066","img/neutralC/CFD-BF-011-002-N.jpg","img/neutralC/CFD-BF-207-004-N.jpg","img/neutralC/CFD-BF-027-002-N.jpg","1","1","1","1","1","1","0.497534000081941","0.416582100093365","0.501988200005144","1","1","1","1","1","1","1","1","1"
"250066","img/neutralC/CFD-BF-027-002-N.jpg","img/neutralC/CFD-BF-011-002-N.jpg","img/neutralC/CFD-BM-238-242-N.jpg","1","1","1","1","1","0","0.501988200005144","0.497534000081941","0.543834999902174","1","1","1","1","1","1","1","1","1"
"250066","img/neutralC/CFD-BM-238-242-N.jpg","img/neutralC/CFD-BF-027-002-N.jpg","img/neutralC/CFD-WF-208-068-N.jpg","1","1","1","0","1","1","0.543834999902174","0.501988200005144","0.354026400018483","1","1","1","1","1","1","1","1","1"
"250066","img/neutralC/CFD-WF-208-068-N.jpg","img/neutralC/CFD-BM-238-242-N.jpg","img/neutralC/CFD-IF-742-103-N.jpg","1","1","1","1","0","1","0.354026400018483","0.543834999902174","0.356055499985814","1","1","1","1","1","1","1","1","1"
"250066","img/neutralC/CFD-IF-742-103-N.jpg","img/neutralC/CFD-WF-208-068-N.jpg","img/neutralC/CFD-BF-247-179-N.jpg","1","1","1","1","1","0","0.356055499985814","0.354026400018483","0.450012099929154","1","1","1","1","1","1","1","1","1"
"250066","img/neutralC/CFD-BF-247-179-N.jpg","img/neutralC/CFD-IF-742-103-N.jpg",NA,"1","1",NA,"0","1",NA,"0.450012099929154","0.356055499985814",NA,"1","1",NA,"1","1",NA,"1","1",NA
"250066","img/neutralC/CFD-WM-209-038-N.jpg",NA,"img/neutralC/CFD-MF-303-013-N.jpg","1",NA,"0","0",NA,"0","0.762536299880594",NA,NA,"1",NA,"0","1",NA,"0","1",NA,"0"
"250066","img/neutralC/CFD-MF-303-013-N.jpg","img/neutralC/CFD-WM-209-038-N.jpg","img/neutralC/CFD-AM-220-134-N.jpg","0","1","1","0","0","0",NA,"0.762536299880594","0.67525490000844","0","1","1","0","1","1","0","1","1"
"250066","img/neutralC/CFD-AM-220-134-N.jpg","img/neutralC/CFD-MF-303-013-N.jpg","img/neutralC/CFD-WF-030-002-N.jpg","1","0","1","0","0","0","0.67525490000844",NA,"0.470383499981835","1","0","1","1","0","1","1","0","1"
"250066","img/neutralC/CFD-WF-030-002-N.jpg","img/neutralC/CFD-AM-220-134-N.jpg","img/neutralC/CFD-IM-667-369-N.jpg","1","1","1","0","0","0","0.470383499981835","0.67525490000844","0.580405100015923","1","1","1","1","1","1","1","1","1"
"250066","img/neutralC/CFD-IM-667-369-N.jpg","img/neutralC/CFD-WF-030-002-N.jpg","img/neutralC/CFD-IF-626-375-N.jpg","1","1","1","0","0","0","0.580405100015923","0.470383499981835","0.534104299964383","1","1","1","1","1","1","1","1","1"
"250066","img/neutralC/CFD-IF-626-375-N.jpg","img/neutralC/CFD-IM-667-369-N.jpg","img/neutralC/CFD-BM-001-014-N.jpg","1","1","1","0","0","0","0.534104299964383","0.580405100015923","0.481421199860051","1","1","1","1","1","1","1","1","1"
"250066","img/neutralC/CFD-BM-001-014-N.jpg","img/neutralC/CFD-IF-626-375-N.jpg","img/neutralC/CFD-IM-706-002-N.jpg","1","1","1","0","0","0","0.481421199860051","0.534104299964383","0.4355051999446","1","1","1","1","1","1","1","1","1"
"250066","img/neutralC/CFD-IM-706-002-N.jpg","img/neutralC/CFD-BM-001-014-N.jpg","img/neutralC/CFD-MM-324-069-N.jpg","1","1","1","0","0","1","0.4355051999446","0.481421199860051","0.371704000048339","1","1","1","1","1","1","1","1","1"
"250066","img/neutralC/CFD-MM-324-069-N.jpg","img/neutralC/CFD-IM-706-002-N.jpg","img/neutralC/CFD-WF-007-001-N.jpg","1","1","0","1","0","1","0.371704000048339","0.4355051999446","0.523617999861017","1","1","1","1","1","1","1","1","1"
"250066","img/neutralC/CFD-WF-007-001-N.jpg","img/neutralC/CFD-MM-324-069-N.jpg","img/neutralC/CFD-WM-015-002-N.jpg","0","1","1","1","1","0","0.523617999861017","0.371704000048339","0.458409999962896","1","1","1","1","1","1","1","1","1"
"250066","img/neutralC/CFD-WM-015-002-N.jpg","img/neutralC/CFD-WF-007-001-N.jpg","img/neutralC/CFD-BM-250-170-N.jpg","1","0","1","0","1","1","0.458409999962896","0.523617999861017","0.459379500010982","1","1","1","1","1","1","1","1","1"
"250066","img/neutralC/CFD-BM-250-170-N.jpg","img/neutralC/CFD-WM-015-002-N.jpg","img/neutralC/CFD-IF-660-464-N.jpg","1","1","1","1","0","0","0.459379500010982","0.458409999962896","0.443033399991691","1","1","1","1","1","1","1","1","1"
"250066","img/neutralC/CFD-IF-660-464-N.jpg","img/neutralC/CFD-BM-250-170-N.jpg","img/neutralC/CFD-AF-233-190-N.jpg","1","1","1","0","1","0","0.443033399991691","0.459379500010982","0.576955599943176","1","1","1","1","1","1","1","1","1"
"250066","img/neutralC/CFD-AF-233-190-N.jpg","img/neutralC/CFD-IF-660-464-N.jpg","img/neutralC/CFD-LM-200-045-N.jpg","1","1","1","0","0","1","0.576955599943176","0.443033399991691","0.416482500033453","1","1","1","1","1","1","1","1","1"
"250066","img/neutralC/CFD-LM-200-045-N.jpg","img/neutralC/CFD-AF-233-190-N.jpg","img/neutralC/CFD-IM-664-651-N.jpg","1","1","1","1","0","1","0.416482500033453","0.576955599943176","0.554468600079417","1","1","1","1","1","1","1","1","1"
"250066","img/neutralC/CFD-IM-664-651-N.jpg","img/neutralC/CFD-LM-200-045-N.jpg","img/neutralC/CFD-MF-305-014-N.jpg","1","1","1","1","1","1","0.554468600079417","0.416482500033453","0.432562400121242","1","1","1","1","1","1","1","1","1"
"250066","img/neutralC/CFD-MF-305-014-N.jpg","img/neutralC/CFD-IM-664-651-N.jpg","img/neutralC/CFD-IM-702-101-N.jpg","1","1","1","1","1","1","0.432562400121242","0.554468600079417","0.356233200058341","1","1","1","1","1","1","1","1","1"
"250066","img/neutralC/CFD-IM-702-101-N.jpg","img/neutralC/CFD-MF-305-014-N.jpg","img/neutralC/CFD-MF-316-001-N.jpg","1","1","1","1","1","0","0.356233200058341","0.432562400121242","0.492157999891788","1","1","1","1","1","1","1","1","1"
"250066","img/neutralC/CFD-MF-316-001-N.jpg","img/neutralC/CFD-IM-702-101-N.jpg","img/neutralC/CFD-LF-206-078-N.jpg","1","1","1","0","1","1","0.492157999891788","0.356233200058341","0.424106399994344","1","1","1","1","1","1","1","1","1"
"250066","img/neutralC/CFD-LF-206-078-N.jpg","img/neutralC/CFD-MF-316-001-N.jpg","img/neutralC/CFD-MF-357-002-N.jpg","1","1","1","1","0","0","0.424106399994344","0.492157999891788","0.542752900160849","1","1","1","1","1","1","1","1","1"
"250066","img/neutralC/CFD-MF-357-002-N.jpg","img/neutralC/CFD-LF-206-078-N.jpg","img/neutralC/CFD-BM-217-082-N.jpg","1","1","1","0","1","0","0.542752900160849","0.424106399994344","0.562437599990517","1","1","1","1","1","1","1","1","1"
"250066","img/neutralC/CFD-BM-217-082-N.jpg","img/neutralC/CFD-MF-357-002-N.jpg","img/neutralC/CFD-LF-255-088-N.jpg","1","1","1","0","0","0","0.562437599990517","0.542752900160849","0.524996699998155","1","1","1","1","1","1","1","1","1"
"250066","img/neutralC/CFD-LF-255-088-N.jpg","img/neutralC/CFD-BM-217-082-N.jpg","img/neutralC/CFD-MF-343-001-N.jpg","1","1","1","0","0","1","0.524996699998155","0.562437599990517","0.718959999969229","1","1","1","1","1","1","1","1","1"
"250066","img/neutralC/CFD-MF-343-001-N.jpg","img/neutralC/CFD-LF-255-088-N.jpg","img/neutralC/CFD-WF-244-163-N.jpg","1","1","1","1","0","1","0.718959999969229","0.524996699998155","0.328637800179422","1","1","1","1","1","1","1","1","1"
"250066","img/neutralC/CFD-WF-244-163-N.jpg","img/neutralC/CFD-MF-343-001-N.jpg","img/neutralC/CFD-WM-218-074-N.jpg","1","1","1","1","1","1","0.328637800179422","0.718959999969229","0.372866899939254","1","1","1","1","1","1","1","1","1"
"250066","img/neutralC/CFD-WM-218-074-N.jpg","img/neutralC/CFD-WF-244-163-N.jpg","img/neutralC/CFD-BF-014-002-N.jpg","1","1","1","1","1","1","0.372866899939254","0.328637800179422","0.420631799846888","1","1","1","1","1","1","1","1","1"
"250066","img/neutralC/CFD-BF-014-002-N.jpg","img/neutralC/CFD-WM-218-074-N.jpg","img/neutralC/CFD-AF-253-130-N.jpg","1","1","1","1","1","1","0.420631799846888","0.372866899939254","0.436459199991077","1","1","1","1","1","1","1","1","1"
"250066","img/neutralC/CFD-AF-253-130-N.jpg","img/neutralC/CFD-BF-014-002-N.jpg","img/neutralC/CFD-IM-680-369-N.jpg","1","1","1","1","1","1","0.436459199991077","0.420631799846888","0.408403800101951","1","1","1","1","1","1","1","1","1"
"250066","img/neutralC/CFD-IM-680-369-N.jpg","img/neutralC/CFD-AF-253-130-N.jpg","img/neutralC/CFD-BF-237-172-N.jpg","1","1","1","1","1","1","0.408403800101951","0.436459199991077","0.585021399892867","1","1","1","1","1","1","1","1","1"
"250066","img/neutralC/CFD-BF-237-172-N.jpg","img/neutralC/CFD-IM-680-369-N.jpg","img/neutralC/CFD-LM-225-130-N.jpg","1","1","1","1","1","0","0.585021399892867","0.408403800101951","0.38663849979639","1","1","1","1","1","1","1","1","1"
"250066","img/neutralC/CFD-LM-225-130-N.jpg","img/neutralC/CFD-BF-237-172-N.jpg","img/neutralC/CFD-WF-222-092-N.jpg","1","1","1","0","1","1","0.38663849979639","0.585021399892867","0.453782600117847","1","1","1","1","1","1","1","1","1"
"250066","img/neutralC/CFD-WF-222-092-N.jpg","img/neutralC/CFD-LM-225-130-N.jpg",NA,"1","1",NA,"1","0",NA,"0.453782600117847","0.38663849979639",NA,"1","1",NA,"1","1",NA,"1","1",NA
"250066","img/neutralC/CFD-MF-321-003-N.jpg",NA,"img/neutralC/CFD-BM-200-046-N.jpg","1",NA,"1","0",NA,"0","0.560925799887627",NA,"0.400878800079226","1",NA,"1","1",NA,"1","1",NA,"1"
"250066","img/neutralC/CFD-BM-200-046-N.jpg","img/neutralC/CFD-MF-321-003-N.jpg","img/neutralC/CFD-WF-245-084-N.jpg","1","1","1","0","0","1","0.400878800079226","0.560925799887627","0.360413099871948","1","1","1","1","1","1","1","1","1"
"250066","img/neutralC/CFD-WF-245-084-N.jpg","img/neutralC/CFD-BM-200-046-N.jpg","img/neutralC/CFD-WF-226-095-N.jpg","1","1","1","1","0","1","0.360413099871948","0.400878800079226","0.361385700060055","1","1","1","1","1","1","1","1","1"
"250066","img/neutralC/CFD-WF-226-095-N.jpg","img/neutralC/CFD-WF-245-084-N.jpg","img/neutralC/CFD-BF-018-039-N.jpg","1","1","1","1","1","1","0.361385700060055","0.360413099871948","0.42064020014368","1","1","1","1","1","1","1","1","2"
"250066","img/neutralC/CFD-BF-018-039-N.jpg","img/neutralC/CFD-WF-226-095-N.jpg","img/neutralC/CFD-WF-238-023-N.jpg","1","1","1","1","1","0","0.42064020014368","0.361385700060055","0.455544900149107","1","1","1","1","1","1","2","1","1"
"250066","img/neutralC/CFD-WF-238-023-N.jpg","img/neutralC/CFD-BF-018-039-N.jpg","img/neutralC/CFD-IM-719-221-N.jpg","1","1","1","0","1","0","0.455544900149107","0.42064020014368","0.455173399997875","1","1","1","1","1","1","1","2","1"
"250066","img/neutralC/CFD-IM-719-221-N.jpg","img/neutralC/CFD-WF-238-023-N.jpg","img/neutralC/CFD-WM-009-002-N.jpg","1","1","1","0","0","0","0.455173399997875","0.455544900149107","0.461118400096893","1","1","1","1","1","1","1","1","1"
"250066","img/neutralC/CFD-WM-009-002-N.jpg","img/neutralC/CFD-IM-719-221-N.jpg","img/neutralC/CFD-WM-201-063-N.jpg","1","1","1","0","0","1","0.461118400096893","0.455173399997875","0.439612300135195","1","1","1","1","1","1","1","1","1"
"250066","img/neutralC/CFD-WM-201-063-N.jpg","img/neutralC/CFD-WM-009-002-N.jpg","img/neutralC/CFD-IM-627-178-N.jpg","1","1","1","1","0","1","0.439612300135195","0.461118400096893","0.526660399977118","1","1","1","1","1","1","1","1","1"
"250066","img/neutralC/CFD-IM-627-178-N.jpg","img/neutralC/CFD-WM-201-063-N.jpg","img/neutralC/CFD-BF-254-201-N.jpg","1","1","1","1","1","0","0.526660399977118","0.439612300135195","0.526201299857348","1","1","1","1","1","1","1","1","1"
"250066","img/neutralC/CFD-BF-254-201-N.jpg","img/neutralC/CFD-IM-627-178-N.jpg","img/neutralC/CFD-WM-013-001-N.jpg","1","1","1","0","1","1","0.526201299857348","0.526660399977118","0.406536299968138","1","1","1","1","1","1","1","1","1"
"250066","img/neutralC/CFD-WM-013-001-N.jpg","img/neutralC/CFD-BF-254-201-N.jpg","img/neutralC/CFD-WF-018-017-N.jpg","1","1","1","1","0","1","0.406536299968138","0.526201299857348","0.430195299908519","1","1","1","1","1","1","1","1","1"
"250066","img/neutralC/CFD-WF-018-017-N.jpg","img/neutralC/CFD-WM-013-001-N.jpg","img/neutralC/CFD-WF-027-003-N.jpg","1","1","1","1","1","1","0.430195299908519","0.406536299968138","0.464775799773633","1","1","1","1","1","1","1","1","1"
"250066","img/neutralC/CFD-WF-027-003-N.jpg","img/neutralC/CFD-WF-018-017-N.jpg","img/neutralC/CFD-LF-211-003-N.jpg","1","1","1","1","1","0","0.464775799773633","0.430195299908519","0.580691399984062","1","1","1","1","1","1","1","1","1"
"250066","img/neutralC/CFD-LF-211-003-N.jpg","img/neutralC/CFD-WF-027-003-N.jpg","img/neutralC/CFD-LM-253-075-N.jpg","1","1","1","0","1","0","0.580691399984062","0.464775799773633","0.425971000222489","1","1","1","1","1","1","1","1","1"
"250066","img/neutralC/CFD-LM-253-075-N.jpg","img/neutralC/CFD-LF-211-003-N.jpg","img/neutralC/CFD-BM-204-003-N.jpg","1","1","1","0","0","0","0.425971000222489","0.580691399984062","0.431899900082499","1","1","1","1","1","1","1","1","1"
"250066","img/neutralC/CFD-BM-204-003-N.jpg","img/neutralC/CFD-LM-253-075-N.jpg","img/neutralC/CFD-IM-700-009-N.jpg","1","1","1","0","0","1","0.431899900082499","0.425971000222489","0.430601700209081","1","1","1","1","1","1","1","1","1"
"250066","img/neutralC/CFD-IM-700-009-N.jpg","img/neutralC/CFD-BM-204-003-N.jpg","img/neutralC/CFD-AF-232-078-N.jpg","1","1","1","1","0","1","0.430601700209081","0.431899900082499","0.608627100009471","1","1","1","1","1","1","1","1","1"
"250066","img/neutralC/CFD-AF-232-078-N.jpg","img/neutralC/CFD-IM-700-009-N.jpg","img/neutralC/CFD-BF-218-207-N.jpg","1","1","1","1","1","1","0.608627100009471","0.430601700209081","0.45571929984726","1","1","1","1","1","1","1","1","1"
"250066","img/neutralC/CFD-BF-218-207-N.jpg","img/neutralC/CFD-AF-232-078-N.jpg","img/neutralC/CFD-WF-023-003-N.jpg","1","1","1","1","1","1","0.45571929984726","0.608627100009471","0.393863499863073","1","1","1","1","1","1","1","1","1"
"250066","img/neutralC/CFD-WF-023-003-N.jpg","img/neutralC/CFD-BF-218-207-N.jpg","img/neutralC/CFD-BM-023-029-N.jpg","1","1","1","1","1","1","0.393863499863073","0.45571929984726","0.340752099873498","1","1","1","1","1","1","1","1","1"
"250066","img/neutralC/CFD-BM-023-029-N.jpg","img/neutralC/CFD-WF-023-003-N.jpg","img/neutralC/CFD-AM-244-222-N.jpg","1","1","1","1","1","0","0.340752099873498","0.393863499863073","0.391517199808732","1","1","1","1","1","1","1","1","1"
"250066","img/neutralC/CFD-AM-244-222-N.jpg","img/neutralC/CFD-BM-023-029-N.jpg","img/neutralC/CFD-LF-215-157-N.jpg","1","1","1","0","1","0","0.391517199808732","0.340752099873498","0.500336499884725","1","1","1","1","1","1","1","1","1"
"250066","img/neutralC/CFD-LF-215-157-N.jpg","img/neutralC/CFD-AM-244-222-N.jpg","img/neutralC/CFD-MF-318-022-N.jpg","1","1","1","0","0","1","0.500336499884725","0.391517199808732","0.7241958999075","1","1","1","1","1","1","1","1","1"
"250066","img/neutralC/CFD-MF-318-022-N.jpg","img/neutralC/CFD-LF-215-157-N.jpg","img/neutralC/CFD-MF-342-022-N.jpg","1","1","1","1","0","1","0.7241958999075","0.500336499884725","0.927047900157049","1","1","1","1","1","1","1","1","1"
"250066","img/neutralC/CFD-MF-342-022-N.jpg","img/neutralC/CFD-MF-318-022-N.jpg","img/neutralC/CFD-WM-255-219-N.jpg","1","1","1","1","1","0","0.927047900157049","0.7241958999075","0.437500600004569","1","1","1","1","1","1","1","1","1"
"250066","img/neutralC/CFD-WM-255-219-N.jpg","img/neutralC/CFD-MF-342-022-N.jpg","img/neutralC/CFD-WM-237-052-N.jpg","1","1","1","0","1","1","0.437500600004569","0.927047900157049","0.430069099878892","1","1","1","1","1","1","1","1","1"
"250066","img/neutralC/CFD-WM-237-052-N.jpg","img/neutralC/CFD-WM-255-219-N.jpg","img/neutralC/CFD-IF-629-234-N.jpg","1","1","1","1","0","0","0.430069099878892","0.437500600004569","0.391874300083145","1","1","1","1","1","1","1","1","1"
"250066","img/neutralC/CFD-IF-629-234-N.jpg","img/neutralC/CFD-WM-237-052-N.jpg","img/neutralC/CFD-AF-221-147-N.jpg","1","1","1","0","1","0","0.391874300083145","0.430069099878892","0.563626199960709","1","1","1","1","1","1","1","1","1"
"250066","img/neutralC/CFD-AF-221-147-N.jpg","img/neutralC/CFD-IF-629-234-N.jpg","img/neutralC/CFD-MM-321-021-N.jpg","1","1","1","0","0","0","0.563626199960709","0.391874300083145","0.846384400036186","1","1","1","1","1","1","1","1","1"
"250066","img/neutralC/CFD-MM-321-021-N.jpg","img/neutralC/CFD-AF-221-147-N.jpg","img/neutralC/CFD-WM-221-091-N.jpg","1","1","1","0","0","0","0.846384400036186","0.563626199960709","0.363654699875042","1","1","1","1","1","1","1","1","1"
"250066","img/neutralC/CFD-WM-221-091-N.jpg","img/neutralC/CFD-MM-321-021-N.jpg",NA,"1","1",NA,"0","0",NA,"0.363654699875042","0.846384400036186",NA,"1","1",NA,"1","1",NA,"1","1",NA
"250066","img/neutralC/CFD-IF-623-129-N.jpg",NA,"img/neutralC/CFD-WM-004-010-N.jpg","1",NA,"1","1",NA,"0","0.734994200058281",NA,"0.516299899900332","1",NA,"1","1",NA,"1","1",NA,"1"
"250066","img/neutralC/CFD-WM-004-010-N.jpg","img/neutralC/CFD-IF-623-129-N.jpg","img/neutralC/CFD-IM-743-006-N.jpg","1","1","1","0","1","1","0.516299899900332","0.734994200058281","0.808957900153473","1","1","1","1","1","1","1","1","1"
"250066","img/neutralC/CFD-IM-743-006-N.jpg","img/neutralC/CFD-WM-004-010-N.jpg","img/neutralC/CFD-IM-671-601-N.jpg","1","1","1","1","0","0","0.808957900153473","0.516299899900332","0.414481100160629","1","1","1","1","1","1","1","1","1"
"250066","img/neutralC/CFD-IM-671-601-N.jpg","img/neutralC/CFD-IM-743-006-N.jpg","img/neutralC/CFD-LF-218-072-N.jpg","1","1","1","0","1","0","0.414481100160629","0.808957900153473","0.447942599887028","1","1","1","1","1","1","1","1","1"
"250066","img/neutralC/CFD-LF-218-072-N.jpg","img/neutralC/CFD-IM-671-601-N.jpg","img/neutralC/CFD-IF-650-315-N.jpg","1","1","1","0","0","0","0.447942599887028","0.414481100160629","0.640271099982783","1","1","1","1","1","1","1","1","1"
"250066","img/neutralC/CFD-IF-650-315-N.jpg","img/neutralC/CFD-LF-218-072-N.jpg","img/neutralC/CFD-AM-242-176-N.jpg","1","1","1","0","0","1","0.640271099982783","0.447942599887028","0.382362799951807","1","1","1","1","1","1","1","1","1"
"250066","img/neutralC/CFD-AM-242-176-N.jpg","img/neutralC/CFD-IF-650-315-N.jpg","img/neutralC/CFD-AM-211-052-N.jpg","1","1","1","1","0","1","0.382362799951807","0.640271099982783","0.429353900020942","1","1","1","1","1","1","1","1","1"
"250066","img/neutralC/CFD-AM-211-052-N.jpg","img/neutralC/CFD-AM-242-176-N.jpg","img/neutralC/CFD-LM-228-188-N.jpg","1","1","1","1","1","1","0.429353900020942","0.382362799951807","0.386758599895984","1","1","1","1","1","1","1","1","1"
"250066","img/neutralC/CFD-LM-228-188-N.jpg","img/neutralC/CFD-AM-211-052-N.jpg","img/neutralC/CFD-BM-253-004-N.jpg","1","1","1","1","1","1","0.386758599895984","0.429353900020942","0.314380099996924","1","1","1","1","1","1","1","1","1"
"250066","img/neutralC/CFD-BM-253-004-N.jpg","img/neutralC/CFD-LM-228-188-N.jpg","img/neutralC/CFD-BF-038-037-N.jpg","1","1","1","1","1","1","0.314380099996924","0.386758599895984","0.436147900065407","1","1","1","1","1","1","1","1","1"
"250066","img/neutralC/CFD-BF-038-037-N.jpg","img/neutralC/CFD-BM-253-004-N.jpg","img/neutralC/CFD-WF-200-099-N.jpg","1","1","1","1","1","0","0.436147900065407","0.314380099996924","0.562865999992937","1","1","1","1","1","1","1","1","1"
"250066","img/neutralC/CFD-WF-200-099-N.jpg","img/neutralC/CFD-BF-038-037-N.jpg","img/neutralC/CFD-MF-359-019-N.jpg","1","1","1","0","1","0","0.562865999992937","0.436147900065407","0.340597199974582","1","1","1","1","1","1","1","1","1"
"250066","img/neutralC/CFD-MF-359-019-N.jpg","img/neutralC/CFD-WF-200-099-N.jpg","img/neutralC/CFD-WM-219-008-N.jpg","1","1","1","0","0","0","0.340597199974582","0.562865999992937","0.398606400005519","1","1","1","1","1","1","1","1","1"
"250066","img/neutralC/CFD-WM-219-008-N.jpg","img/neutralC/CFD-MF-359-019-N.jpg","img/neutralC/CFD-WF-001-003-N.jpg","1","1","1","0","0","1","0.398606400005519","0.340597199974582","0.380012300098315","1","1","1","1","1","1","1","1","1"
"250066","img/neutralC/CFD-WF-001-003-N.jpg","img/neutralC/CFD-WM-219-008-N.jpg","img/neutralC/CFD-MF-352-054-N.jpg","1","1","1","1","0","0","0.380012300098315","0.398606400005519","0.43118520011194","1","1","1","1","1","1","1","1","1"
"250066","img/neutralC/CFD-MF-352-054-N.jpg","img/neutralC/CFD-WF-001-003-N.jpg","img/neutralC/CFD-WM-033-025-N.jpg","1","1","1","0","1","1","0.43118520011194","0.380012300098315","0.525751300156116","1","1","1","1","1","1","1","1","1"
"250066","img/neutralC/CFD-WM-033-025-N.jpg","img/neutralC/CFD-MF-352-054-N.jpg","img/neutralC/CFD-BF-232-187-N.jpg","1","1","1","1","0","1","0.525751300156116","0.43118520011194","0.393056300003082","1","1","1","1","1","1","1","1","1"
"250066","img/neutralC/CFD-BF-232-187-N.jpg","img/neutralC/CFD-WM-033-025-N.jpg","img/neutralC/CFD-LM-237-264-N.jpg","1","1","1","1","1","0","0.393056300003082","0.525751300156116","0.370620500063524","1","1","1","1","1","1","1","1","1"
"250066","img/neutralC/CFD-LM-237-264-N.jpg","img/neutralC/CFD-BF-232-187-N.jpg","img/neutralC/CFD-AM-251-124-N.jpg","1","1","1","0","1","0","0.370620500063524","0.393056300003082","0.541574599919841","1","1","1","1","1","1","1","1","1"
"250066","img/neutralC/CFD-AM-251-124-N.jpg","img/neutralC/CFD-LM-237-264-N.jpg","img/neutralC/CFD-BF-226-119-N.jpg","1","1","1","0","0","1","0.541574599919841","0.370620500063524","0.761728000128642","1","1","1","1","1","1","1","1","1"
"250066","img/neutralC/CFD-BF-226-119-N.jpg","img/neutralC/CFD-AM-251-124-N.jpg","img/neutralC/CFD-IM-703-182-N.jpg","1","1","1","1","0","1","0.761728000128642","0.541574599919841","0.410758899990469","1","1","1","1","1","1","1","1","1"
"250066","img/neutralC/CFD-IM-703-182-N.jpg","img/neutralC/CFD-BF-226-119-N.jpg","img/neutralC/CFD-LF-220-120-N.jpg","1","1","1","1","1","1","0.410758899990469","0.761728000128642","0.389587600016966","1","1","1","1","1","1","1","1","1"
"250066","img/neutralC/CFD-LF-220-120-N.jpg","img/neutralC/CFD-IM-703-182-N.jpg","img/neutralC/CFD-IM-616-214-N.jpg","1","1","1","1","1","0","0.389587600016966","0.410758899990469","0.459275200031698","1","1","1","1","1","1","1","1","1"
"250066","img/neutralC/CFD-IM-616-214-N.jpg","img/neutralC/CFD-LF-220-120-N.jpg","img/neutralC/CFD-BF-229-179-N.jpg","1","1","1","0","1","0","0.459275200031698","0.389587600016966","0.444446299923584","1","1","1","1","1","1","1","1","1"
"250066","img/neutralC/CFD-BF-229-179-N.jpg","img/neutralC/CFD-IM-616-214-N.jpg","img/neutralC/CFD-WF-214-122-N.jpg","1","1","1","0","0","1","0.444446299923584","0.459275200031698","0.403171699959785","1","1","1","1","1","1","1","1","1"
"250066","img/neutralC/CFD-WF-214-122-N.jpg","img/neutralC/CFD-BF-229-179-N.jpg","img/neutralC/CFD-WM-020-001-N.jpg","1","1","1","1","0","1","0.403171699959785","0.444446299923584","0.447346800006926","1","1","1","1","1","1","1","1","1"
"250066","img/neutralC/CFD-WM-020-001-N.jpg","img/neutralC/CFD-WF-214-122-N.jpg","img/neutralC/CFD-WM-235-147-N.jpg","1","1","1","1","1","0","0.447346800006926","0.403171699959785","0.421866799937561","1","1","1","1","1","1","1","1","1"
"250066","img/neutralC/CFD-WM-235-147-N.jpg","img/neutralC/CFD-WM-020-001-N.jpg","img/neutralC/CFD-MF-333-012-N.jpg","1","1","1","0","1","0","0.421866799937561","0.447346800006926","0.585142500000075","1","1","1","1","1","1","1","1","1"
"250066","img/neutralC/CFD-MF-333-012-N.jpg","img/neutralC/CFD-WM-235-147-N.jpg","img/neutralC/CFD-BM-225-154-N.jpg","1","1","1","0","0","1","0.585142500000075","0.421866799937561","0.515378199983388","1","1","1","1","1","1","1","1","1"
"250066","img/neutralC/CFD-BM-225-154-N.jpg","img/neutralC/CFD-MF-333-012-N.jpg","img/neutralC/CFD-IM-645-001-N.jpg","1","1","1","1","0","0","0.515378199983388","0.585142500000075","0.513118700124323","1","1","1","1","1","1","1","1","1"
"250066","img/neutralC/CFD-IM-645-001-N.jpg","img/neutralC/CFD-BM-225-154-N.jpg","img/neutralC/CFD-WF-036-023-N.jpg","1","1","1","0","1","0","0.513118700124323","0.515378199983388","0.415386500069872","1","1","1","1","1","1","1","1","1"
"250066","img/neutralC/CFD-WF-036-023-N.jpg","img/neutralC/CFD-IM-645-001-N.jpg",NA,"1","1",NA,"0","0",NA,"0.415386500069872","0.513118700124323",NA,"1","1",NA,"1","1",NA,"1","1",NA
"250066","img/neutralC/CFD-MF-336-016-N.jpg",NA,"img/neutralC/CFD-IM-701-312-N.jpg","1",NA,"1","1",NA,"0","0.569968400057405",NA,"0.466645600041375","1",NA,"1","1",NA,"1","1",NA,"1"
"250066","img/neutralC/CFD-IM-701-312-N.jpg","img/neutralC/CFD-MF-336-016-N.jpg","img/neutralC/CFD-LF-208-127-N.jpg","1","1","1","0","1","0","0.466645600041375","0.569968400057405","0.444624500116333","1","1","1","1","1","1","1","1","1"
"250066","img/neutralC/CFD-LF-208-127-N.jpg","img/neutralC/CFD-IM-701-312-N.jpg","img/neutralC/CFD-AM-221-184-N.jpg","1","1","1","0","0","1","0.444624500116333","0.466645600041375","0.412330799968913","1","1","1","1","1","1","1","1","1"
"250066","img/neutralC/CFD-AM-221-184-N.jpg","img/neutralC/CFD-LF-208-127-N.jpg","img/neutralC/CFD-MF-312-002-N.jpg","1","1","1","1","0","1","0.412330799968913","0.444624500116333","0.349221500102431","1","1","1","1","1","1","1","1","1"
"250066","img/neutralC/CFD-MF-312-002-N.jpg","img/neutralC/CFD-AM-221-184-N.jpg","img/neutralC/CFD-BM-003-003-N.jpg","1","1","1","1","1","0","0.349221500102431","0.412330799968913","0.425530599895865","1","1","1","1","1","1","1","1","1"
"250066","img/neutralC/CFD-BM-003-003-N.jpg","img/neutralC/CFD-MF-312-002-N.jpg","img/neutralC/CFD-WF-033-002-N.jpg","1","1","1","0","1","1","0.425530599895865","0.349221500102431","0.48755279998295","1","1","1","1","1","1","1","1","1"
"250066","img/neutralC/CFD-WF-033-002-N.jpg","img/neutralC/CFD-BM-003-003-N.jpg","img/neutralC/CFD-BF-004-014-N.jpg","1","1","1","1","0","1","0.48755279998295","0.425530599895865","0.39682890009135","1","1","1","1","1","1","1","1","1"
"250066","img/neutralC/CFD-BF-004-014-N.jpg","img/neutralC/CFD-WF-033-002-N.jpg","img/neutralC/CFD-BM-213-134-N.jpg","1","1","1","1","1","1","0.39682890009135","0.48755279998295","0.3020520999562","1","1","1","1","1","1","1","1","1"
"250066","img/neutralC/CFD-BM-213-134-N.jpg","img/neutralC/CFD-BF-004-014-N.jpg","img/neutralC/CFD-WM-228-065-N.jpg","1","1","1","1","1","0","0.3020520999562","0.39682890009135","0.427645700052381","1","1","1","1","1","1","1","1","2"
"250066","img/neutralC/CFD-WM-228-065-N.jpg","img/neutralC/CFD-BM-213-134-N.jpg","img/neutralC/CFD-BM-028-002-N.jpg","1","1","1","0","1","1","0.427645700052381","0.3020520999562","0.348546299850568","1","1","1","1","1","1","2","1","2"
"250066","img/neutralC/CFD-BM-028-002-N.jpg","img/neutralC/CFD-WM-228-065-N.jpg","img/neutralC/CFD-AF-210-050-N.jpg","1","1","1","1","0","1","0.348546299850568","0.427645700052381","0.396330900024623","1","1","1","1","1","1","2","2","1"
"250066","img/neutralC/CFD-AF-210-050-N.jpg","img/neutralC/CFD-BM-028-002-N.jpg","img/neutralC/CFD-WF-223-133-N.jpg","1","1","1","1","1","0","0.396330900024623","0.348546299850568","0.47661089990288","1","1","1","1","1","1","1","2","1"
"250066","img/neutralC/CFD-WF-223-133-N.jpg","img/neutralC/CFD-AF-210-050-N.jpg","img/neutralC/CFD-BM-010-003-N.jpg","1","1","1","0","1","0","0.47661089990288","0.396330900024623","0.483029399998486","1","1","1","1","1","1","1","1","1"
"250066","img/neutralC/CFD-BM-010-003-N.jpg","img/neutralC/CFD-WF-223-133-N.jpg","img/neutralC/CFD-IM-738-191-N.jpg","1","1","0","0","0","0","0.483029399998486","0.47661089990288","0.909345099935308","1","1","1","1","1","1","1","1","1"
"250066","img/neutralC/CFD-IM-738-191-N.jpg","img/neutralC/CFD-BM-010-003-N.jpg","img/neutralC/CFD-IM-659-359-N.jpg","0","1","1","0","0","0","0.909345099935308","0.483029399998486","0.594803499989212","1","1","1","1","1","1","1","1","1"
"250066","img/neutralC/CFD-IM-659-359-N.jpg","img/neutralC/CFD-IM-738-191-N.jpg","img/neutralC/CFD-AF-239-171-N.jpg","1","0","1","0","0","1","0.594803499989212","0.909345099935308","0.362011300167069","1","1","1","1","1","1","1","1","1"
"250066","img/neutralC/CFD-AF-239-171-N.jpg","img/neutralC/CFD-IM-659-359-N.jpg","img/neutralC/CFD-IF-673-389-N.jpg","1","1","1","1","0","0","0.362011300167069","0.594803499989212","0.481819199863821","1","1","1","1","1","1","1","1","1"
"250066","img/neutralC/CFD-IF-673-389-N.jpg","img/neutralC/CFD-AF-239-171-N.jpg","img/neutralC/CFD-LF-210-220-N.jpg","1","1","1","0","1","1","0.481819199863821","0.362011300167069","0.380793299991638","1","1","1","1","1","1","1","1","1"
"250066","img/neutralC/CFD-LF-210-220-N.jpg","img/neutralC/CFD-IF-673-389-N.jpg","img/neutralC/CFD-LM-238-129-N.jpg","1","1","1","1","0","1","0.380793299991638","0.481819199863821","0.354224800132215","1","1","1","1","1","1","1","1","1"
"250066","img/neutralC/CFD-LM-238-129-N.jpg","img/neutralC/CFD-LF-210-220-N.jpg","img/neutralC/CFD-WM-202-107-N.jpg","1","1","1","1","1","1","0.354224800132215","0.380793299991638","0.458420200040564","1","1","1","1","1","1","1","1","1"
"250066","img/neutralC/CFD-WM-202-107-N.jpg","img/neutralC/CFD-LM-238-129-N.jpg","img/neutralC/CFD-AF-227-207-N.jpg","1","1","1","1","1","1","0.458420200040564","0.354224800132215","0.539330200059339","1","1","1","1","1","1","1","1","1"
"250066","img/neutralC/CFD-AF-227-207-N.jpg","img/neutralC/CFD-WM-202-107-N.jpg","img/neutralC/CFD-WM-254-152-N.jpg","1","1","1","1","1","1","0.539330200059339","0.458420200040564","0.573693100130185","1","1","1","1","1","1","1","1","1"
"250066","img/neutralC/CFD-WM-254-152-N.jpg","img/neutralC/CFD-AF-227-207-N.jpg","img/neutralC/CFD-IF-625-225-N.jpg","1","1","1","1","1","0","0.573693100130185","0.539330200059339","0.748260600026697","1","1","1","1","1","1","1","1","1"
"250066","img/neutralC/CFD-IF-625-225-N.jpg","img/neutralC/CFD-WM-254-152-N.jpg","img/neutralC/CFD-LF-241-188-N.jpg","1","1","1","0","1","0","0.748260600026697","0.573693100130185","0.476523400051519","1","1","1","1","1","1","1","1","1"
"250066","img/neutralC/CFD-LF-241-188-N.jpg","img/neutralC/CFD-IF-625-225-N.jpg","img/neutralC/CFD-BF-222-240-N.jpg","1","1","0","0","0","0","0.476523400051519","0.748260600026697","0.612320999847725","1","1","1","1","1","1","1","1","1"
"250066","img/neutralC/CFD-BF-222-240-N.jpg","img/neutralC/CFD-LF-241-188-N.jpg","img/neutralC/CFD-WF-006-002-N.jpg","0","1","1","0","0","0","0.612320999847725","0.476523400051519","0.763567399932072","1","1","1","1","1","1","1","1","1"
"250066","img/neutralC/CFD-WF-006-002-N.jpg","img/neutralC/CFD-BF-222-240-N.jpg","img/neutralC/CFD-BM-013-002-N.jpg","1","0","1","0","0","1","0.763567399932072","0.612320999847725","0.473951800027862","1","1","1","1","1","1","1","1","1"
"250066","img/neutralC/CFD-BM-013-002-N.jpg","img/neutralC/CFD-WF-006-002-N.jpg","img/neutralC/CFD-IF-744-114-N.jpg","1","1","1","1","0","0","0.473951800027862","0.763567399932072","0.590239200042561","1","1","1","1","1","1","1","1","1"
"250066","img/neutralC/CFD-IF-744-114-N.jpg","img/neutralC/CFD-BM-013-002-N.jpg","img/neutralC/CFD-LM-247-095-N.jpg","1","1","1","0","1","0","0.590239200042561","0.473951800027862","0.64843920012936","1","1","1","1","1","1","1","1","1"
"250066","img/neutralC/CFD-LM-247-095-N.jpg","img/neutralC/CFD-IF-744-114-N.jpg","img/neutralC/CFD-BF-045-003-N.jpg","1","1","1","0","0","0","0.64843920012936","0.590239200042561","0.534389100037515","1","1","1","1","1","1","1","1","1"
"250066","img/neutralC/CFD-BF-045-003-N.jpg","img/neutralC/CFD-LM-247-095-N.jpg","img/neutralC/CFD-LF-225-164-N.jpg","1","1","1","0","0","1","0.534389100037515","0.64843920012936","0.541218899888918","1","1","1","1","1","1","1","1","1"
"250066","img/neutralC/CFD-LF-225-164-N.jpg","img/neutralC/CFD-BF-045-003-N.jpg",NA,"1","1",NA,"1","0",NA,"0.541218899888918","0.534389100037515",NA,"1","1",NA,"1","1",NA,"1","1",NA
"250066","img/neutralC/CFD-BM-248-128-N.jpg",NA,"img/neutralC/CFD-MF-335-002-N.jpg","1",NA,"1","0",NA,"0","0.639442899962887",NA,"0.466437400085852","1",NA,"1","1",NA,"1","1",NA,"1"
"250066","img/neutralC/CFD-MF-335-002-N.jpg","img/neutralC/CFD-BM-248-128-N.jpg","img/neutralC/CFD-MF-309-002-N.jpg","1","1","1","0","0","0","0.466437400085852","0.639442899962887","0.435134100029245","1","1","1","1","1","1","1","1","1"
"250066","img/neutralC/CFD-MF-309-002-N.jpg","img/neutralC/CFD-MF-335-002-N.jpg","img/neutralC/CFD-WM-249-239-N.jpg","1","1","1","0","0","1","0.435134100029245","0.466437400085852","0.430535699939355","1","1","1","1","1","1","1","1","1"
"250066","img/neutralC/CFD-WM-249-239-N.jpg","img/neutralC/CFD-MF-309-002-N.jpg","img/neutralC/CFD-LM-214-165-N.jpg","1","1","1","1","0","1","0.430535699939355","0.435134100029245","0.376902899937704","1","1","1","1","1","1","1","1","1"
"250066","img/neutralC/CFD-LM-214-165-N.jpg","img/neutralC/CFD-WM-249-239-N.jpg","img/neutralC/CFD-BF-025-002-N.jpg","1","1","1","1","1","0","0.376902899937704","0.430535699939355","0.415866799885407","1","1","1","1","1","1","1","1","1"
"250066","img/neutralC/CFD-BF-025-002-N.jpg","img/neutralC/CFD-LM-214-165-N.jpg","img/neutralC/CFD-LM-201-057-N.jpg","1","1","1","0","1","1","0.415866799885407","0.376902899937704","0.469788399990648","1","1","1","1","1","1","1","1","1"
"250066","img/neutralC/CFD-LM-201-057-N.jpg","img/neutralC/CFD-BF-025-002-N.jpg","img/neutralC/CFD-WM-026-001-N.jpg","1","1","1","1","0","1","0.469788399990648","0.415866799885407","0.446902499999851","1","1","1","1","1","1","1","1","1"
"250066","img/neutralC/CFD-WM-026-001-N.jpg","img/neutralC/CFD-LM-201-057-N.jpg","img/neutralC/CFD-IM-648-337-N.jpg","1","1","1","1","1","0","0.446902499999851","0.469788399990648","0.435070700012147","1","1","1","1","1","1","1","1","1"
"250066","img/neutralC/CFD-IM-648-337-N.jpg","img/neutralC/CFD-WM-026-001-N.jpg","img/neutralC/CFD-BF-041-001-N.jpg","1","1","1","0","1","1","0.435070700012147","0.446902499999851","0.37702660006471","1","1","1","1","1","1","1","1","1"
"250066","img/neutralC/CFD-BF-041-001-N.jpg","img/neutralC/CFD-IM-648-337-N.jpg","img/neutralC/CFD-WF-005-010-N.jpg","1","1","1","1","0","0","0.37702660006471","0.435070700012147","0.329236400080845","1","1","1","1","1","1","1","1","1"
"250066","img/neutralC/CFD-WF-005-010-N.jpg","img/neutralC/CFD-BF-041-001-N.jpg","img/neutralC/CFD-BF-228-212-N.jpg","1","1","1","0","1","0","0.329236400080845","0.37702660006471","0.458978799870238","1","1","1","1","1","1","1","1","1"
"250066","img/neutralC/CFD-BF-228-212-N.jpg","img/neutralC/CFD-WF-005-010-N.jpg","img/neutralC/CFD-BM-251-013-N.jpg","1","1","1","0","0","1","0.458978799870238","0.329236400080845","0.41623770003207","1","1","1","1","1","1","1","1","1"
"250066","img/neutralC/CFD-BM-251-013-N.jpg","img/neutralC/CFD-BF-228-212-N.jpg","img/neutralC/CFD-LM-243-075-N.jpg","1","1","1","1","0","0","0.41623770003207","0.458978799870238","0.425464899977669","1","1","1","1","1","1","1","1","1"
"250066","img/neutralC/CFD-LM-243-075-N.jpg","img/neutralC/CFD-BM-251-013-N.jpg","img/neutralC/CFD-LM-216-082-N.jpg","1","1","1","0","1","0","0.425464899977669","0.41623770003207","0.539207099936903","1","1","1","1","1","1","1","1","1"
"250066","img/neutralC/CFD-LM-216-082-N.jpg","img/neutralC/CFD-LM-243-075-N.jpg","img/neutralC/CFD-BM-205-001-N.jpg","1","1","1","0","0","0","0.539207099936903","0.425464899977669","0.421919699991122","1","1","1","1","1","1","1","1","1"
"250066","img/neutralC/CFD-BM-205-001-N.jpg","img/neutralC/CFD-LM-216-082-N.jpg","img/neutralC/CFD-WM-012-001-N.jpg","1","1","1","0","0","1","0.421919699991122","0.539207099936903","0.447483099997044","1","1","1","1","1","1","1","1","1"
"250066","img/neutralC/CFD-WM-012-001-N.jpg","img/neutralC/CFD-BM-205-001-N.jpg","img/neutralC/CFD-WM-019-003-N.jpg","1","1","1","1","0","1","0.447483099997044","0.421919699991122","0.442718300037086","1","1","1","1","1","1","1","1","1"
"250066","img/neutralC/CFD-WM-019-003-N.jpg","img/neutralC/CFD-WM-012-001-N.jpg","img/neutralC/CFD-BF-212-315-N.jpg","1","1","1","1","1","1","0.442718300037086","0.447483099997044","0.4179554998409","1","1","1","1","1","1","1","1","1"
"250066","img/neutralC/CFD-BF-212-315-N.jpg","img/neutralC/CFD-WM-019-003-N.jpg","img/neutralC/CFD-WM-006-002-N.jpg","1","1","1","1","1","0","0.4179554998409","0.442718300037086","0.485043799970299","1","1","1","1","1","1","1","1","1"
"250066","img/neutralC/CFD-WM-006-002-N.jpg","img/neutralC/CFD-BF-212-315-N.jpg","img/neutralC/CFD-WM-212-097-N.jpg","1","1","1","0","1","0","0.485043799970299","0.4179554998409","0.518301399890333","1","1","1","1","1","1","1","1","1"
"250066","img/neutralC/CFD-WM-212-097-N.jpg","img/neutralC/CFD-WM-006-002-N.jpg","img/neutralC/CFD-LM-244-068-N.jpg","1","1","1","0","0","1","0.518301399890333","0.485043799970299","0.492113600019366","1","1","1","1","1","1","1","1","1"
"250066","img/neutralC/CFD-LM-244-068-N.jpg","img/neutralC/CFD-WM-212-097-N.jpg","img/neutralC/CFD-WM-215-041-N.jpg","1","1","1","1","0","0","0.492113600019366","0.518301399890333","0.441746999975294","1","1","1","1","1","1","1","1","1"
"250066","img/neutralC/CFD-WM-215-041-N.jpg","img/neutralC/CFD-LM-244-068-N.jpg","img/neutralC/CFD-WF-240-083-N.jpg","1","1","1","0","1","0","0.441746999975294","0.492113600019366","0.480570599902421","1","1","1","1","1","1","1","1","1"
"250066","img/neutralC/CFD-WF-240-083-N.jpg","img/neutralC/CFD-WM-215-041-N.jpg","img/neutralC/CFD-AM-247-165-N.jpg","1","1","1","0","0","1","0.480570599902421","0.441746999975294","0.542895599966869","1","1","1","1","1","1","1","1","1"
"250066","img/neutralC/CFD-AM-247-165-N.jpg","img/neutralC/CFD-WF-240-083-N.jpg","img/neutralC/CFD-WF-228-196-N.jpg","1","1","1","1","0","0","0.542895599966869","0.480570599902421","0.722805000143126","1","1","1","1","1","1","1","1","1"
"250066","img/neutralC/CFD-WF-228-196-N.jpg","img/neutralC/CFD-AM-247-165-N.jpg","img/neutralC/CFD-BF-202-109-N.jpg","1","1","1","0","1","1","0.722805000143126","0.542895599966869","0.462085400009528","1","1","1","1","1","1","1","1","1"
"250066","img/neutralC/CFD-BF-202-109-N.jpg","img/neutralC/CFD-WF-228-196-N.jpg","img/neutralC/CFD-WF-017-003-N.jpg","1","1","1","1","0","1","0.462085400009528","0.722805000143126","0.483951000031084","1","1","1","1","1","1","1","1","1"
"250066","img/neutralC/CFD-WF-017-003-N.jpg","img/neutralC/CFD-BF-202-109-N.jpg","img/neutralC/CFD-MM-317-061-N.jpg","1","1","1","1","1","1","0.483951000031084","0.462085400009528","0.477164900163189","1","1","1","1","1","1","1","1","1"
"250066","img/neutralC/CFD-MM-317-061-N.jpg","img/neutralC/CFD-WF-017-003-N.jpg","img/neutralC/CFD-AF-240-206-N.jpg","1","1","1","1","1","0","0.477164900163189","0.483951000031084","0.420151700032875","1","1","1","1","1","1","1","1","1"
"250066","img/neutralC/CFD-AF-240-206-N.jpg","img/neutralC/CFD-MM-317-061-N.jpg","img/neutralC/CFD-IF-642-295-N.jpg","1","1","1","0","1","1","0.420151700032875","0.477164900163189","0.467860900098458","1","1","1","1","1","1","1","1","1"
"250066","img/neutralC/CFD-IF-642-295-N.jpg","img/neutralC/CFD-AF-240-206-N.jpg","img/neutralC/CFD-IM-646-023-N.jpg","1","1","1","1","0","1","0.467860900098458","0.420151700032875","0.582620500121266","1","1","1","1","1","1","1","1","1"
"250066","img/neutralC/CFD-IM-646-023-N.jpg","img/neutralC/CFD-IF-642-295-N.jpg",NA,"1","1",NA,"1","1",NA,"0.582620500121266","0.467860900098458",NA,"1","1",NA,"1","1",NA,"1","1",NA
"250066","img/neutralC/CFD-BF-235-168-N.jpg",NA,"img/neutralC/CFD-WM-253-119-N.jpg","1",NA,"1","1",NA,"1","0.681532900081947",NA,"0.435699200024828","1",NA,"1","1",NA,"1","1",NA,"1"
"250066","img/neutralC/CFD-WM-253-119-N.jpg","img/neutralC/CFD-BF-235-168-N.jpg","img/neutralC/CFD-AF-250-200-N.jpg","1","1","1","1","1","1","0.435699200024828","0.681532900081947","0.42857709992677","1","1","1","1","1","1","1","1","1"
"250066","img/neutralC/CFD-AF-250-200-N.jpg","img/neutralC/CFD-WM-253-119-N.jpg","img/neutralC/CFD-WF-235-121-N.jpg","1","1","1","1","1","0","0.42857709992677","0.435699200024828","0.512813100125641","1","1","1","1","1","1","1","1","1"
"250066","img/neutralC/CFD-WF-235-121-N.jpg","img/neutralC/CFD-AF-250-200-N.jpg","img/neutralC/CFD-BM-215-155-N.jpg","1","1","1","0","1","0","0.512813100125641","0.42857709992677","0.483251800062135","1","1","1","1","1","1","1","1","1"
"250066","img/neutralC/CFD-BM-215-155-N.jpg","img/neutralC/CFD-WF-235-121-N.jpg","img/neutralC/CFD-BM-004-002-N.jpg","1","1","1","0","0","0","0.483251800062135","0.512813100125641","0.563825899967924","1","1","1","1","1","1","1","1","1"
"250066","img/neutralC/CFD-BM-004-002-N.jpg","img/neutralC/CFD-BM-215-155-N.jpg","img/neutralC/CFD-IM-669-111-N.jpg","1","1","1","0","0","1","0.563825899967924","0.483251800062135","0.374390400014818","1","1","1","1","1","1","1","1","1"
"250066","img/neutralC/CFD-IM-669-111-N.jpg","img/neutralC/CFD-BM-004-002-N.jpg","img/neutralC/CFD-IM-635-010-N.jpg","1","1","1","1","0","1","0.374390400014818","0.563825899967924","0.453020100016147","1","1","1","1","1","1","1","1","1"
"250066","img/neutralC/CFD-IM-635-010-N.jpg","img/neutralC/CFD-IM-669-111-N.jpg","img/neutralC/CFD-AF-213-126-N.jpg","1","1","1","1","1","1","0.453020100016147","0.374390400014818","0.41543379984796","1","1","1","1","1","1","1","1","1"
"250066","img/neutralC/CFD-AF-213-126-N.jpg","img/neutralC/CFD-IM-635-010-N.jpg","img/neutralC/CFD-AM-225-102-N.jpg","1","1","1","1","1","0","0.41543379984796","0.453020100016147","0.463248899905011","1","1","1","1","1","1","1","1","1"
"250066","img/neutralC/CFD-AM-225-102-N.jpg","img/neutralC/CFD-AF-213-126-N.jpg","img/neutralC/CFD-AF-246-242-N.jpg","1","1","1","0","1","0","0.463248899905011","0.41543379984796","0.463901699986309","1","1","1","1","1","1","1","1","1"
"250066","img/neutralC/CFD-AF-246-242-N.jpg","img/neutralC/CFD-AM-225-102-N.jpg","img/neutralC/CFD-IM-678-482-N.jpg","1","1","1","0","0","0","0.463901699986309","0.463248899905011","0.476927399868146","1","1","1","1","1","1","1","1","1"
"250066","img/neutralC/CFD-IM-678-482-N.jpg","img/neutralC/CFD-AF-246-242-N.jpg","img/neutralC/CFD-AM-245-111-N.jpg","1","1","1","0","0","1","0.476927399868146","0.463901699986309","0.446852099848911","1","1","1","1","1","1","1","1","1"
"250066","img/neutralC/CFD-AM-245-111-N.jpg","img/neutralC/CFD-IM-678-482-N.jpg","img/neutralC/CFD-WF-210-086-N.jpg","1","1","1","1","0","0","0.446852099848911","0.476927399868146","0.628819599980488","1","1","1","1","1","1","1","1","1"
"250066","img/neutralC/CFD-WF-210-086-N.jpg","img/neutralC/CFD-AM-245-111-N.jpg","img/neutralC/CFD-LM-204-001-N.jpg","1","1","1","0","1","0","0.628819599980488","0.446852099848911","0.487392900045961","1","1","1","1","1","1","1","1","1"
"250066","img/neutralC/CFD-LM-204-001-N.jpg","img/neutralC/CFD-WF-210-086-N.jpg","img/neutralC/CFD-IF-732-260-N.jpg","1","1","1","0","0","0","0.487392900045961","0.628819599980488","0.671620599925518","1","1","1","1","1","1","1","1","1"
"250066","img/neutralC/CFD-IF-732-260-N.jpg","img/neutralC/CFD-LM-204-001-N.jpg","img/neutralC/CFD-AF-234-208-N.jpg","1","1","1","0","0","1","0.671620599925518","0.487392900045961","0.419392799958587","1","1","1","1","1","1","1","1","1"
"250066","img/neutralC/CFD-AF-234-208-N.jpg","img/neutralC/CFD-IF-732-260-N.jpg","img/neutralC/CFD-LF-239-148-N.jpg","1","1","1","1","0","0","0.419392799958587","0.671620599925518","0.425512300105766","1","1","1","1","1","1","1","1","1"
"250066","img/neutralC/CFD-LF-239-148-N.jpg","img/neutralC/CFD-AF-234-208-N.jpg","img/neutralC/CFD-BF-217-189-N.jpg","1","1","1","0","1","0","0.425512300105766","0.419392799958587","0.607282400131226","1","1","1","1","1","1","1","1","1"
"250066","img/neutralC/CFD-BF-217-189-N.jpg","img/neutralC/CFD-LF-239-148-N.jpg","img/neutralC/CFD-MF-302-027-N.jpg","1","1","1","0","0","0","0.607282400131226","0.425512300105766","0.597611799836159","1","1","1","1","1","1","1","1","1"
"250066","img/neutralC/CFD-MF-302-027-N.jpg","img/neutralC/CFD-BF-217-189-N.jpg","img/neutralC/CFD-AF-205-155-N.jpg","1","1","1","0","0","0","0.597611799836159","0.607282400131226","0.676981099881232","1","1","1","1","1","1","1","1","1"
"250066","img/neutralC/CFD-AF-205-155-N.jpg","img/neutralC/CFD-MF-302-027-N.jpg","img/neutralC/CFD-BF-040-003-N.jpg","1","1","1","0","0","1","0.676981099881232","0.597611799836159","0.657059099990875","1","1","1","1","1","1","1","1","1"
"250066","img/neutralC/CFD-BF-040-003-N.jpg","img/neutralC/CFD-AF-205-155-N.jpg","img/neutralC/CFD-BF-042-026-N.jpg","1","1","1","1","0","1","0.657059099990875","0.676981099881232","0.675999199971557","1","1","1","1","1","1","1","1","1"
"250066","img/neutralC/CFD-BF-042-026-N.jpg","img/neutralC/CFD-BF-040-003-N.jpg","img/neutralC/CFD-BF-206-143-N.jpg","1","1","1","1","1","1","0.675999199971557","0.657059099990875","0.422088700113818","1","1","1","1","1","1","1","1","1"
"250066","img/neutralC/CFD-BF-206-143-N.jpg","img/neutralC/CFD-BF-042-026-N.jpg","img/neutralC/CFD-LM-241-125-N.jpg","1","1","1","1","1","1","0.422088700113818","0.675999199971557","0.541001600213349","1","1","1","1","1","1","1","1","1"
"250066","img/neutralC/CFD-LM-241-125-N.jpg","img/neutralC/CFD-BF-206-143-N.jpg","img/neutralC/CFD-AF-244-168-N.jpg","1","1","1","1","1","0","0.541001600213349","0.422088700113818","0.575481599895284","1","1","1","1","1","1","1","1","1"
"250066","img/neutralC/CFD-AF-244-168-N.jpg","img/neutralC/CFD-LM-241-125-N.jpg","img/neutralC/CFD-IF-636-011-N.jpg","1","1","1","0","1","1","0.575481599895284","0.541001600213349","0.455435000127181","1","1","1","1","1","1","1","1","1"
"250066","img/neutralC/CFD-IF-636-011-N.jpg","img/neutralC/CFD-AF-244-168-N.jpg","img/neutralC/CFD-WM-018-002-N.jpg","1","1","1","1","0","0","0.455435000127181","0.575481599895284","0.420174000086263","1","1","1","1","1","1","1","1","1"
"250066","img/neutralC/CFD-WM-018-002-N.jpg","img/neutralC/CFD-IF-636-011-N.jpg","img/neutralC/CFD-MF-307-002-N.jpg","1","1","1","0","1","1","0.420174000086263","0.455435000127181","0.455577000044286","1","1","1","1","1","1","1","1","1"
"250066","img/neutralC/CFD-MF-307-002-N.jpg","img/neutralC/CFD-WM-018-002-N.jpg","img/neutralC/CFD-IM-632-097-N.jpg","1","1","1","1","0","0","0.455577000044286","0.420174000086263","0.522254500072449","1","1","1","1","1","1","1","1","1"
"250066","img/neutralC/CFD-IM-632-097-N.jpg","img/neutralC/CFD-MF-307-002-N.jpg","img/neutralC/CFD-AM-233-236-N.jpg","1","1","1","0","1","1","0.522254500072449","0.455577000044286","0.419933299999684","1","1","1","1","1","1","1","1","1"
"250066","img/neutralC/CFD-AM-233-236-N.jpg","img/neutralC/CFD-IM-632-097-N.jpg","img/neutralC/CFD-BF-020-002-N.jpg","1","1","1","1","0","1","0.419933299999684","0.522254500072449","0.392068500164896","1","1","1","1","1","1","1","1","1"
"250066","img/neutralC/CFD-BF-020-002-N.jpg","img/neutralC/CFD-AM-233-236-N.jpg",NA,"1","1",NA,"1","1",NA,"0.392068500164896","0.419933299999684",NA,"1","1",NA,"1","1",NA,"1","1",NA
"250066","img/neutralC/CFD-BM-211-174-N.jpg",NA,"img/neutralC/CFD-IM-674-281-N.jpg","0",NA,"1","0",NA,"1","0.59332749992609",NA,"0.57784379995428","1",NA,"1","1",NA,"1","1",NA,"1"
"250066","img/neutralC/CFD-IM-674-281-N.jpg","img/neutralC/CFD-BM-211-174-N.jpg","img/neutralC/CFD-BF-003-003-N.jpg","1","0","1","1","0","0","0.57784379995428","0.59332749992609","0.610082800034434","1","1","1","1","1","1","1","1","1"
"250066","img/neutralC/CFD-BF-003-003-N.jpg","img/neutralC/CFD-IM-674-281-N.jpg","img/neutralC/CFD-IM-639-263-N.jpg","1","1","1","0","1","1","0.610082800034434","0.57784379995428","0.360371500020847","1","1","1","1","1","1","1","1","1"
"250066","img/neutralC/CFD-IM-639-263-N.jpg","img/neutralC/CFD-BF-003-003-N.jpg","img/neutralC/CFD-WM-225-127-N.jpg","1","1","1","1","0","0","0.360371500020847","0.610082800034434","0.416847900021821","1","1","1","1","1","1","1","1","1"
"250066","img/neutralC/CFD-WM-225-127-N.jpg","img/neutralC/CFD-IM-639-263-N.jpg","img/neutralC/CFD-WF-002-004-N.jpg","1","1","1","0","1","0","0.416847900021821","0.360371500020847","0.568494000006467","1","1","1","1","1","1","1","1","1"
"250066","img/neutralC/CFD-WF-002-004-N.jpg","img/neutralC/CFD-WM-225-127-N.jpg","img/neutralC/CFD-LM-252-076-N.jpg","1","1","1","0","0","1","0.568494000006467","0.416847900021821","0.652068600058556","1","1","1","1","1","1","1","1","1"
"250066","img/neutralC/CFD-LM-252-076-N.jpg","img/neutralC/CFD-WF-002-004-N.jpg","img/neutralC/CFD-BF-255-140-N.jpg","1","1","1","1","0","1","0.652068600058556","0.568494000006467","0.448599099880084","1","1","1","1","1","1","1","1","1"
"250066","img/neutralC/CFD-BF-255-140-N.jpg","img/neutralC/CFD-LM-252-076-N.jpg","img/neutralC/CFD-BM-247-240-N.jpg","1","1","1","1","1","0","0.448599099880084","0.652068600058556","0.476555400062352","1","1","1","1","1","1","1","1","1"
"250066","img/neutralC/CFD-BM-247-240-N.jpg","img/neutralC/CFD-BF-255-140-N.jpg","img/neutralC/CFD-BF-204-189-N.jpg","1","1","1","0","1","1","0.476555400062352","0.448599099880084","0.443638700060546","1","1","1","1","1","1","1","1","1"
"250066","img/neutralC/CFD-BF-204-189-N.jpg","img/neutralC/CFD-BM-247-240-N.jpg","img/neutralC/CFD-IF-718-001-N.jpg","1","1","1","1","0","1","0.443638700060546","0.476555400062352","0.415653500007465","1","1","1","1","1","1","1","1","1"
"250066","img/neutralC/CFD-IF-718-001-N.jpg","img/neutralC/CFD-BF-204-189-N.jpg","img/neutralC/CFD-BF-208-266-N.jpg","1","1","1","1","1","0","0.415653500007465","0.443638700060546","0.527036900166422","1","1","1","1","1","1","1","1","1"
"250066","img/neutralC/CFD-BF-208-266-N.jpg","img/neutralC/CFD-IF-718-001-N.jpg","img/neutralC/CFD-WM-040-022-N.jpg","1","1","1","0","1","0","0.527036900166422","0.415653500007465","0.503080300055444","1","1","1","1","1","1","1","1","1"
"250066","img/neutralC/CFD-WM-040-022-N.jpg","img/neutralC/CFD-BF-208-266-N.jpg","img/neutralC/CFD-IF-672-305-N.jpg","1","1","1","0","0","0","0.503080300055444","0.527036900166422","0.529968099901453","1","1","1","1","1","1","1","1","1"
"250066","img/neutralC/CFD-IF-672-305-N.jpg","img/neutralC/CFD-WM-040-022-N.jpg","img/neutralC/CFD-WM-038-003-N.jpg","1","1","1","0","0","0","0.529968099901453","0.503080300055444","0.438146099913865","1","1","1","1","1","1","1","1","1"
"250066","img/neutralC/CFD-WM-038-003-N.jpg","img/neutralC/CFD-IF-672-305-N.jpg","img/neutralC/CFD-IM-728-041-N.jpg","1","1","0","0","0","0","0.438146099913865","0.529968099901453","0.480819800170138","1","1","1","1","1","1","1","1","1"
"250066","img/neutralC/CFD-IM-728-041-N.jpg","img/neutralC/CFD-WM-038-003-N.jpg","img/neutralC/CFD-BF-023-010-N.jpg","0","1","1","0","0","1","0.480819800170138","0.438146099913865","0.412470899987966","1","1","1","1","1","1","1","1","1"
"250066","img/neutralC/CFD-BF-023-010-N.jpg","img/neutralC/CFD-IM-728-041-N.jpg","img/neutralC/CFD-WM-257-161-N.jpg","1","0","1","1","0","1","0.412470899987966","0.480819800170138","0.412135399878025","1","1","1","1","1","1","1","1","1"
"250066","img/neutralC/CFD-WM-257-161-N.jpg","img/neutralC/CFD-BF-023-010-N.jpg","img/neutralC/CFD-LF-216-121-N.jpg","1","1","1","1","1","1","0.412135399878025","0.412470899987966","0.472328000003472","1","1","1","1","1","1","1","1","1"
"250066","img/neutralC/CFD-LF-216-121-N.jpg","img/neutralC/CFD-WM-257-161-N.jpg","img/neutralC/CFD-LF-236-221-N.jpg","1","1","1","1","1","1","0.472328000003472","0.412135399878025","0.459545700112358","1","1","1","1","1","1","1","1","1"
"250066","img/neutralC/CFD-LF-236-221-N.jpg","img/neutralC/CFD-LF-216-121-N.jpg","img/neutralC/CFD-BF-028-001-N.jpg","1","1","1","1","1","1","0.459545700112358","0.472328000003472","0.463112100027502","1","1","1","1","1","1","1","1","1"
"250066","img/neutralC/CFD-BF-028-001-N.jpg","img/neutralC/CFD-LF-236-221-N.jpg","img/neutralC/CFD-WM-002-009-N.jpg","1","1","1","1","1","0","0.463112100027502","0.459545700112358","0.388108899816871","1","1","1","1","1","1","1","1","1"
"250066","img/neutralC/CFD-WM-002-009-N.jpg","img/neutralC/CFD-BF-028-001-N.jpg","img/neutralC/CFD-AM-235-241-N.jpg","1","1","1","0","1","0","0.388108899816871","0.463112100027502","0.427354000043124","1","1","1","1","1","1","1","1","1"
"250066","img/neutralC/CFD-AM-235-241-N.jpg","img/neutralC/CFD-WM-002-009-N.jpg","img/neutralC/CFD-BM-015-015-N.jpg","1","1","1","0","0","0","0.427354000043124","0.388108899816871","0.43728269985877","1","1","1","1","1","1","1","1","1"
"250066","img/neutralC/CFD-BM-015-015-N.jpg","img/neutralC/CFD-AM-235-241-N.jpg","img/neutralC/CFD-WF-026-002-N.jpg","1","1","1","0","0","1","0.43728269985877","0.427354000043124","0.653089400148019","1","1","1","1","1","1","1","1","1"
"250066","img/neutralC/CFD-WF-026-002-N.jpg","img/neutralC/CFD-BM-015-015-N.jpg","img/neutralC/CFD-BM-027-001-N.jpg","1","1","1","1","0","0","0.653089400148019","0.43728269985877","0.718135700095445","1","1","1","1","1","1","1","1","1"
"250066","img/neutralC/CFD-BM-027-001-N.jpg","img/neutralC/CFD-WF-026-002-N.jpg","img/neutralC/CFD-WF-022-017-N.jpg","1","1","1","0","1","0","0.718135700095445","0.653089400148019","0.689778100000694","1","1","1","1","1","1","1","1","1"
"250066","img/neutralC/CFD-WF-022-017-N.jpg","img/neutralC/CFD-BM-027-001-N.jpg","img/neutralC/CFD-MM-319-052-N.jpg","1","1","1","0","0","1","0.689778100000694","0.718135700095445","0.486334899906069","1","1","1","1","1","1","1","1","1"
"250066","img/neutralC/CFD-MM-319-052-N.jpg","img/neutralC/CFD-WF-022-017-N.jpg","img/neutralC/CFD-BF-201-080-N.jpg","1","1","1","1","0","1","0.486334899906069","0.689778100000694","0.409633300034329","1","1","1","1","1","1","1","1","1"
"250066","img/neutralC/CFD-BF-201-080-N.jpg","img/neutralC/CFD-MM-319-052-N.jpg","img/neutralC/CFD-AM-217-085-N.jpg","1","1","1","1","1","0","0.409633300034329","0.486334899906069","0.358959399862215","1","1","1","1","1","1","1","1","1"
"250066","img/neutralC/CFD-AM-217-085-N.jpg","img/neutralC/CFD-BF-201-080-N.jpg","img/neutralC/CFD-AM-215-120-N.jpg","1","1","1","0","1","1","0.358959399862215","0.409633300034329","0.55180579982698","1","1","1","1","1","1","1","1","1"
"250066","img/neutralC/CFD-AM-215-120-N.jpg","img/neutralC/CFD-AM-217-085-N.jpg","img/neutralC/CFD-BM-029-024-N.jpg","1","1","1","1","0","1","0.55180579982698","0.358959399862215","0.538180300034583","1","1","1","1","1","1","1","1","1"
"250066","img/neutralC/CFD-BM-029-024-N.jpg","img/neutralC/CFD-AM-215-120-N.jpg",NA,"1","1",NA,"1","1",NA,"0.538180300034583","0.55180579982698",NA,"1","1",NA,"1","1",NA,"1","1",NA
