"participant_id","current_trial_face","pre_trial_face","post_trial_face","current_trial_accuracy","pre_trial_accuracy","post_trial_accuracy","current_trial_congruency","pre_trial_congruency","post_trial_congruency","current_trial_rt","pre_trial_rt","post_trial_rt","current_trial_responded","pre_trial_responded","post_trial_responded","current_trial_legitResponse","pre_trial_legitResponse","post_trial_legitResponse","current_trial_resp_nums","pre_trial_resp_nums","post_trial_resp_nums"
"250029","img/neutralC/CFD-BF-027-002-N.jpg",NA,"img/neutralC/CFD-BF-036-027-N.jpg","1",NA,"1","1",NA,"0","0.647088899975643",NA,"0.641631299979053","1",NA,"1","1",NA,"1","1",NA,"1"
"250029","img/neutralC/CFD-BF-036-027-N.jpg","img/neutralC/CFD-BF-027-002-N.jpg","img/neutralC/CFD-BF-011-002-N.jpg","1","1","1","0","1","1","0.641631299979053","0.647088899975643","0.539982499903999","1","1","1","1","1","1","1","1","1"
"250029","img/neutralC/CFD-BF-011-002-N.jpg","img/neutralC/CFD-BF-036-027-N.jpg","img/neutralC/CFD-MF-301-024-N.jpg","1","1","1","1","0","0","0.539982499903999","0.641631299979053","0.636991200037301","1","1","1","1","1","1","1","1","1"
"250029","img/neutralC/CFD-MF-301-024-N.jpg","img/neutralC/CFD-BF-011-002-N.jpg","img/neutralC/CFD-IM-726-248-N.jpg","1","1","1","0","1","0","0.636991200037301","0.539982499903999","0.587967299972661","1","1","1","1","1","1","1","1","1"
"250029","img/neutralC/CFD-IM-726-248-N.jpg","img/neutralC/CFD-MF-301-024-N.jpg","img/neutralC/CFD-WF-234-086-N.jpg","1","1","1","0","0","1","0.587967299972661","0.636991200037301","0.55862539994996","1","1","1","1","1","1","1","1","1"
"250029","img/neutralC/CFD-WF-234-086-N.jpg","img/neutralC/CFD-IM-726-248-N.jpg","img/neutralC/CFD-IF-742-103-N.jpg","1","1","1","1","0","1","0.55862539994996","0.587967299972661","0.575771300005727","1","1","1","1","1","1","1","1","1"
"250029","img/neutralC/CFD-IF-742-103-N.jpg","img/neutralC/CFD-WF-234-086-N.jpg","img/neutralC/CFD-IM-721-341-N.jpg","1","1","1","1","1","1","0.575771300005727","0.55862539994996","0.517453100066632","1","1","1","1","1","1","1","1","1"
"250029","img/neutralC/CFD-IM-721-341-N.jpg","img/neutralC/CFD-IF-742-103-N.jpg","img/neutralC/CFD-WM-014-002-N.jpg","1","1","1","1","1","0","0.517453100066632","0.575771300005727","0.648125299951062","1","1","1","1","1","1","1","1","1"
"250029","img/neutralC/CFD-WM-014-002-N.jpg","img/neutralC/CFD-IM-721-341-N.jpg","img/neutralC/CFD-WF-029-002-N.jpg","1","1","1","0","1","0","0.648125299951062","0.517453100066632","0.595179400057532","1","1","1","1","1","1","1","1","1"
"250029","img/neutralC/CFD-WF-029-002-N.jpg","img/neutralC/CFD-WM-014-002-N.jpg","img/neutralC/CFD-WF-233-112-N.jpg","1","1","1","0","0","1","0.595179400057532","0.648125299951062","0.517173999920487","1","1","1","1","1","1","1","1","1"
"250029","img/neutralC/CFD-WF-233-112-N.jpg","img/neutralC/CFD-WF-029-002-N.jpg","img/neutralC/CFD-IF-729-393-N.jpg","1","1","1","1","0","0","0.517173999920487","0.595179400057532","0.557078200043179","1","1","1","1","1","1","1","1","1"
"250029","img/neutralC/CFD-IF-729-393-N.jpg","img/neutralC/CFD-WF-233-112-N.jpg","img/neutralC/CFD-IM-696-001-N.jpg","1","1","1","0","1","0","0.557078200043179","0.517173999920487","0.536413399968296","1","1","1","1","1","1","1","1","1"
"250029","img/neutralC/CFD-IM-696-001-N.jpg","img/neutralC/CFD-IF-729-393-N.jpg","img/neutralC/CFD-BM-241-235-N.jpg","1","1","1","0","0","0","0.536413399968296","0.557078200043179","0.510816200054251","1","1","1","1","1","1","1","1","1"
"250029","img/neutralC/CFD-BM-241-235-N.jpg","img/neutralC/CFD-IM-696-001-N.jpg","img/neutralC/CFD-WM-034-030-N.jpg","1","1","1","0","0","1","0.510816200054251","0.536413399968296","0.521712600020692","1","1","1","1","1","1","1","1","1"
"250029","img/neutralC/CFD-WM-034-030-N.jpg","img/neutralC/CFD-BM-241-235-N.jpg","img/neutralC/CFD-LM-213-061-N.jpg","1","1","1","1","0","0","0.521712600020692","0.510816200054251","0.530766599928029","1","1","1","1","1","1","1","1","1"
"250029","img/neutralC/CFD-LM-213-061-N.jpg","img/neutralC/CFD-WM-034-030-N.jpg","img/neutralC/CFD-WF-208-068-N.jpg","1","1","1","0","1","1","0.530766599928029","0.521712600020692","0.522633300046436","1","1","1","1","1","1","1","1","1"
"250029","img/neutralC/CFD-WF-208-068-N.jpg","img/neutralC/CFD-LM-213-061-N.jpg","img/neutralC/CFD-LF-204-133-N.jpg","1","1","1","1","0","1","0.522633300046436","0.530766599928029","0.455355399986729","1","1","1","1","1","1","1","1","1"
"250029","img/neutralC/CFD-LF-204-133-N.jpg","img/neutralC/CFD-WF-208-068-N.jpg","img/neutralC/CFD-BM-238-242-N.jpg","1","1","1","1","1","0","0.455355399986729","0.522633300046436","0.553047199966386","1","1","1","1","1","1","1","1","1"
"250029","img/neutralC/CFD-BM-238-242-N.jpg","img/neutralC/CFD-LF-204-133-N.jpg","img/neutralC/CFD-BM-207-024-N.jpg","1","1","1","0","1","1","0.553047199966386","0.455355399986729","0.501343399984762","1","1","1","1","1","1","1","1","1"
"250029","img/neutralC/CFD-BM-207-024-N.jpg","img/neutralC/CFD-BM-238-242-N.jpg","img/neutralC/CFD-BF-207-004-N.jpg","1","1","1","1","0","1","0.501343399984762","0.553047199966386","0.519931799964979","1","1","1","1","1","1","1","1","1"
"250029","img/neutralC/CFD-BF-207-004-N.jpg","img/neutralC/CFD-BM-207-024-N.jpg","img/neutralC/CFD-IM-707-105-N.jpg","1","1","1","1","1","1","0.519931799964979","0.501343399984762","0.574260100023821","1","1","1","1","1","1","1","1","1"
"250029","img/neutralC/CFD-IM-707-105-N.jpg","img/neutralC/CFD-BF-207-004-N.jpg","img/neutralC/CFD-BF-214-308-N.jpg","1","1","1","1","1","1","0.574260100023821","0.519931799964979","0.467221700004302","1","1","1","1","1","1","1","1","1"
"250029","img/neutralC/CFD-BF-214-308-N.jpg","img/neutralC/CFD-IM-707-105-N.jpg","img/neutralC/CFD-BF-247-179-N.jpg","1","1","1","1","1","0","0.467221700004302","0.574260100023821","0.63614369998686","1","1","1","1","1","1","1","1","1"
"250029","img/neutralC/CFD-BF-247-179-N.jpg","img/neutralC/CFD-BF-214-308-N.jpg","img/neutralC/CFD-BF-044-034-N.jpg","1","1","1","0","1","0","0.63614369998686","0.467221700004302","0.703740899916738","1","1","1","1","1","1","1","1","1"
"250029","img/neutralC/CFD-BF-044-034-N.jpg","img/neutralC/CFD-BF-247-179-N.jpg","img/neutralC/CFD-BM-036-003-N.jpg","1","1","1","0","0","1","0.703740899916738","0.63614369998686","0.503766700043343","1","1","1","1","1","1","1","1","1"
"250029","img/neutralC/CFD-BM-036-003-N.jpg","img/neutralC/CFD-BF-044-034-N.jpg","img/neutralC/CFD-WM-248-036-N.jpg","1","1","1","1","0","1","0.503766700043343","0.703740899916738","0.477954600006342","1","1","1","1","1","1","1","1","1"
"250029","img/neutralC/CFD-WM-248-036-N.jpg","img/neutralC/CFD-BM-036-003-N.jpg","img/neutralC/CFD-BF-006-017-N.jpg","1","1","1","1","1","0","0.477954600006342","0.503766700043343","0.525089599890634","1","1","1","1","1","1","1","1","1"
"250029","img/neutralC/CFD-BF-006-017-N.jpg","img/neutralC/CFD-WM-248-036-N.jpg","img/neutralC/CFD-AM-230-150-N.jpg","1","1","1","0","1","0","0.525089599890634","0.477954600006342","0.505928999977186","1","1","1","1","1","1","1","1","1"
"250029","img/neutralC/CFD-AM-230-150-N.jpg","img/neutralC/CFD-BF-006-017-N.jpg","img/neutralC/CFD-IF-677-452-1-N.jpg","1","1","1","0","0","1","0.505928999977186","0.525089599890634","0.525648599956185","1","1","1","1","1","1","1","1","1"
"250029","img/neutralC/CFD-IF-677-452-1-N.jpg","img/neutralC/CFD-AM-230-150-N.jpg","img/neutralC/CFD-BF-236-177-N.jpg","1","1","1","1","0","0","0.525648599956185","0.505928999977186","0.619509499985725","1","1","1","1","1","1","1","1","1"
"250029","img/neutralC/CFD-BF-236-177-N.jpg","img/neutralC/CFD-IF-677-452-1-N.jpg","img/neutralC/CFD-BF-002-001-N.jpg","1","1","1","0","1","0","0.619509499985725","0.525648599956185","0.484842999954708","1","1","1","1","1","1","1","1","1"
"250029","img/neutralC/CFD-BF-002-001-N.jpg","img/neutralC/CFD-BF-236-177-N.jpg",NA,"1","1",NA,"0","0",NA,"0.484842999954708","0.619509499985725",NA,"1","1",NA,"1","1",NA,"1","1",NA
"250029","img/neutralC/CFD-AM-217-085-N.jpg",NA,"img/neutralC/CFD-IM-728-041-N.jpg","1",NA,"1","0",NA,"0","0.462964299949817",NA,"0.516407799907029","1",NA,"1","1",NA,"1","1",NA,"1"
"250029","img/neutralC/CFD-IM-728-041-N.jpg","img/neutralC/CFD-AM-217-085-N.jpg","img/neutralC/CFD-MM-319-052-N.jpg","1","1","1","0","0","1","0.516407799907029","0.462964299949817","0.324765799916349","1","1","1","1","1","1","1","1","1"
"250029","img/neutralC/CFD-MM-319-052-N.jpg","img/neutralC/CFD-IM-728-041-N.jpg","img/neutralC/CFD-WM-038-003-N.jpg","1","1","1","1","0","0","0.324765799916349","0.516407799907029","0.530368700041436","1","1","1","1","1","1","1","1","1"
"250029","img/neutralC/CFD-WM-038-003-N.jpg","img/neutralC/CFD-MM-319-052-N.jpg","img/neutralC/CFD-WF-022-017-N.jpg","1","1","1","0","1","0","0.530368700041436","0.324765799916349","0.381688000052236","1","1","1","1","1","1","1","1","1"
"250029","img/neutralC/CFD-WF-022-017-N.jpg","img/neutralC/CFD-WM-038-003-N.jpg","img/neutralC/CFD-IM-674-281-N.jpg","1","1","1","0","0","1","0.381688000052236","0.530368700041436","0.351710599963553","1","1","1","1","1","1","1","1","1"
"250029","img/neutralC/CFD-IM-674-281-N.jpg","img/neutralC/CFD-WF-022-017-N.jpg","img/neutralC/CFD-BF-204-189-N.jpg","1","1","1","1","0","1","0.351710599963553","0.381688000052236","0.396486100042239","1","1","1","1","1","1","1","1","1"
"250029","img/neutralC/CFD-BF-204-189-N.jpg","img/neutralC/CFD-IM-674-281-N.jpg","img/neutralC/CFD-BM-029-024-N.jpg","1","1","1","1","1","1","0.396486100042239","0.351710599963553","0.360407300060615","1","1","1","1","1","1","1","1","1"
"250029","img/neutralC/CFD-BM-029-024-N.jpg","img/neutralC/CFD-BF-204-189-N.jpg","img/neutralC/CFD-WM-002-009-N.jpg","1","1","1","1","1","0","0.360407300060615","0.396486100042239","0.475773199927062","1","1","1","1","1","1","1","1","1"
"250029","img/neutralC/CFD-WM-002-009-N.jpg","img/neutralC/CFD-BM-029-024-N.jpg","img/neutralC/CFD-WF-002-004-N.jpg","1","1","1","0","1","0","0.475773199927062","0.360407300060615","0.463903299998492","1","1","1","1","1","1","1","1","1"
"250029","img/neutralC/CFD-WF-002-004-N.jpg","img/neutralC/CFD-WM-002-009-N.jpg","img/neutralC/CFD-WM-040-022-N.jpg","1","1","1","0","0","0","0.463903299998492","0.475773199927062","0.399489699979313","1","1","1","1","1","1","1","1","1"
"250029","img/neutralC/CFD-WM-040-022-N.jpg","img/neutralC/CFD-WF-002-004-N.jpg","img/neutralC/CFD-AM-235-241-N.jpg","1","1","1","0","0","0","0.399489699979313","0.463903299998492","0.463404899928719","1","1","1","1","1","1","1","1","1"
"250029","img/neutralC/CFD-AM-235-241-N.jpg","img/neutralC/CFD-WM-040-022-N.jpg","img/neutralC/CFD-AM-215-120-N.jpg","1","1","1","0","0","1","0.463404899928719","0.399489699979313","0.424233299912885","1","1","1","1","1","1","1","1","1"
"250029","img/neutralC/CFD-AM-215-120-N.jpg","img/neutralC/CFD-AM-235-241-N.jpg","img/neutralC/CFD-LF-236-221-N.jpg","1","1","1","1","0","1","0.424233299912885","0.463404899928719","0.429066199925728","1","1","1","1","1","1","1","1","1"
"250029","img/neutralC/CFD-LF-236-221-N.jpg","img/neutralC/CFD-AM-215-120-N.jpg","img/neutralC/CFD-IM-639-263-N.jpg","1","1","1","1","1","1","0.429066199925728","0.424233299912885","0.462736699962988","1","1","1","1","1","1","1","1","1"
"250029","img/neutralC/CFD-IM-639-263-N.jpg","img/neutralC/CFD-LF-236-221-N.jpg","img/neutralC/CFD-WM-257-161-N.jpg","1","1","1","1","1","1","0.462736699962988","0.429066199925728","0.418506999965757","1","1","1","1","1","1","1","1","1"
"250029","img/neutralC/CFD-WM-257-161-N.jpg","img/neutralC/CFD-IM-639-263-N.jpg","img/neutralC/CFD-BM-247-240-N.jpg","1","1","1","1","1","0","0.418506999965757","0.462736699962988","0.4259845999768","1","1","1","1","1","1","1","1","1"
"250029","img/neutralC/CFD-BM-247-240-N.jpg","img/neutralC/CFD-WM-257-161-N.jpg","img/neutralC/CFD-BF-255-140-N.jpg","1","1","1","0","1","1","0.4259845999768","0.418506999965757","0.347010799916461","1","1","1","1","1","1","1","1","1"
"250029","img/neutralC/CFD-BF-255-140-N.jpg","img/neutralC/CFD-BM-247-240-N.jpg","img/neutralC/CFD-LM-252-076-N.jpg","1","1","1","1","0","1","0.347010799916461","0.4259845999768","0.434152900008485","1","1","1","1","1","1","1","1","1"
"250029","img/neutralC/CFD-LM-252-076-N.jpg","img/neutralC/CFD-BF-255-140-N.jpg","img/neutralC/CFD-BM-211-174-N.jpg","1","1","1","1","1","0","0.434152900008485","0.347010799916461","0.56078809988685","1","1","1","1","1","1","1","1","1"
"250029","img/neutralC/CFD-BM-211-174-N.jpg","img/neutralC/CFD-LM-252-076-N.jpg","img/neutralC/CFD-BF-003-003-N.jpg","1","1","1","0","1","0","0.56078809988685","0.434152900008485","0.389628799981438","1","1","1","1","1","1","1","1","1"
"250029","img/neutralC/CFD-BF-003-003-N.jpg","img/neutralC/CFD-BM-211-174-N.jpg","img/neutralC/CFD-BF-028-001-N.jpg","1","1","1","0","0","1","0.389628799981438","0.56078809988685","0.313730400055647","1","1","1","1","1","1","1","1","1"
"250029","img/neutralC/CFD-BF-028-001-N.jpg","img/neutralC/CFD-BF-003-003-N.jpg","img/neutralC/CFD-BF-201-080-N.jpg","1","1","1","1","0","1","0.313730400055647","0.389628799981438","0.37449870002456","1","1","1","1","1","1","1","1","1"
"250029","img/neutralC/CFD-BF-201-080-N.jpg","img/neutralC/CFD-BF-028-001-N.jpg","img/neutralC/CFD-BM-027-001-N.jpg","1","1","1","1","1","0","0.37449870002456","0.313730400055647","0.589879000093788","1","1","1","1","1","1","1","1","1"
"250029","img/neutralC/CFD-BM-027-001-N.jpg","img/neutralC/CFD-BF-201-080-N.jpg","img/neutralC/CFD-BM-015-015-N.jpg","1","1","1","0","1","0","0.589879000093788","0.37449870002456","0.487972100032494","1","1","1","1","1","1","1","1","1"
"250029","img/neutralC/CFD-BM-015-015-N.jpg","img/neutralC/CFD-BM-027-001-N.jpg","img/neutralC/CFD-LF-216-121-N.jpg","1","1","1","0","0","1","0.487972100032494","0.589879000093788","0.445651500020176","1","1","1","1","1","1","1","1","1"
"250029","img/neutralC/CFD-LF-216-121-N.jpg","img/neutralC/CFD-BM-015-015-N.jpg","img/neutralC/CFD-IF-718-001-N.jpg","1","1","1","1","0","1","0.445651500020176","0.487972100032494","0.490583700011484","1","1","1","1","1","1","1","1","1"
"250029","img/neutralC/CFD-IF-718-001-N.jpg","img/neutralC/CFD-LF-216-121-N.jpg","img/neutralC/CFD-WM-225-127-N.jpg","1","1","1","1","1","0","0.490583700011484","0.445651500020176","0.509594799950719","1","1","1","1","1","1","1","1","1"
"250029","img/neutralC/CFD-WM-225-127-N.jpg","img/neutralC/CFD-IF-718-001-N.jpg","img/neutralC/CFD-BF-208-266-N.jpg","1","1","1","0","1","0","0.509594799950719","0.490583700011484","0.564212800003588","1","1","1","1","1","1","1","1","1"
"250029","img/neutralC/CFD-BF-208-266-N.jpg","img/neutralC/CFD-WM-225-127-N.jpg","img/neutralC/CFD-BF-023-010-N.jpg","1","1","1","0","0","1","0.564212800003588","0.509594799950719","0.441124900011346","1","1","1","1","1","1","1","1","1"
"250029","img/neutralC/CFD-BF-023-010-N.jpg","img/neutralC/CFD-BF-208-266-N.jpg","img/neutralC/CFD-IF-672-305-N.jpg","1","1","1","1","0","0","0.441124900011346","0.564212800003588","0.53346009994857","1","1","1","1","1","1","1","1","1"
"250029","img/neutralC/CFD-IF-672-305-N.jpg","img/neutralC/CFD-BF-023-010-N.jpg","img/neutralC/CFD-WF-026-002-N.jpg","1","1","1","0","1","1","0.53346009994857","0.441124900011346","0.463868299964815","1","1","1","1","1","1","1","1","1"
"250029","img/neutralC/CFD-WF-026-002-N.jpg","img/neutralC/CFD-IF-672-305-N.jpg",NA,"1","1",NA,"1","0",NA,"0.463868299964815","0.53346009994857",NA,"1","1",NA,"1","1",NA,"1","1",NA
"250029","img/neutralC/CFD-WM-232-070-N.jpg",NA,"img/neutralC/CFD-MF-300-002-N.jpg","1",NA,"1","0",NA,"0","0.554083799943328",NA,"0.598838499980047","1",NA,"1","1",NA,"1","1",NA,"1"
"250029","img/neutralC/CFD-MF-300-002-N.jpg","img/neutralC/CFD-WM-232-070-N.jpg","img/neutralC/CFD-MF-329-001-N.jpg","1","1","0","0","0","0","0.598838499980047","0.554083799943328","0.327164300018921","1","1","1","1","1","1","1","1","1"
"250029","img/neutralC/CFD-MF-329-001-N.jpg","img/neutralC/CFD-MF-300-002-N.jpg","img/neutralC/CFD-IM-675-015-N.jpg","0","1","1","0","0","1","0.327164300018921","0.598838499980047","0.46637619996909","1","1","1","1","1","1","1","1","1"
"250029","img/neutralC/CFD-IM-675-015-N.jpg","img/neutralC/CFD-MF-329-001-N.jpg","img/neutralC/CFD-LF-201-035-N.jpg","1","0","1","1","0","1","0.46637619996909","0.327164300018921","0.41049669997301","1","1","1","1","1","1","1","1","1"
"250029","img/neutralC/CFD-LF-201-035-N.jpg","img/neutralC/CFD-IM-675-015-N.jpg","img/neutralC/CFD-WF-212-050-N.jpg","1","1","1","1","1","0","0.41049669997301","0.46637619996909","0.479348300024867","1","1","1","1","1","1","1","1","1"
"250029","img/neutralC/CFD-WF-212-050-N.jpg","img/neutralC/CFD-LF-201-035-N.jpg","img/neutralC/CFD-WM-024-015-N.jpg","1","1","1","0","1","1","0.479348300024867","0.41049669997301","0.450969800003804","1","1","1","1","1","1","1","1","1"
"250029","img/neutralC/CFD-WM-024-015-N.jpg","img/neutralC/CFD-WF-212-050-N.jpg","img/neutralC/CFD-MM-304-002-N.jpg","1","1","1","1","0","1","0.450969800003804","0.479348300024867","0.457868100027554","1","1","1","1","1","1","1","1","1"
"250029","img/neutralC/CFD-MM-304-002-N.jpg","img/neutralC/CFD-WM-024-015-N.jpg","img/neutralC/CFD-AM-236-090-N.jpg","1","1","1","1","1","1","0.457868100027554","0.450969800003804","0.389529200037941","1","1","1","1","1","1","1","1","1"
"250029","img/neutralC/CFD-AM-236-090-N.jpg","img/neutralC/CFD-MM-304-002-N.jpg","img/neutralC/CFD-AF-215-70-N.jpg","1","1","1","1","1","0","0.389529200037941","0.457868100027554","0.551154499989934","1","1","1","1","1","1","1","1","1"
"250029","img/neutralC/CFD-AF-215-70-N.jpg","img/neutralC/CFD-AM-236-090-N.jpg","img/neutralC/CFD-BM-243-218-N.jpg","1","1","1","0","1","1","0.551154499989934","0.389529200037941","0.475083599914797","1","1","1","1","1","1","1","1","1"
"250029","img/neutralC/CFD-BM-243-218-N.jpg","img/neutralC/CFD-AF-215-70-N.jpg","img/neutralC/CFD-BF-224-002-N.jpg","1","1","1","1","0","1","0.475083599914797","0.551154499989934","0.504565799958073","1","1","1","1","1","1","1","1","1"
"250029","img/neutralC/CFD-BF-224-002-N.jpg","img/neutralC/CFD-BM-243-218-N.jpg","img/neutralC/CFD-IM-637-007-N.jpg","1","1","1","1","1","0","0.504565799958073","0.475083599914797","0.449197100009769","1","1","1","1","1","1","1","1","1"
"250029","img/neutralC/CFD-IM-637-007-N.jpg","img/neutralC/CFD-BF-224-002-N.jpg","img/neutralC/CFD-WF-217-085-N.jpg","1","1","1","0","1","1","0.449197100009769","0.504565799958073","0.421205199905671","1","1","1","1","1","1","1","1","1"
"250029","img/neutralC/CFD-WF-217-085-N.jpg","img/neutralC/CFD-IM-637-007-N.jpg","img/neutralC/CFD-AF-229-160-N.jpg","1","1","1","1","0","0","0.421205199905671","0.449197100009769","0.498542999965139","1","1","1","1","1","1","1","1","1"
"250029","img/neutralC/CFD-AF-229-160-N.jpg","img/neutralC/CFD-WF-217-085-N.jpg","img/neutralC/CFD-BF-043-003-N.jpg","1","1","1","0","1","0","0.498542999965139","0.421205199905671","0.565694199991412","1","1","1","1","1","1","1","1","1"
"250029","img/neutralC/CFD-BF-043-003-N.jpg","img/neutralC/CFD-AF-229-160-N.jpg","img/neutralC/CFD-IF-619-197-N.jpg","1","1","1","0","0","0","0.565694199991412","0.498542999965139","0.475157600012608","1","1","1","1","1","1","1","1","1"
"250029","img/neutralC/CFD-IF-619-197-N.jpg","img/neutralC/CFD-BF-043-003-N.jpg","img/neutralC/CFD-IF-608-390-N.jpg","1","1","1","0","0","1","0.475157600012608","0.565694199991412","0.562197200022638","1","1","1","1","1","1","1","1","1"
"250029","img/neutralC/CFD-IF-608-390-N.jpg","img/neutralC/CFD-IF-619-197-N.jpg","img/neutralC/CFD-WF-012-002-N.jpg","1","1","1","1","0","1","0.562197200022638","0.475157600012608","0.558101100032218","1","1","1","1","1","1","1","1","1"
"250029","img/neutralC/CFD-WF-012-002-N.jpg","img/neutralC/CFD-IF-608-390-N.jpg","img/neutralC/CFD-IM-604-014-N.jpg","1","1","1","1","1","0","0.558101100032218","0.562197200022638","0.561495799920522","1","1","1","1","1","1","1","1","1"
"250029","img/neutralC/CFD-IM-604-014-N.jpg","img/neutralC/CFD-WF-012-002-N.jpg","img/neutralC/CFD-WF-008-002-N.jpg","1","1","1","0","1","1","0.561495799920522","0.558101100032218","0.503609400009736","1","1","1","1","1","1","1","1","1"
"250029","img/neutralC/CFD-WF-008-002-N.jpg","img/neutralC/CFD-IM-604-014-N.jpg","img/neutralC/CFD-WF-248-129-N.jpg","1","1","1","1","0","0","0.503609400009736","0.561495799920522","0.453138399985619","1","1","1","1","1","1","1","1","1"
"250029","img/neutralC/CFD-WF-248-129-N.jpg","img/neutralC/CFD-WF-008-002-N.jpg","img/neutralC/CFD-LF-226-174-N.jpg","1","1","1","0","1","0","0.453138399985619","0.503609400009736","0.485071899951436","1","1","1","1","1","1","1","1","1"
"250029","img/neutralC/CFD-LF-226-174-N.jpg","img/neutralC/CFD-WF-248-129-N.jpg","img/neutralC/CFD-MF-340-026-N.jpg","1","1","1","0","0","1","0.485071899951436","0.453138399985619","0.48313710000366","1","1","1","1","1","1","1","1","1"
"250029","img/neutralC/CFD-MF-340-026-N.jpg","img/neutralC/CFD-LF-226-174-N.jpg","img/neutralC/CFD-IM-685-004-N.jpg","1","1","1","1","0","1","0.48313710000366","0.485071899951436","0.351471900008619","1","1","1","1","1","1","1","1","1"
"250029","img/neutralC/CFD-IM-685-004-N.jpg","img/neutralC/CFD-MF-340-026-N.jpg","img/neutralC/CFD-AF-254-167-N.jpg","1","1","1","1","1","1","0.351471900008619","0.48313710000366","0.40461620001588","1","1","1","1","1","1","1","1","1"
"250029","img/neutralC/CFD-AF-254-167-N.jpg","img/neutralC/CFD-IM-685-004-N.jpg","img/neutralC/CFD-BF-051-035-N.jpg","1","1","1","1","1","0","0.40461620001588","0.351471900008619","0.562810400035232","1","1","1","1","1","1","1","1","1"
"250029","img/neutralC/CFD-BF-051-035-N.jpg","img/neutralC/CFD-AF-254-167-N.jpg","img/neutralC/CFD-BM-039-029-N.jpg","1","1","1","0","1","1","0.562810400035232","0.40461620001588","0.463107899995521","1","1","1","1","1","1","1","1","1"
"250029","img/neutralC/CFD-BM-039-029-N.jpg","img/neutralC/CFD-BF-051-035-N.jpg","img/neutralC/CFD-MF-327-002-N.jpg","1","1","1","1","0","0","0.463107899995521","0.562810400035232","0.526607000036165","1","1","1","1","1","1","1","1","1"
"250029","img/neutralC/CFD-MF-327-002-N.jpg","img/neutralC/CFD-BM-039-029-N.jpg","img/neutralC/CFD-LM-217-162-N.jpg","1","1","1","0","1","0","0.526607000036165","0.463107899995521","0.499671899946406","1","1","1","1","1","1","1","1","1"
"250029","img/neutralC/CFD-LM-217-162-N.jpg","img/neutralC/CFD-MF-327-002-N.jpg","img/neutralC/CFD-IM-709-103-N.jpg","1","1","1","0","0","0","0.499671899946406","0.526607000036165","0.536836599931121","1","1","1","1","1","1","1","1","1"
"250029","img/neutralC/CFD-IM-709-103-N.jpg","img/neutralC/CFD-LM-217-162-N.jpg","img/neutralC/CFD-WM-213-076-N.jpg","1","1","1","0","0","1","0.536836599931121","0.499671899946406","0.461994999903254","1","1","1","1","1","1","1","1","1"
"250029","img/neutralC/CFD-WM-213-076-N.jpg","img/neutralC/CFD-IM-709-103-N.jpg",NA,"1","1",NA,"1","0",NA,"0.461994999903254","0.536836599931121",NA,"1","1",NA,"1","1",NA,"1","1",NA
"250029","img/neutralC/CFD-IM-635-010-N.jpg",NA,"img/neutralC/CFD-LF-239-148-N.jpg","1",NA,"1","1",NA,"0","0.684708699933253",NA,"0.522841900005005","1",NA,"1","1",NA,"1","1",NA,"1"
"250029","img/neutralC/CFD-LF-239-148-N.jpg","img/neutralC/CFD-IM-635-010-N.jpg","img/neutralC/CFD-AF-213-126-N.jpg","1","1","1","0","1","1","0.522841900005005","0.684708699933253","0.445001400075853","1","1","1","1","1","1","1","1","1"
"250029","img/neutralC/CFD-AF-213-126-N.jpg","img/neutralC/CFD-LF-239-148-N.jpg","img/neutralC/CFD-BF-040-003-N.jpg","1","1","1","1","0","1","0.445001400075853","0.522841900005005","0.412700299988501","1","1","1","1","1","1","1","1","1"
"250029","img/neutralC/CFD-BF-040-003-N.jpg","img/neutralC/CFD-AF-213-126-N.jpg","img/neutralC/CFD-IF-732-260-N.jpg","1","1","1","1","1","0","0.412700299988501","0.445001400075853","0.417383399908431","1","1","1","1","1","1","1","1","1"
"250029","img/neutralC/CFD-IF-732-260-N.jpg","img/neutralC/CFD-BF-040-003-N.jpg","img/neutralC/CFD-WF-235-121-N.jpg","1","1","1","0","1","0","0.417383399908431","0.412700299988501","0.439385100034997","1","1","1","1","1","1","1","1","1"
"250029","img/neutralC/CFD-WF-235-121-N.jpg","img/neutralC/CFD-IF-732-260-N.jpg","img/neutralC/CFD-BM-215-155-N.jpg","1","1","1","0","0","0","0.439385100034997","0.417383399908431","0.501069099991582","1","1","1","1","1","1","1","1","1"
"250029","img/neutralC/CFD-BM-215-155-N.jpg","img/neutralC/CFD-WF-235-121-N.jpg","img/neutralC/CFD-BF-217-189-N.jpg","1","1","1","0","0","0","0.501069099991582","0.439385100034997","0.517872700002044","1","1","1","1","1","1","1","1","1"
"250029","img/neutralC/CFD-BF-217-189-N.jpg","img/neutralC/CFD-BM-215-155-N.jpg","img/neutralC/CFD-BF-235-168-N.jpg","1","1","1","0","0","1","0.517872700002044","0.501069099991582","0.444989899988286","1","1","1","1","1","1","1","1","1"
"250029","img/neutralC/CFD-BF-235-168-N.jpg","img/neutralC/CFD-BF-217-189-N.jpg","img/neutralC/CFD-BF-206-143-N.jpg","1","1","1","1","0","1","0.444989899988286","0.517872700002044","0.49363819998689","1","1","1","1","1","1","1","1","1"
"250029","img/neutralC/CFD-BF-206-143-N.jpg","img/neutralC/CFD-BF-235-168-N.jpg","img/neutralC/CFD-AF-250-200-N.jpg","1","1","1","1","1","1","0.49363819998689","0.444989899988286","0.49793780001346","1","1","1","1","1","1","1","1","1"
"250029","img/neutralC/CFD-AF-250-200-N.jpg","img/neutralC/CFD-BF-206-143-N.jpg","img/neutralC/CFD-AM-233-236-N.jpg","1","1","1","1","1","1","0.49793780001346","0.49363819998689","0.625753499916755","1","1","1","1","1","1","1","1","1"
"250029","img/neutralC/CFD-AM-233-236-N.jpg","img/neutralC/CFD-AF-250-200-N.jpg","img/neutralC/CFD-BF-042-026-N.jpg","1","1","1","1","1","1","0.625753499916755","0.49793780001346","0.440676999976858","1","1","1","1","1","1","1","1","1"
"250029","img/neutralC/CFD-BF-042-026-N.jpg","img/neutralC/CFD-AM-233-236-N.jpg","img/neutralC/CFD-MF-307-002-N.jpg","1","1","1","1","1","1","0.440676999976858","0.625753499916755","0.431496700039133","1","1","1","1","1","1","1","1","1"
"250029","img/neutralC/CFD-MF-307-002-N.jpg","img/neutralC/CFD-BF-042-026-N.jpg","img/neutralC/CFD-BM-004-002-N.jpg","1","1","1","1","1","0","0.431496700039133","0.440676999976858","0.434213800006546","1","1","1","1","1","1","1","1","1"
"250029","img/neutralC/CFD-BM-004-002-N.jpg","img/neutralC/CFD-MF-307-002-N.jpg","img/neutralC/CFD-AM-245-111-N.jpg","1","1","1","0","1","1","0.434213800006546","0.431496700039133","0.425320000038482","1","1","1","1","1","1","1","1","1"
"250029","img/neutralC/CFD-AM-245-111-N.jpg","img/neutralC/CFD-BM-004-002-N.jpg","img/neutralC/CFD-WM-253-119-N.jpg","1","1","1","1","0","1","0.425320000038482","0.434213800006546","0.432500299997628","1","1","1","1","1","1","1","1","1"
"250029","img/neutralC/CFD-WM-253-119-N.jpg","img/neutralC/CFD-AM-245-111-N.jpg","img/neutralC/CFD-AM-225-102-N.jpg","1","1","1","1","1","0","0.432500299997628","0.425320000038482","0.546126800007187","1","1","1","1","1","1","1","1","1"
"250029","img/neutralC/CFD-AM-225-102-N.jpg","img/neutralC/CFD-WM-253-119-N.jpg","img/neutralC/CFD-IM-669-111-N.jpg","1","1","1","0","1","1","0.546126800007187","0.432500299997628","0.504849900025874","1","1","1","1","1","1","1","1","1"
"250029","img/neutralC/CFD-IM-669-111-N.jpg","img/neutralC/CFD-AM-225-102-N.jpg","img/neutralC/CFD-AF-205-155-N.jpg","1","1","1","1","0","0","0.504849900025874","0.546126800007187","0.496538799954578","1","1","1","1","1","1","1","1","1"
"250029","img/neutralC/CFD-AF-205-155-N.jpg","img/neutralC/CFD-IM-669-111-N.jpg","img/neutralC/CFD-AF-234-208-N.jpg","1","1","1","0","1","1","0.496538799954578","0.504849900025874","0.418764300062321","1","1","1","1","1","1","1","1","1"
"250029","img/neutralC/CFD-AF-234-208-N.jpg","img/neutralC/CFD-AF-205-155-N.jpg","img/neutralC/CFD-AF-244-168-N.jpg","1","1","1","1","0","0","0.418764300062321","0.496538799954578","0.493184599909","1","1","1","1","1","1","1","1","1"
"250029","img/neutralC/CFD-AF-244-168-N.jpg","img/neutralC/CFD-AF-234-208-N.jpg","img/neutralC/CFD-LM-241-125-N.jpg","1","1","1","0","1","1","0.493184599909","0.418764300062321","0.392641599988565","1","1","1","1","1","1","1","1","1"
"250029","img/neutralC/CFD-LM-241-125-N.jpg","img/neutralC/CFD-AF-244-168-N.jpg","img/neutralC/CFD-AF-246-242-N.jpg","1","1","1","1","0","0","0.392641599988565","0.493184599909","0.492731400066987","1","1","1","1","1","1","1","1","1"
"250029","img/neutralC/CFD-AF-246-242-N.jpg","img/neutralC/CFD-LM-241-125-N.jpg","img/neutralC/CFD-IF-636-011-N.jpg","1","1","1","0","1","1","0.492731400066987","0.392641599988565","0.411842299974523","1","1","1","1","1","1","1","1","1"
"250029","img/neutralC/CFD-IF-636-011-N.jpg","img/neutralC/CFD-AF-246-242-N.jpg","img/neutralC/CFD-WF-210-086-N.jpg","1","1","1","1","0","0","0.411842299974523","0.492731400066987","0.506081599975005","1","1","1","1","1","1","1","1","1"
"250029","img/neutralC/CFD-WF-210-086-N.jpg","img/neutralC/CFD-IF-636-011-N.jpg","img/neutralC/CFD-WM-018-002-N.jpg","1","1","1","0","1","0","0.506081599975005","0.411842299974523","0.606694899965078","1","1","1","1","1","1","1","1","1"
"250029","img/neutralC/CFD-WM-018-002-N.jpg","img/neutralC/CFD-WF-210-086-N.jpg","img/neutralC/CFD-MF-302-027-N.jpg","1","1","1","0","0","0","0.606694899965078","0.506081599975005","0.520482799969614","1","1","1","1","1","1","1","1","1"
"250029","img/neutralC/CFD-MF-302-027-N.jpg","img/neutralC/CFD-WM-018-002-N.jpg","img/neutralC/CFD-BF-020-002-N.jpg","1","1","1","0","0","1","0.520482799969614","0.606694899965078","0.429234600043856","1","1","1","1","1","1","1","1","1"
"250029","img/neutralC/CFD-BF-020-002-N.jpg","img/neutralC/CFD-MF-302-027-N.jpg","img/neutralC/CFD-IM-632-097-N.jpg","1","1","0","1","0","0","0.429234600043856","0.520482799969614","0.408590199891478","1","1","1","1","1","1","1","1","2"
"250029","img/neutralC/CFD-IM-632-097-N.jpg","img/neutralC/CFD-BF-020-002-N.jpg","img/neutralC/CFD-IM-678-482-N.jpg","0","1","1","0","1","0","0.408590199891478","0.429234600043856","0.557952699949965","1","1","1","1","1","1","2","1","1"
"250029","img/neutralC/CFD-IM-678-482-N.jpg","img/neutralC/CFD-IM-632-097-N.jpg","img/neutralC/CFD-LM-204-001-N.jpg","1","0","1","0","0","0","0.557952699949965","0.408590199891478","0.502175099914894","1","1","1","1","1","1","1","2","1"
"250029","img/neutralC/CFD-LM-204-001-N.jpg","img/neutralC/CFD-IM-678-482-N.jpg",NA,"1","1",NA,"0","0",NA,"0.502175099914894","0.557952699949965",NA,"1","1",NA,"1","1",NA,"1","1",NA
"250029","img/neutralC/CFD-IM-651-308-N.jpg",NA,"img/neutralC/CFD-BM-019-002-N.jpg","1",NA,"1","0",NA,"0","0.610814500018023",NA,"0.521554399980232","1",NA,"1","1",NA,"1","1",NA,"1"
"250029","img/neutralC/CFD-BM-019-002-N.jpg","img/neutralC/CFD-IM-651-308-N.jpg","img/neutralC/CFD-WM-041-021-N.jpg","1","1","1","0","0","0","0.521554399980232","0.610814500018023","0.52993159997277","1","1","1","1","1","1","1","1","1"
"250029","img/neutralC/CFD-WM-041-021-N.jpg","img/neutralC/CFD-BM-019-002-N.jpg","img/neutralC/CFD-BF-253-202-N.jpg","1","1","1","0","0","0","0.52993159997277","0.521554399980232","0.50814069993794","1","1","1","1","1","1","1","1","1"
"250029","img/neutralC/CFD-BF-253-202-N.jpg","img/neutralC/CFD-WM-041-021-N.jpg","img/neutralC/CFD-LM-218-183-N.jpg","1","1","1","0","0","1","0.50814069993794","0.52993159997277","0.423475999967195","1","1","1","1","1","1","1","1","1"
"250029","img/neutralC/CFD-LM-218-183-N.jpg","img/neutralC/CFD-BF-253-202-N.jpg","img/neutralC/CFD-LF-230-203-N.jpg","1","1","1","1","0","0","0.423475999967195","0.50814069993794","0.495738300029188","1","1","1","1","1","1","1","1","1"
"250029","img/neutralC/CFD-LF-230-203-N.jpg","img/neutralC/CFD-LM-218-183-N.jpg","img/neutralC/CFD-MM-316-156-N.jpg","1","1","1","0","1","1","0.495738300029188","0.423475999967195","0.393299599993043","1","1","1","1","1","1","1","1","1"
"250029","img/neutralC/CFD-MM-316-156-N.jpg","img/neutralC/CFD-LF-230-203-N.jpg","img/neutralC/CFD-LM-215-247-N.jpg","1","1","1","1","0","0","0.393299599993043","0.495738300029188","0.427808800013736","1","1","1","1","1","1","1","1","1"
"250029","img/neutralC/CFD-LM-215-247-N.jpg","img/neutralC/CFD-MM-316-156-N.jpg","img/neutralC/CFD-IF-710-016-N.jpg","1","1","1","0","1","0","0.427808800013736","0.393299599993043","0.434716599993408","1","1","1","1","1","1","1","1","1"
"250029","img/neutralC/CFD-IF-710-016-N.jpg","img/neutralC/CFD-LM-215-247-N.jpg","img/neutralC/CFD-LF-214-090-N.jpg","1","1","1","0","0","0","0.434716599993408","0.427808800013736","0.623142700060271","1","1","1","1","1","1","1","1","1"
"250029","img/neutralC/CFD-LF-214-090-N.jpg","img/neutralC/CFD-IF-710-016-N.jpg","img/neutralC/CFD-LF-203-066-N.jpg","1","1","0","0","0","0","0.623142700060271","0.434716599993408","0.337501900037751","1","1","1","1","1","1","1","1","1"
"250029","img/neutralC/CFD-LF-203-066-N.jpg","img/neutralC/CFD-LF-214-090-N.jpg","img/neutralC/CFD-AM-201-076-N.jpg","0","1","1","0","0","1","0.337501900037751","0.623142700060271","0.70417559996713","1","1","1","1","1","1","1","1","1"
"250029","img/neutralC/CFD-AM-201-076-N.jpg","img/neutralC/CFD-LF-203-066-N.jpg","img/neutralC/CFD-WF-224-099-N.jpg","1","0","1","1","0","0","0.70417559996713","0.337501900037751","0.539463200024329","1","1","1","1","1","1","1","1","1"
"250029","img/neutralC/CFD-WF-224-099-N.jpg","img/neutralC/CFD-AM-201-076-N.jpg","img/neutralC/CFD-IF-634-382-N.jpg","1","1","1","0","1","1","0.539463200024329","0.70417559996713","0.590815500007011","1","1","1","1","1","1","1","1","1"
"250029","img/neutralC/CFD-IF-634-382-N.jpg","img/neutralC/CFD-WF-224-099-N.jpg","img/neutralC/CFD-BM-033-003-N.jpg","1","1","1","1","0","0","0.590815500007011","0.539463200024329","0.610182699980214","1","1","1","1","1","1","1","1","1"
"250029","img/neutralC/CFD-BM-033-003-N.jpg","img/neutralC/CFD-IF-634-382-N.jpg","img/neutralC/CFD-LF-205-100-N.jpg","1","1","1","0","1","1","0.610182699980214","0.590815500007011","0.520470799994655","1","1","1","1","1","1","1","1","1"
"250029","img/neutralC/CFD-LF-205-100-N.jpg","img/neutralC/CFD-BM-033-003-N.jpg","img/neutralC/CFD-IF-693-172-N.jpg","1","1","1","1","0","0","0.520470799994655","0.610182699980214","0.554636599961668","1","1","1","1","1","1","1","1","1"
"250029","img/neutralC/CFD-IF-693-172-N.jpg","img/neutralC/CFD-LF-205-100-N.jpg","img/neutralC/CFD-AF-231-357-N.jpg","1","1","1","0","1","1","0.554636599961668","0.520470799994655","0.564435699954629","1","1","1","1","1","1","1","1","1"
"250029","img/neutralC/CFD-AF-231-357-N.jpg","img/neutralC/CFD-IF-693-172-N.jpg","img/neutralC/CFD-BF-213-188-N.jpg","1","1","1","1","0","1","0.564435699954629","0.554636599961668","0.452968599973246","1","1","1","1","1","1","1","1","1"
"250029","img/neutralC/CFD-BF-213-188-N.jpg","img/neutralC/CFD-AF-231-357-N.jpg","img/neutralC/CFD-LF-224-176-N.jpg","1","1","1","1","1","0","0.452968599973246","0.564435699954629","0.674047600012273","1","1","1","1","1","1","1","1","1"
"250029","img/neutralC/CFD-LF-224-176-N.jpg","img/neutralC/CFD-BF-213-188-N.jpg","img/neutralC/CFD-BF-029-031-N.jpg","1","1","1","0","1","1","0.674047600012273","0.452968599973246","0.598164199967869","1","1","1","1","1","1","1","1","1"
"250029","img/neutralC/CFD-BF-029-031-N.jpg","img/neutralC/CFD-LF-224-176-N.jpg","img/neutralC/CFD-BF-039-031-N.jpg","1","1","1","1","0","1","0.598164199967869","0.674047600012273","0.415295099955983","1","1","1","1","1","1","1","1","1"
"250029","img/neutralC/CFD-BF-039-031-N.jpg","img/neutralC/CFD-BF-029-031-N.jpg","img/neutralC/CFD-BF-205-141-N.jpg","1","1","1","1","1","0","0.415295099955983","0.598164199967869","0.461518600001","1","1","1","1","1","1","1","1","1"
"250029","img/neutralC/CFD-BF-205-141-N.jpg","img/neutralC/CFD-BF-039-031-N.jpg","img/neutralC/CFD-BM-239-136-N.jpg","1","1","1","0","1","1","0.461518600001","0.415295099955983","0.490376200061291","1","1","1","1","1","1","1","1","1"
"250029","img/neutralC/CFD-BM-239-136-N.jpg","img/neutralC/CFD-BF-205-141-N.jpg","img/neutralC/CFD-WF-213-031-N.jpg","1","1","1","1","0","1","0.490376200061291","0.461518600001","0.534122499986552","1","1","1","1","1","1","1","1","1"
"250029","img/neutralC/CFD-WF-213-031-N.jpg","img/neutralC/CFD-BM-239-136-N.jpg","img/neutralC/CFD-WM-021-001-N.jpg","1","1","1","1","1","1","0.534122499986552","0.490376200061291","0.626477699959651","1","1","1","1","1","1","1","1","1"
"250029","img/neutralC/CFD-WM-021-001-N.jpg","img/neutralC/CFD-WF-213-031-N.jpg","img/neutralC/CFD-MF-337-026-N.jpg","1","1","1","1","1","1","0.626477699959651","0.534122499986552","0.452793200034648","1","1","1","1","1","1","1","1","1"
"250029","img/neutralC/CFD-MF-337-026-N.jpg","img/neutralC/CFD-WM-021-001-N.jpg","img/neutralC/CFD-WF-250-167-N.jpg","1","1","1","1","1","1","0.452793200034648","0.626477699959651","0.802502200007439","1","1","1","1","1","1","1","1","1"
"250029","img/neutralC/CFD-WF-250-167-N.jpg","img/neutralC/CFD-MF-337-026-N.jpg","img/neutralC/CFD-WM-011-002-N.jpg","1","1","1","1","1","0","0.802502200007439","0.452793200034648","0.526397700072266","1","1","1","1","1","1","1","1","1"
"250029","img/neutralC/CFD-WM-011-002-N.jpg","img/neutralC/CFD-WF-250-167-N.jpg","img/neutralC/CFD-BM-041-035-N.jpg","1","1","1","0","1","0","0.526397700072266","0.802502200007439","0.541735299979337","1","1","1","1","1","1","1","1","1"
"250029","img/neutralC/CFD-BM-041-035-N.jpg","img/neutralC/CFD-WM-011-002-N.jpg","img/neutralC/CFD-AM-212-050-N.jpg","1","1","1","0","0","1","0.541735299979337","0.526397700072266","0.486532000009902","1","1","1","1","1","1","1","1","1"
"250029","img/neutralC/CFD-AM-212-050-N.jpg","img/neutralC/CFD-BM-041-035-N.jpg","img/neutralC/CFD-IM-684-008-N.jpg","1","1","1","1","0","1","0.486532000009902","0.541735299979337","0.482771800016053","1","1","1","1","1","1","1","1","1"
"250029","img/neutralC/CFD-IM-684-008-N.jpg","img/neutralC/CFD-AM-212-050-N.jpg",NA,"1","1",NA,"1","1",NA,"0.482771800016053","0.486532000009902",NA,"1","1",NA,"1","1",NA,"1","1",NA
"250029","img/neutralC/CFD-LM-247-095-N.jpg",NA,"img/neutralC/CFD-BM-010-003-N.jpg","1",NA,"1","0",NA,"0","0.56447580002714",NA,"0.580834700027481","1",NA,"1","1",NA,"1","1",NA,"1"
"250029","img/neutralC/CFD-BM-010-003-N.jpg","img/neutralC/CFD-LM-247-095-N.jpg","img/neutralC/CFD-MF-336-016-N.jpg","1","1","1","0","0","1","0.580834700027481","0.56447580002714","0.428374000010081","1","1","1","1","1","1","1","1","1"
"250029","img/neutralC/CFD-MF-336-016-N.jpg","img/neutralC/CFD-BM-010-003-N.jpg","img/neutralC/CFD-BF-004-014-N.jpg","1","1","1","1","0","1","0.428374000010081","0.580834700027481","0.408834000001661","1","1","1","1","1","1","1","1","1"
"250029","img/neutralC/CFD-BF-004-014-N.jpg","img/neutralC/CFD-MF-336-016-N.jpg","img/neutralC/CFD-BM-028-002-N.jpg","1","1","1","1","1","1","0.408834000001661","0.428374000010081","0.354980299947783","1","1","1","1","1","1","1","1","1"
"250029","img/neutralC/CFD-BM-028-002-N.jpg","img/neutralC/CFD-BF-004-014-N.jpg","img/neutralC/CFD-LF-208-127-N.jpg","1","1","1","1","1","0","0.354980299947783","0.408834000001661","0.397757299942896","1","1","1","1","1","1","1","1","1"
"250029","img/neutralC/CFD-LF-208-127-N.jpg","img/neutralC/CFD-BM-028-002-N.jpg","img/neutralC/CFD-IF-744-114-N.jpg","1","1","0","0","1","0","0.397757299942896","0.354980299947783","0.337013099924661","1","1","1","1","1","1","1","1","1"
"250029","img/neutralC/CFD-IF-744-114-N.jpg","img/neutralC/CFD-LF-208-127-N.jpg","img/neutralC/CFD-IM-738-191-N.jpg","0","1","1","0","0","0","0.337013099924661","0.397757299942896","0.446532000089064","1","1","1","1","1","1","1","1","1"
"250029","img/neutralC/CFD-IM-738-191-N.jpg","img/neutralC/CFD-IF-744-114-N.jpg","img/neutralC/CFD-BM-213-134-N.jpg","1","0","1","0","0","1","0.446532000089064","0.337013099924661","0.48055249999743","1","1","1","1","1","1","1","1","1"
"250029","img/neutralC/CFD-BM-213-134-N.jpg","img/neutralC/CFD-IM-738-191-N.jpg","img/neutralC/CFD-AF-227-207-N.jpg","1","1","1","1","0","1","0.48055249999743","0.446532000089064","0.486975500010885","1","1","1","1","1","1","1","1","1"
"250029","img/neutralC/CFD-AF-227-207-N.jpg","img/neutralC/CFD-BM-213-134-N.jpg","img/neutralC/CFD-WM-202-107-N.jpg","1","1","1","1","1","1","0.486975500010885","0.48055249999743","0.447813700069673","1","1","1","1","1","1","1","1","1"
"250029","img/neutralC/CFD-WM-202-107-N.jpg","img/neutralC/CFD-AF-227-207-N.jpg","img/neutralC/CFD-WF-006-002-N.jpg","1","1","1","1","1","0","0.447813700069673","0.486975500010885","0.488025499973446","1","1","1","1","1","1","1","1","1"
"250029","img/neutralC/CFD-WF-006-002-N.jpg","img/neutralC/CFD-WM-202-107-N.jpg","img/neutralC/CFD-LF-210-220-N.jpg","1","1","1","0","1","1","0.488025499973446","0.447813700069673","0.483263699919917","1","1","1","1","1","1","1","1","1"
"250029","img/neutralC/CFD-LF-210-220-N.jpg","img/neutralC/CFD-WF-006-002-N.jpg","img/neutralC/CFD-IF-673-389-N.jpg","1","1","1","1","0","0","0.483263699919917","0.488025499973446","0.581104599987157","1","1","1","1","1","1","1","1","1"
"250029","img/neutralC/CFD-IF-673-389-N.jpg","img/neutralC/CFD-LF-210-220-N.jpg","img/neutralC/CFD-IM-701-312-N.jpg","1","1","1","0","1","0","0.581104599987157","0.483263699919917","0.443184399977326","1","1","1","1","1","1","1","1","1"
"250029","img/neutralC/CFD-IM-701-312-N.jpg","img/neutralC/CFD-IF-673-389-N.jpg","img/neutralC/CFD-MF-312-002-N.jpg","1","1","1","0","0","1","0.443184399977326","0.581104599987157","0.417195399990305","1","1","1","1","1","1","1","1","1"
"250029","img/neutralC/CFD-MF-312-002-N.jpg","img/neutralC/CFD-IM-701-312-N.jpg","img/neutralC/CFD-BF-045-003-N.jpg","1","1","1","1","0","0","0.417195399990305","0.443184399977326","0.518232299946249","1","1","1","1","1","1","1","1","1"
"250029","img/neutralC/CFD-BF-045-003-N.jpg","img/neutralC/CFD-MF-312-002-N.jpg","img/neutralC/CFD-AM-221-184-N.jpg","1","1","1","0","1","1","0.518232299946249","0.417195399990305","0.53061360004358","1","1","1","1","1","1","1","1","1"
"250029","img/neutralC/CFD-AM-221-184-N.jpg","img/neutralC/CFD-BF-045-003-N.jpg","img/neutralC/CFD-WM-254-152-N.jpg","1","1","1","1","0","1","0.53061360004358","0.518232299946249","0.451892100041732","1","1","1","1","1","1","1","1","1"
"250029","img/neutralC/CFD-WM-254-152-N.jpg","img/neutralC/CFD-AM-221-184-N.jpg","img/neutralC/CFD-LM-238-129-N.jpg","1","1","1","1","1","1","0.451892100041732","0.53061360004358","0.421203199890442","1","1","1","1","1","1","1","1","1"
"250029","img/neutralC/CFD-LM-238-129-N.jpg","img/neutralC/CFD-WM-254-152-N.jpg","img/neutralC/CFD-WF-033-002-N.jpg","1","1","1","1","1","1","0.421203199890442","0.451892100041732","0.789745699963532","1","1","1","1","1","1","1","1","1"
"250029","img/neutralC/CFD-WF-033-002-N.jpg","img/neutralC/CFD-LM-238-129-N.jpg","img/neutralC/CFD-BM-003-003-N.jpg","1","1","1","1","1","0","0.789745699963532","0.421203199890442","0.544621199951507","1","1","1","1","1","1","1","1","1"
"250029","img/neutralC/CFD-BM-003-003-N.jpg","img/neutralC/CFD-WF-033-002-N.jpg","img/neutralC/CFD-BF-222-240-N.jpg","1","1","1","0","1","0","0.544621199951507","0.789745699963532","0.555759399896488","1","1","1","1","1","1","1","1","1"
"250029","img/neutralC/CFD-BF-222-240-N.jpg","img/neutralC/CFD-BM-003-003-N.jpg","img/neutralC/CFD-LF-225-164-N.jpg","1","1","1","0","0","1","0.555759399896488","0.544621199951507","0.397491400013678","1","1","1","1","1","1","1","1","1"
"250029","img/neutralC/CFD-LF-225-164-N.jpg","img/neutralC/CFD-BF-222-240-N.jpg","img/neutralC/CFD-IF-625-225-N.jpg","1","1","1","1","0","0","0.397491400013678","0.555759399896488","0.530829500057735","1","1","1","1","1","1","1","1","1"
"250029","img/neutralC/CFD-IF-625-225-N.jpg","img/neutralC/CFD-LF-225-164-N.jpg","img/neutralC/CFD-AF-239-171-N.jpg","1","1","1","0","1","1","0.530829500057735","0.397491400013678","0.383795800036751","1","1","1","1","1","1","1","1","1"
"250029","img/neutralC/CFD-AF-239-171-N.jpg","img/neutralC/CFD-IF-625-225-N.jpg","img/neutralC/CFD-LF-241-188-N.jpg","1","1","1","1","0","0","0.383795800036751","0.530829500057735","0.518376799998805","1","1","1","1","1","1","1","1","1"
"250029","img/neutralC/CFD-LF-241-188-N.jpg","img/neutralC/CFD-AF-239-171-N.jpg","img/neutralC/CFD-WF-223-133-N.jpg","1","1","1","0","1","0","0.518376799998805","0.383795800036751","0.586344300070778","1","1","1","1","1","1","1","1","1"
"250029","img/neutralC/CFD-WF-223-133-N.jpg","img/neutralC/CFD-LF-241-188-N.jpg","img/neutralC/CFD-AF-210-050-N.jpg","1","1","1","0","0","1","0.586344300070778","0.518376799998805","0.394274499965832","1","1","1","1","1","1","1","1","1"
"250029","img/neutralC/CFD-AF-210-050-N.jpg","img/neutralC/CFD-WF-223-133-N.jpg","img/neutralC/CFD-BM-013-002-N.jpg","1","1","1","1","0","1","0.394274499965832","0.586344300070778","0.460767599986866","1","1","1","1","1","1","1","1","1"
"250029","img/neutralC/CFD-BM-013-002-N.jpg","img/neutralC/CFD-AF-210-050-N.jpg","img/neutralC/CFD-IM-659-359-N.jpg","1","1","1","1","1","0","0.460767599986866","0.394274499965832","0.449694399954751","1","1","1","1","1","1","1","1","1"
"250029","img/neutralC/CFD-IM-659-359-N.jpg","img/neutralC/CFD-BM-013-002-N.jpg","img/neutralC/CFD-WM-228-065-N.jpg","1","1","1","0","1","0","0.449694399954751","0.460767599986866","0.534358500037342","1","1","1","1","1","1","1","1","1"
"250029","img/neutralC/CFD-WM-228-065-N.jpg","img/neutralC/CFD-IM-659-359-N.jpg",NA,"1","1",NA,"0","0",NA,"0.534358500037342","0.449694399954751",NA,"1","1",NA,"1","1",NA,"1","1",NA
"250029","img/neutralC/CFD-WF-241-210-N.jpg",NA,"img/neutralC/CFD-BM-043-071-N.jpg","1",NA,"1","0",NA,"0","0.543373599997722",NA,"0.588948799995705","1",NA,"1","1",NA,"1","1",NA,"1"
"250029","img/neutralC/CFD-BM-043-071-N.jpg","img/neutralC/CFD-WF-241-210-N.jpg","img/neutralC/CFD-WF-243-148-N.jpg","1","1","1","0","0","0","0.588948799995705","0.543373599997722","0.521666999906301","1","1","1","1","1","1","1","1","1"
"250029","img/neutralC/CFD-WF-243-148-N.jpg","img/neutralC/CFD-BM-043-071-N.jpg","img/neutralC/CFD-AM-243-212-N.jpg","1","1","1","0","0","1","0.521666999906301","0.588948799995705","0.459631100064144","1","1","1","1","1","1","1","1","1"
"250029","img/neutralC/CFD-AM-243-212-N.jpg","img/neutralC/CFD-WF-243-148-N.jpg","img/neutralC/CFD-BM-009-002-N.jpg","1","1","1","1","0","1","0.459631100064144","0.521666999906301","0.402157899923623","1","1","1","1","1","1","1","1","1"
"250029","img/neutralC/CFD-BM-009-002-N.jpg","img/neutralC/CFD-AM-243-212-N.jpg","img/neutralC/CFD-BM-020-001-N.jpg","1","1","1","1","1","0","0.402157899923623","0.459631100064144","0.417573799961247","1","1","1","1","1","1","1","1","1"
"250029","img/neutralC/CFD-BM-020-001-N.jpg","img/neutralC/CFD-BM-009-002-N.jpg","img/neutralC/CFD-WF-221-005-N.jpg","1","1","1","0","1","0","0.417573799961247","0.402157899923623","0.613179599982686","1","1","1","1","1","1","1","1","1"
"250029","img/neutralC/CFD-WF-221-005-N.jpg","img/neutralC/CFD-BM-020-001-N.jpg","img/neutralC/CFD-AM-249-163-N.jpg","1","1","1","0","0","1","0.613179599982686","0.417573799961247","0.46400299994275","1","1","1","1","1","1","1","1","1"
"250029","img/neutralC/CFD-AM-249-163-N.jpg","img/neutralC/CFD-WF-221-005-N.jpg","img/neutralC/CFD-WM-023-001-N.jpg","1","1","1","1","0","0","0.46400299994275","0.613179599982686","0.546704899985343","1","1","1","1","1","1","1","1","1"
"250029","img/neutralC/CFD-WM-023-001-N.jpg","img/neutralC/CFD-AM-249-163-N.jpg","img/neutralC/CFD-MM-306-010-N.jpg","1","1","1","0","1","0","0.546704899985343","0.46400299994275","0.599095899960957","1","1","1","1","1","1","1","1","1"
"250029","img/neutralC/CFD-MM-306-010-N.jpg","img/neutralC/CFD-WM-023-001-N.jpg","img/neutralC/CFD-WF-207-014-N.jpg","1","1","1","0","0","1","0.599095899960957","0.546704899985343","0.565496900002472","1","1","1","1","1","1","1","1","1"
"250029","img/neutralC/CFD-WF-207-014-N.jpg","img/neutralC/CFD-MM-306-010-N.jpg","img/neutralC/CFD-LF-238-154-N.jpg","1","1","1","1","0","1","0.565496900002472","0.599095899960957","0.405881999991834","1","1","1","1","1","1","1","1","1"
"250029","img/neutralC/CFD-LF-238-154-N.jpg","img/neutralC/CFD-WF-207-014-N.jpg","img/neutralC/CFD-BF-244-231-N.jpg","1","1","1","1","1","1","0.405881999991834","0.565496900002472","0.395366800017655","1","1","1","1","1","1","1","1","1"
"250029","img/neutralC/CFD-BF-244-231-N.jpg","img/neutralC/CFD-LF-238-154-N.jpg","img/neutralC/CFD-BM-227-191-N.jpg","1","1","1","1","1","1","0.395366800017655","0.405881999991834","0.484155399957672","1","1","1","1","1","1","1","1","1"
"250029","img/neutralC/CFD-BM-227-191-N.jpg","img/neutralC/CFD-BF-244-231-N.jpg","img/neutralC/CFD-IM-697-015-N.jpg","1","1","1","1","1","1","0.484155399957672","0.395366800017655","0.530237599974498","1","1","1","1","1","1","1","1","1"
"250029","img/neutralC/CFD-IM-697-015-N.jpg","img/neutralC/CFD-BM-227-191-N.jpg","img/neutralC/CFD-WM-025-002-N.jpg","1","1","1","1","1","0","0.530237599974498","0.484155399957672","0.642089499975555","1","1","1","1","1","1","1","1","1"
"250029","img/neutralC/CFD-WM-025-002-N.jpg","img/neutralC/CFD-IM-697-015-N.jpg","img/neutralC/CFD-MF-328-020-N.jpg","1","1","1","0","1","0","0.642089499975555","0.530237599974498","0.596300499979407","1","1","1","1","1","1","1","1","1"
"250029","img/neutralC/CFD-MF-328-020-N.jpg","img/neutralC/CFD-WM-025-002-N.jpg","img/neutralC/CFD-IF-676-017-N.jpg","1","1","1","0","0","1","0.596300499979407","0.642089499975555","0.391342899994925","1","1","1","1","1","1","1","1","1"
"250029","img/neutralC/CFD-IF-676-017-N.jpg","img/neutralC/CFD-MF-328-020-N.jpg","img/neutralC/CFD-LF-222-147-N.jpg","1","1","1","1","0","0","0.391342899994925","0.596300499979407","0.550017599947751","1","1","1","1","1","1","1","1","1"
"250029","img/neutralC/CFD-LF-222-147-N.jpg","img/neutralC/CFD-IF-676-017-N.jpg","img/neutralC/CFD-WF-009-001-N.jpg","1","1","1","0","1","1","0.550017599947751","0.391342899994925","0.450650100014172","1","1","1","1","1","1","1","1","1"
"250029","img/neutralC/CFD-WF-009-001-N.jpg","img/neutralC/CFD-LF-222-147-N.jpg","img/neutralC/CFD-IM-689-263-N.jpg","1","1","1","1","0","1","0.450650100014172","0.550017599947751","0.425897800014354","1","1","1","1","1","1","1","1","1"
"250029","img/neutralC/CFD-IM-689-263-N.jpg","img/neutralC/CFD-WF-009-001-N.jpg","img/neutralC/CFD-BM-021-021-N.jpg","1","1","1","1","1","1","0.425897800014354","0.450650100014172","0.478357600048184","1","1","1","1","1","1","1","1","1"
"250029","img/neutralC/CFD-BM-021-021-N.jpg","img/neutralC/CFD-IM-689-263-N.jpg","img/neutralC/CFD-WM-028-003-N.jpg","1","1","1","1","1","1","0.478357600048184","0.425897800014354","0.462039800011553","1","1","1","1","1","1","1","1","1"
"250029","img/neutralC/CFD-WM-028-003-N.jpg","img/neutralC/CFD-BM-021-021-N.jpg","img/neutralC/CFD-BM-030-003-N.jpg","1","1","1","1","1","0","0.462039800011553","0.478357600048184","0.603739800048061","1","1","1","1","1","1","1","1","1"
"250029","img/neutralC/CFD-BM-030-003-N.jpg","img/neutralC/CFD-WM-028-003-N.jpg","img/neutralC/CFD-IM-615-167-N.jpg","1","1","1","0","1","0","0.603739800048061","0.462039800011553","0.535019499948248","1","1","1","1","1","1","1","1","1"
"250029","img/neutralC/CFD-IM-615-167-N.jpg","img/neutralC/CFD-BM-030-003-N.jpg","img/neutralC/CFD-LF-212-066-N.jpg","1","1","1","0","0","1","0.535019499948248","0.603739800048061","0.498903300031088","1","1","1","1","1","1","1","1","1"
"250029","img/neutralC/CFD-LF-212-066-N.jpg","img/neutralC/CFD-IM-615-167-N.jpg","img/neutralC/CFD-AF-237-223-N.jpg","1","1","1","1","0","0","0.498903300031088","0.535019499948248","0.466413700021803","1","1","1","1","1","1","1","1","1"
"250029","img/neutralC/CFD-AF-237-223-N.jpg","img/neutralC/CFD-LF-212-066-N.jpg","img/neutralC/CFD-LM-240-013-N.jpg","1","1","1","0","1","1","0.466413700021803","0.498903300031088","0.508810300030746","1","1","1","1","1","1","1","1","1"
"250029","img/neutralC/CFD-LM-240-013-N.jpg","img/neutralC/CFD-AF-237-223-N.jpg","img/neutralC/CFD-BF-012-001-N.jpg","1","1","1","1","0","0","0.508810300030746","0.466413700021803","0.724771599983796","1","1","1","1","1","1","1","1","1"
"250029","img/neutralC/CFD-BF-012-001-N.jpg","img/neutralC/CFD-LM-240-013-N.jpg","img/neutralC/CFD-IM-606-008-N.jpg","1","1","1","0","1","0","0.724771599983796","0.508810300030746","0.549966200022027","1","1","1","1","1","1","1","1","1"
"250029","img/neutralC/CFD-IM-606-008-N.jpg","img/neutralC/CFD-BF-012-001-N.jpg","img/neutralC/CFD-AM-205-153-N.jpg","1","1","1","0","0","1","0.549966200022027","0.724771599983796","0.515599499922246","1","1","1","1","1","1","1","1","1"
"250029","img/neutralC/CFD-AM-205-153-N.jpg","img/neutralC/CFD-IM-606-008-N.jpg","img/neutralC/CFD-AM-219-101-N.jpg","1","1","1","1","0","0","0.515599499922246","0.549966200022027","0.433183600078337","1","1","1","1","1","1","1","1","1"
"250029","img/neutralC/CFD-AM-219-101-N.jpg","img/neutralC/CFD-AM-205-153-N.jpg",NA,"1","1",NA,"0","1",NA,"0.433183600078337","0.515599499922246",NA,"1","1",NA,"1","1",NA,"1","1",NA
"250029","img/neutralC/CFD-WF-222-092-N.jpg",NA,"img/neutralC/CFD-LF-255-088-N.jpg","1",NA,"1","1",NA,"0","0.542162199970335",NA,"0.585065899998881","1",NA,"1","1",NA,"1","1",NA,"1"
"250029","img/neutralC/CFD-LF-255-088-N.jpg","img/neutralC/CFD-WF-222-092-N.jpg","img/neutralC/CFD-MF-303-013-N.jpg","1","1","1","0","1","0","0.585065899998881","0.542162199970335","0.418861300102435","1","1","1","1","1","1","1","1","1"
"250029","img/neutralC/CFD-MF-303-013-N.jpg","img/neutralC/CFD-LF-255-088-N.jpg","img/neutralC/CFD-AF-233-190-N.jpg","1","1","1","0","0","0","0.418861300102435","0.585065899998881","0.498914600000717","1","1","1","1","1","1","1","1","1"
"250029","img/neutralC/CFD-AF-233-190-N.jpg","img/neutralC/CFD-MF-303-013-N.jpg","img/neutralC/CFD-MF-357-002-N.jpg","1","1","1","0","0","0","0.498914600000717","0.418861300102435","0.507161399931647","1","1","1","1","1","1","1","1","1"
"250029","img/neutralC/CFD-MF-357-002-N.jpg","img/neutralC/CFD-AF-233-190-N.jpg","img/neutralC/CFD-MF-305-014-N.jpg","1","1","1","0","0","1","0.507161399931647","0.498914600000717","0.453686199965887","1","1","1","1","1","1","1","1","1"
"250029","img/neutralC/CFD-MF-305-014-N.jpg","img/neutralC/CFD-MF-357-002-N.jpg","img/neutralC/CFD-MM-324-069-N.jpg","1","1","1","1","0","1","0.453686199965887","0.507161399931647","0.428877099999227","1","1","1","1","1","1","1","1","1"
"250029","img/neutralC/CFD-MM-324-069-N.jpg","img/neutralC/CFD-MF-305-014-N.jpg","img/neutralC/CFD-WM-015-002-N.jpg","1","1","1","1","1","0","0.428877099999227","0.453686199965887","0.479469100013375","1","1","1","1","1","1","1","1","1"
"250029","img/neutralC/CFD-WM-015-002-N.jpg","img/neutralC/CFD-MM-324-069-N.jpg","img/neutralC/CFD-LM-225-130-N.jpg","1","1","1","0","1","0","0.479469100013375","0.428877099999227","0.415199999930337","1","1","1","1","1","1","1","1","1"
"250029","img/neutralC/CFD-LM-225-130-N.jpg","img/neutralC/CFD-WM-015-002-N.jpg","img/neutralC/CFD-WM-218-074-N.jpg","1","1","1","0","0","1","0.415199999930337","0.479469100013375","0.396569999982603","1","1","1","1","1","1","1","1","1"
"250029","img/neutralC/CFD-WM-218-074-N.jpg","img/neutralC/CFD-LM-225-130-N.jpg","img/neutralC/CFD-AF-253-130-N.jpg","1","1","1","1","0","1","0.396569999982603","0.415199999930337","0.402854600106366","1","1","1","1","1","1","1","1","1"
"250029","img/neutralC/CFD-AF-253-130-N.jpg","img/neutralC/CFD-WM-218-074-N.jpg","img/neutralC/CFD-LF-206-078-N.jpg","1","1","1","1","1","1","0.402854600106366","0.396569999982603","0.38405730004888","1","1","1","1","1","1","1","1","1"
"250029","img/neutralC/CFD-LF-206-078-N.jpg","img/neutralC/CFD-AF-253-130-N.jpg","img/neutralC/CFD-IM-664-651-N.jpg","1","1","1","1","1","1","0.38405730004888","0.402854600106366","0.382734200102277","1","1","1","1","1","1","1","1","1"
"250029","img/neutralC/CFD-IM-664-651-N.jpg","img/neutralC/CFD-LF-206-078-N.jpg","img/neutralC/CFD-IM-667-369-N.jpg","1","1","1","1","1","0","0.382734200102277","0.38405730004888","0.511477199965157","1","1","1","1","1","1","1","1","1"
"250029","img/neutralC/CFD-IM-667-369-N.jpg","img/neutralC/CFD-IM-664-651-N.jpg","img/neutralC/CFD-WF-007-001-N.jpg","1","1","1","0","1","1","0.511477199965157","0.382734200102277","0.536275500082411","1","1","1","1","1","1","1","1","1"
"250029","img/neutralC/CFD-WF-007-001-N.jpg","img/neutralC/CFD-IM-667-369-N.jpg","img/neutralC/CFD-IM-680-369-N.jpg","1","1","1","1","0","1","0.536275500082411","0.511477199965157","0.423686799942516","1","1","1","1","1","1","1","1","1"
"250029","img/neutralC/CFD-IM-680-369-N.jpg","img/neutralC/CFD-WF-007-001-N.jpg","img/neutralC/CFD-BM-001-014-N.jpg","1","1","1","1","1","0","0.423686799942516","0.536275500082411","0.431566600105725","1","1","1","1","1","1","1","1","1"
"250029","img/neutralC/CFD-BM-001-014-N.jpg","img/neutralC/CFD-IM-680-369-N.jpg","img/neutralC/CFD-IF-660-464-N.jpg","1","1","1","0","1","0","0.431566600105725","0.423686799942516","0.514631400001235","1","1","1","1","1","1","1","1","1"
"250029","img/neutralC/CFD-IF-660-464-N.jpg","img/neutralC/CFD-BM-001-014-N.jpg","img/neutralC/CFD-BF-014-002-N.jpg","1","1","1","0","0","1","0.514631400001235","0.431566600105725","0.47288340004161","1","1","1","1","1","1","1","1","1"
"250029","img/neutralC/CFD-BF-014-002-N.jpg","img/neutralC/CFD-IF-660-464-N.jpg","img/neutralC/CFD-WF-244-163-N.jpg","1","1","1","1","0","1","0.47288340004161","0.514631400001235","0.448543400038034","1","1","1","1","1","1","1","1","1"
"250029","img/neutralC/CFD-WF-244-163-N.jpg","img/neutralC/CFD-BF-014-002-N.jpg","img/neutralC/CFD-WF-030-002-N.jpg","1","1","1","1","1","0","0.448543400038034","0.47288340004161","0.516581699950621","1","1","1","1","1","1","1","1","1"
"250029","img/neutralC/CFD-WF-030-002-N.jpg","img/neutralC/CFD-WF-244-163-N.jpg","img/neutralC/CFD-LM-200-045-N.jpg","1","1","1","0","1","1","0.516581699950621","0.448543400038034","0.403416899964213","1","1","1","1","1","1","1","1","1"
"250029","img/neutralC/CFD-LM-200-045-N.jpg","img/neutralC/CFD-WF-030-002-N.jpg","img/neutralC/CFD-BM-217-082-N.jpg","1","1","1","1","0","0","0.403416899964213","0.516581699950621","0.478574799955823","1","1","1","1","1","1","1","1","1"
"250029","img/neutralC/CFD-BM-217-082-N.jpg","img/neutralC/CFD-LM-200-045-N.jpg","img/neutralC/CFD-BM-250-170-N.jpg","1","1","1","0","1","1","0.478574799955823","0.403416899964213","0.460034799994901","1","1","1","1","1","1","1","1","1"
"250029","img/neutralC/CFD-BM-250-170-N.jpg","img/neutralC/CFD-BM-217-082-N.jpg","img/neutralC/CFD-AM-220-134-N.jpg","1","1","1","1","0","0","0.460034799994901","0.478574799955823","0.466779999900609","1","1","1","1","1","1","1","1","1"
"250029","img/neutralC/CFD-AM-220-134-N.jpg","img/neutralC/CFD-BM-250-170-N.jpg","img/neutralC/CFD-MF-316-001-N.jpg","1","1","1","0","1","0","0.466779999900609","0.460034799994901","0.495872300001793","1","1","1","1","1","1","1","1","1"
"250029","img/neutralC/CFD-MF-316-001-N.jpg","img/neutralC/CFD-AM-220-134-N.jpg","img/neutralC/CFD-IF-626-375-N.jpg","1","1","1","0","0","0","0.495872300001793","0.466779999900609","0.483595400000922","1","1","1","1","1","1","1","1","1"
"250029","img/neutralC/CFD-IF-626-375-N.jpg","img/neutralC/CFD-MF-316-001-N.jpg","img/neutralC/CFD-IM-706-002-N.jpg","1","1","1","0","0","0","0.483595400000922","0.495872300001793","0.41832960001193","1","1","1","1","1","1","1","1","1"
"250029","img/neutralC/CFD-IM-706-002-N.jpg","img/neutralC/CFD-IF-626-375-N.jpg","img/neutralC/CFD-WM-209-038-N.jpg","1","1","1","0","0","0","0.41832960001193","0.483595400000922","0.489104700041935","1","1","1","1","1","1","1","1","1"
"250029","img/neutralC/CFD-WM-209-038-N.jpg","img/neutralC/CFD-IM-706-002-N.jpg","img/neutralC/CFD-MF-343-001-N.jpg","1","1","1","0","0","1","0.489104700041935","0.41832960001193","0.443538399995305","1","1","1","1","1","1","1","1","1"
"250029","img/neutralC/CFD-MF-343-001-N.jpg","img/neutralC/CFD-WM-209-038-N.jpg","img/neutralC/CFD-IM-702-101-N.jpg","1","1","1","1","0","1","0.443538399995305","0.489104700041935","0.533350300043821","1","1","1","1","1","1","1","1","1"
"250029","img/neutralC/CFD-IM-702-101-N.jpg","img/neutralC/CFD-MF-343-001-N.jpg","img/neutralC/CFD-BF-237-172-N.jpg","1","1","1","1","1","1","0.533350300043821","0.443538399995305","0.482017799979076","1","1","1","1","1","1","1","1","1"
"250029","img/neutralC/CFD-BF-237-172-N.jpg","img/neutralC/CFD-IM-702-101-N.jpg",NA,"1","1",NA,"1","1",NA,"0.482017799979076","0.533350300043821",NA,"1","1",NA,"1","1",NA,"1","1",NA
"250029","img/neutralC/CFD-BF-018-039-N.jpg",NA,"img/neutralC/CFD-MF-342-022-N.jpg","1",NA,"1","1",NA,"1","0.490905100014061",NA,"0.452535200049169","1",NA,"1","1",NA,"1","1",NA,"1"
"250029","img/neutralC/CFD-MF-342-022-N.jpg","img/neutralC/CFD-BF-018-039-N.jpg","img/neutralC/CFD-MF-321-003-N.jpg","1","1","0","1","1","0","0.452535200049169","0.490905100014061","0.422944899997674","1","1","1","1","1","1","1","1","1"
"250029","img/neutralC/CFD-MF-321-003-N.jpg","img/neutralC/CFD-MF-342-022-N.jpg","img/neutralC/CFD-AF-232-078-N.jpg","0","1","1","0","1","1","0.422944899997674","0.452535200049169","0.447733599925414","1","1","1","1","1","1","1","1","1"
"250029","img/neutralC/CFD-AF-232-078-N.jpg","img/neutralC/CFD-MF-321-003-N.jpg","img/neutralC/CFD-BM-204-003-N.jpg","1","0","1","1","0","0","0.447733599925414","0.422944899997674","0.419482300058007","1","1","1","1","1","1","1","1","1"
"250029","img/neutralC/CFD-BM-204-003-N.jpg","img/neutralC/CFD-AF-232-078-N.jpg","img/neutralC/CFD-IM-700-009-N.jpg","1","1","1","0","1","1","0.419482300058007","0.447733599925414","0.538615699973889","1","1","1","1","1","1","1","1","1"
"250029","img/neutralC/CFD-IM-700-009-N.jpg","img/neutralC/CFD-BM-204-003-N.jpg","img/neutralC/CFD-BM-023-029-N.jpg","1","1","1","1","0","1","0.538615699973889","0.419482300058007","0.435754899983294","1","1","1","1","1","1","1","1","1"
"250029","img/neutralC/CFD-BM-023-029-N.jpg","img/neutralC/CFD-IM-700-009-N.jpg","img/neutralC/CFD-MF-318-022-N.jpg","1","1","1","1","1","1","0.435754899983294","0.538615699973889","0.427000799914822","1","1","1","1","1","1","1","1","1"
"250029","img/neutralC/CFD-MF-318-022-N.jpg","img/neutralC/CFD-BM-023-029-N.jpg","img/neutralC/CFD-WF-245-084-N.jpg","1","1","1","1","1","1","0.427000799914822","0.435754899983294","0.406149900052696","1","1","1","1","1","1","1","1","1"
"250029","img/neutralC/CFD-WF-245-084-N.jpg","img/neutralC/CFD-MF-318-022-N.jpg","img/neutralC/CFD-BM-200-046-N.jpg","1","1","1","1","1","0","0.406149900052696","0.427000799914822","0.576595699996687","1","1","1","1","1","1","1","1","1"
"250029","img/neutralC/CFD-BM-200-046-N.jpg","img/neutralC/CFD-WF-245-084-N.jpg","img/neutralC/CFD-AM-244-222-N.jpg","1","1","1","0","1","0","0.576595699996687","0.406149900052696","0.502406400046311","1","1","1","1","1","1","1","1","1"
"250029","img/neutralC/CFD-AM-244-222-N.jpg","img/neutralC/CFD-BM-200-046-N.jpg","img/neutralC/CFD-WM-201-063-N.jpg","1","1","1","0","0","1","0.502406400046311","0.576595699996687","0.401006300002337","1","1","1","1","1","1","1","1","1"
"250029","img/neutralC/CFD-WM-201-063-N.jpg","img/neutralC/CFD-AM-244-222-N.jpg","img/neutralC/CFD-IM-719-221-N.jpg","1","1","1","1","0","0","0.401006300002337","0.502406400046311","0.478342200047337","1","1","1","1","1","1","1","1","1"
"250029","img/neutralC/CFD-IM-719-221-N.jpg","img/neutralC/CFD-WM-201-063-N.jpg","img/neutralC/CFD-IF-629-234-N.jpg","1","1","1","0","1","0","0.478342200047337","0.401006300002337","0.493286200100556","1","1","1","1","1","1","1","1","1"
"250029","img/neutralC/CFD-IF-629-234-N.jpg","img/neutralC/CFD-IM-719-221-N.jpg","img/neutralC/CFD-WM-221-091-N.jpg","1","1","1","0","0","0","0.493286200100556","0.478342200047337","0.499000799958594","1","1","1","1","1","1","1","1","1"
"250029","img/neutralC/CFD-WM-221-091-N.jpg","img/neutralC/CFD-IF-629-234-N.jpg","img/neutralC/CFD-WM-013-001-N.jpg","1","1","1","0","0","1","0.499000799958594","0.493286200100556","0.457243499928154","1","1","1","1","1","1","1","1","1"
"250029","img/neutralC/CFD-WM-013-001-N.jpg","img/neutralC/CFD-WM-221-091-N.jpg","img/neutralC/CFD-LM-253-075-N.jpg","1","1","1","1","0","0","0.457243499928154","0.499000799958594","0.482606399920769","1","1","1","1","1","1","1","1","1"
"250029","img/neutralC/CFD-LM-253-075-N.jpg","img/neutralC/CFD-WM-013-001-N.jpg","img/neutralC/CFD-WM-237-052-N.jpg","1","1","1","0","1","1","0.482606399920769","0.457243499928154","0.410758799989708","1","1","1","1","1","1","1","1","1"
"250029","img/neutralC/CFD-WM-237-052-N.jpg","img/neutralC/CFD-LM-253-075-N.jpg","img/neutralC/CFD-MM-321-021-N.jpg","1","1","1","1","0","0","0.410758799989708","0.482606399920769","0.517326000030152","1","1","1","1","1","1","1","1","1"
"250029","img/neutralC/CFD-MM-321-021-N.jpg","img/neutralC/CFD-WM-237-052-N.jpg","img/neutralC/CFD-WM-255-219-N.jpg","1","1","1","0","1","0","0.517326000030152","0.410758799989708","0.703748600091785","1","1","1","1","1","1","1","1","1"
"250029","img/neutralC/CFD-WM-255-219-N.jpg","img/neutralC/CFD-MM-321-021-N.jpg","img/neutralC/CFD-LF-215-157-N.jpg","1","1","1","0","0","0","0.703748600091785","0.517326000030152","0.474095199955627","1","1","1","1","1","1","1","1","1"
"250029","img/neutralC/CFD-LF-215-157-N.jpg","img/neutralC/CFD-WM-255-219-N.jpg","img/neutralC/CFD-LF-211-003-N.jpg","1","1","1","0","0","0","0.474095199955627","0.703748600091785","0.454183500027284","1","1","1","1","1","1","1","1","1"
"250029","img/neutralC/CFD-LF-211-003-N.jpg","img/neutralC/CFD-LF-215-157-N.jpg","img/neutralC/CFD-BF-218-207-N.jpg","1","1","1","0","0","1","0.454183500027284","0.474095199955627","0.326294100028463","1","1","1","1","1","1","1","1","1"
"250029","img/neutralC/CFD-BF-218-207-N.jpg","img/neutralC/CFD-LF-211-003-N.jpg","img/neutralC/CFD-WF-023-003-N.jpg","1","1","1","1","0","1","0.326294100028463","0.454183500027284","0.382203800021671","1","1","1","1","1","1","1","1","1"
"250029","img/neutralC/CFD-WF-023-003-N.jpg","img/neutralC/CFD-BF-218-207-N.jpg","img/neutralC/CFD-AF-221-147-N.jpg","1","1","1","1","1","0","0.382203800021671","0.326294100028463","0.584769600071013","1","1","1","1","1","1","1","1","1"
"250029","img/neutralC/CFD-AF-221-147-N.jpg","img/neutralC/CFD-WF-023-003-N.jpg","img/neutralC/CFD-WF-238-023-N.jpg","1","1","1","0","1","0","0.584769600071013","0.382203800021671","0.495747499982826","1","1","1","1","1","1","1","1","1"
"250029","img/neutralC/CFD-WF-238-023-N.jpg","img/neutralC/CFD-AF-221-147-N.jpg","img/neutralC/CFD-WF-027-003-N.jpg","1","1","1","0","0","1","0.495747499982826","0.584769600071013","0.44446400005836","1","1","1","1","1","1","1","1","1"
"250029","img/neutralC/CFD-WF-027-003-N.jpg","img/neutralC/CFD-WF-238-023-N.jpg","img/neutralC/CFD-BF-254-201-N.jpg","1","1","1","1","0","0","0.44446400005836","0.495747499982826","0.54855269996915","1","1","1","1","1","1","1","1","1"
"250029","img/neutralC/CFD-BF-254-201-N.jpg","img/neutralC/CFD-WF-027-003-N.jpg","img/neutralC/CFD-WM-009-002-N.jpg","1","1","1","0","1","0","0.54855269996915","0.44446400005836","0.493562999996357","1","1","1","1","1","1","1","1","1"
"250029","img/neutralC/CFD-WM-009-002-N.jpg","img/neutralC/CFD-BF-254-201-N.jpg","img/neutralC/CFD-WF-226-095-N.jpg","1","1","1","0","0","1","0.493562999996357","0.54855269996915","0.412763700005598","1","1","1","1","1","1","1","1","1"
"250029","img/neutralC/CFD-WF-226-095-N.jpg","img/neutralC/CFD-WM-009-002-N.jpg","img/neutralC/CFD-IM-627-178-N.jpg","1","1","1","1","0","1","0.412763700005598","0.493562999996357","0.33351180003956","1","1","1","1","1","1","1","1","1"
"250029","img/neutralC/CFD-IM-627-178-N.jpg","img/neutralC/CFD-WF-226-095-N.jpg","img/neutralC/CFD-WF-018-017-N.jpg","1","1","1","1","1","1","0.33351180003956","0.412763700005598","0.429007100057788","1","1","1","1","1","1","1","1","1"
"250029","img/neutralC/CFD-WF-018-017-N.jpg","img/neutralC/CFD-IM-627-178-N.jpg",NA,"1","1",NA,"1","1",NA,"0.429007100057788","0.33351180003956",NA,"1","1",NA,"1","1",NA,"1","1",NA
"250029","img/neutralC/CFD-IM-638-250-1-N.jpg",NA,"img/neutralC/CFD-LF-247-051-N.jpg","1",NA,"1","1",NA,"1","0.46156319999136",NA,"0.403068599989638","1",NA,"1","1",NA,"1","1",NA,"1"
"250029","img/neutralC/CFD-LF-247-051-N.jpg","img/neutralC/CFD-IM-638-250-1-N.jpg","img/neutralC/CFD-BM-018-001-N.jpg","1","1","1","1","1","1","0.403068599989638","0.46156319999136","0.445217999978922","1","1","1","1","1","1","1","1","1"
"250029","img/neutralC/CFD-BM-018-001-N.jpg","img/neutralC/CFD-LF-247-051-N.jpg","img/neutralC/CFD-WM-242-011-N.jpg","1","1","1","1","1","0","0.445217999978922","0.403068599989638","0.422865899978206","1","1","1","1","1","1","1","1","1"
"250029","img/neutralC/CFD-WM-242-011-N.jpg","img/neutralC/CFD-BM-018-001-N.jpg","img/neutralC/CFD-AF-206-079-N.jpg","1","1","1","0","1","1","0.422865899978206","0.445217999978922","0.406562900054268","1","1","1","1","1","1","1","1","1"
"250029","img/neutralC/CFD-AF-206-079-N.jpg","img/neutralC/CFD-WM-242-011-N.jpg","img/neutralC/CFD-IM-617-174-N.jpg","1","1","1","1","0","0","0.406562900054268","0.422865899978206","0.506443400052376","1","1","1","1","1","1","1","1","1"
"250029","img/neutralC/CFD-IM-617-174-N.jpg","img/neutralC/CFD-AF-206-079-N.jpg","img/neutralC/CFD-WM-227-099-N.jpg","1","1","1","0","1","1","0.506443400052376","0.406562900054268","0.533194899908267","1","1","1","1","1","1","1","1","1"
"250029","img/neutralC/CFD-WM-227-099-N.jpg","img/neutralC/CFD-IM-617-174-N.jpg","img/neutralC/CFD-LM-233-171-N.jpg","1","1","1","1","0","0","0.533194899908267","0.506443400052376","0.372674599988386","1","1","1","1","1","1","1","1","1"
"250029","img/neutralC/CFD-LM-233-171-N.jpg","img/neutralC/CFD-WM-227-099-N.jpg","img/neutralC/CFD-BM-212-117-N.jpg","1","1","1","0","1","0","0.372674599988386","0.533194899908267","0.327716299914755","1","1","1","1","1","1","1","1","1"
"250029","img/neutralC/CFD-BM-212-117-N.jpg","img/neutralC/CFD-LM-233-171-N.jpg","img/neutralC/CFD-AF-241-141-N.jpg","1","1","1","0","0","1","0.327716299914755","0.372674599988386","0.50936649995856","1","1","1","1","1","1","1","1","1"
"250029","img/neutralC/CFD-AF-241-141-N.jpg","img/neutralC/CFD-BM-212-117-N.jpg","img/neutralC/CFD-LF-250-169-N.jpg","1","1","1","1","0","1","0.50936649995856","0.327716299914755","0.340405600029044","1","1","1","1","1","1","1","1","1"
"250029","img/neutralC/CFD-LF-250-169-N.jpg","img/neutralC/CFD-AF-241-141-N.jpg","img/neutralC/CFD-LM-226-175-N.jpg","1","1","1","1","1","0","0.340405600029044","0.50936649995856","0.453885499970056","1","1","1","1","1","1","1","1","1"
"250029","img/neutralC/CFD-LM-226-175-N.jpg","img/neutralC/CFD-LF-250-169-N.jpg","img/neutralC/CFD-IF-620-218-N.jpg","1","1","1","0","1","0","0.453885499970056","0.340405600029044","0.536718799965456","1","1","1","1","1","1","1","1","1"
"250029","img/neutralC/CFD-IF-620-218-N.jpg","img/neutralC/CFD-LM-226-175-N.jpg","img/neutralC/CFD-LF-242-121-N.jpg","1","1","1","0","0","0","0.536718799965456","0.453885499970056","0.50844850006979","1","1","1","1","1","1","1","1","1"
"250029","img/neutralC/CFD-LF-242-121-N.jpg","img/neutralC/CFD-IF-620-218-N.jpg","img/neutralC/CFD-BF-033-028-N.jpg","1","1","1","0","0","0","0.50844850006979","0.536718799965456","0.45495539996773","1","1","1","1","1","1","1","1","1"
"250029","img/neutralC/CFD-BF-033-028-N.jpg","img/neutralC/CFD-LF-242-121-N.jpg","img/neutralC/CFD-AF-202-122-N.jpg","1","1","1","0","0","1","0.45495539996773","0.50844850006979","0.444189099944197","1","1","1","1","1","1","1","1","1"
"250029","img/neutralC/CFD-AF-202-122-N.jpg","img/neutralC/CFD-BF-033-028-N.jpg","img/neutralC/CFD-WF-209-052-N.jpg","1","1","1","1","0","1","0.444189099944197","0.45495539996773","0.450887899962254","1","1","1","1","1","1","1","1","1"
"250029","img/neutralC/CFD-WF-209-052-N.jpg","img/neutralC/CFD-AF-202-122-N.jpg","img/neutralC/CFD-WM-017-002-N.jpg","1","1","1","1","1","0","0.450887899962254","0.444189099944197","0.467295699985698","1","1","1","1","1","1","1","1","1"
"250029","img/neutralC/CFD-WM-017-002-N.jpg","img/neutralC/CFD-WF-209-052-N.jpg","img/neutralC/CFD-WM-258-125-N.jpg","1","1","1","0","1","0","0.467295699985698","0.450887899962254","0.515804500086233","1","1","1","1","1","1","1","1","1"
"250029","img/neutralC/CFD-WM-258-125-N.jpg","img/neutralC/CFD-WM-017-002-N.jpg","img/neutralC/CFD-IM-657-308-N.jpg","1","1","1","0","0","0","0.515804500086233","0.467295699985698","0.411253500031307","1","1","1","1","1","1","1","1","1"
"250029","img/neutralC/CFD-IM-657-308-N.jpg","img/neutralC/CFD-WM-258-125-N.jpg","img/neutralC/CFD-MF-313-002-N.jpg","1","1","1","0","0","0","0.411253500031307","0.515804500086233","0.566448699915782","1","1","1","1","1","1","1","1","1"
"250029","img/neutralC/CFD-MF-313-002-N.jpg","img/neutralC/CFD-IM-657-308-N.jpg","img/neutralC/CFD-LF-245-166-N.jpg","1","1","1","0","0","1","0.566448699915782","0.411253500031307","0.334888500045054","1","1","1","1","1","1","1","1","1"
"250029","img/neutralC/CFD-LF-245-166-N.jpg","img/neutralC/CFD-MF-313-002-N.jpg","img/neutralC/CFD-LM-219-295-N.jpg","1","1","1","1","0","1","0.334888500045054","0.566448699915782","0.377282699919306","1","1","1","1","1","1","1","1","1"
"250029","img/neutralC/CFD-LM-219-295-N.jpg","img/neutralC/CFD-LF-245-166-N.jpg","img/neutralC/CFD-BM-005-003-N.jpg","1","1","1","1","1","1","0.377282699919306","0.334888500045054","0.433116799918935","1","1","1","1","1","1","1","1","1"
"250029","img/neutralC/CFD-BM-005-003-N.jpg","img/neutralC/CFD-LM-219-295-N.jpg","img/neutralC/CFD-IM-653-008-N.jpg","1","1","1","1","1","0","0.433116799918935","0.377282699919306","0.324512899969704","1","1","1","1","1","1","1","1","1"
"250029","img/neutralC/CFD-IM-653-008-N.jpg","img/neutralC/CFD-BM-005-003-N.jpg","img/neutralC/CFD-BM-026-002-N.jpg","1","1","1","0","1","0","0.324512899969704","0.433116799918935","0.483658300014213","1","1","1","1","1","1","1","1","1"
"250029","img/neutralC/CFD-BM-026-002-N.jpg","img/neutralC/CFD-IM-653-008-N.jpg","img/neutralC/CFD-IM-686-097-N.jpg","1","1","0","0","0","0","0.483658300014213","0.324512899969704","0.448370400001295","1","1","1","1","1","1","1","1","1"
"250029","img/neutralC/CFD-IM-686-097-N.jpg","img/neutralC/CFD-BM-026-002-N.jpg","img/neutralC/CFD-BM-231-155-N.jpg","0","1","1","0","0","1","0.448370400001295","0.483658300014213","0.626106999930926","1","1","1","1","1","1","1","1","1"
"250029","img/neutralC/CFD-BM-231-155-N.jpg","img/neutralC/CFD-IM-686-097-N.jpg","img/neutralC/CFD-IF-665-015-N.jpg","1","0","1","1","0","0","0.626106999930926","0.448370400001295","0.575671799946576","1","1","1","1","1","1","1","1","1"
"250029","img/neutralC/CFD-IF-665-015-N.jpg","img/neutralC/CFD-BM-231-155-N.jpg","img/neutralC/CFD-BF-238-190-N.jpg","1","1","1","0","1","1","0.575671799946576","0.626106999930926","0.492081900010817","1","1","1","1","1","1","1","1","1"
"250029","img/neutralC/CFD-BF-238-190-N.jpg","img/neutralC/CFD-IF-665-015-N.jpg","img/neutralC/CFD-BF-010-001-N.jpg","1","1","1","1","0","1","0.492081900010817","0.575671799946576","0.381658699945547","1","1","1","1","1","1","1","1","1"
"250029","img/neutralC/CFD-BF-010-001-N.jpg","img/neutralC/CFD-BF-238-190-N.jpg","img/neutralC/CFD-IM-727-195-N.jpg","1","1","1","1","1","1","0.381658699945547","0.492081900010817","0.406937099993229","1","1","1","1","1","1","1","1","1"
"250029","img/neutralC/CFD-IM-727-195-N.jpg","img/neutralC/CFD-BF-010-001-N.jpg",NA,"1","1",NA,"1","1",NA,"0.406937099993229","0.381658699945547",NA,"1","1",NA,"1","1",NA,"1","1",NA
"250029","img/neutralC/CFD-WF-228-196-N.jpg",NA,"img/neutralC/CFD-LM-243-075-N.jpg","1",NA,"1","0",NA,"0","0.498845700058155",NA,"0.434737700037658","1",NA,"1","1",NA,"1","1",NA,"1"
"250029","img/neutralC/CFD-LM-243-075-N.jpg","img/neutralC/CFD-WF-228-196-N.jpg","img/neutralC/CFD-BM-205-001-N.jpg","1","1","1","0","0","0","0.434737700037658","0.498845700058155","0.492064699996263","1","1","1","1","1","1","1","1","1"
"250029","img/neutralC/CFD-BM-205-001-N.jpg","img/neutralC/CFD-LM-243-075-N.jpg","img/neutralC/CFD-LM-216-082-N.jpg","1","1","1","0","0","0","0.492064699996263","0.434737700037658","0.480701199965551","1","1","1","1","1","1","1","1","1"
"250029","img/neutralC/CFD-LM-216-082-N.jpg","img/neutralC/CFD-BM-205-001-N.jpg","img/neutralC/CFD-BF-041-001-N.jpg","1","1","1","0","0","1","0.480701199965551","0.492064699996263","0.391988400020637","1","1","1","1","1","1","1","1","1"
"250029","img/neutralC/CFD-BF-041-001-N.jpg","img/neutralC/CFD-LM-216-082-N.jpg","img/neutralC/CFD-MF-335-002-N.jpg","1","1","1","1","0","0","0.391988400020637","0.480701199965551","0.489902600063942","1","1","1","1","1","1","1","1","1"
"250029","img/neutralC/CFD-MF-335-002-N.jpg","img/neutralC/CFD-BF-041-001-N.jpg","img/neutralC/CFD-WM-012-001-N.jpg","1","1","1","0","1","1","0.489902600063942","0.391988400020637","0.361341299954802","1","1","1","1","1","1","1","1","1"
"250029","img/neutralC/CFD-WM-012-001-N.jpg","img/neutralC/CFD-MF-335-002-N.jpg","img/neutralC/CFD-BF-202-109-N.jpg","1","1","1","1","0","1","0.361341299954802","0.489902600063942","0.373448700061999","1","1","1","1","1","1","1","1","1"
"250029","img/neutralC/CFD-BF-202-109-N.jpg","img/neutralC/CFD-WM-012-001-N.jpg","img/neutralC/CFD-WM-212-097-N.jpg","1","1","1","1","1","0","0.373448700061999","0.361341299954802","0.450112399994396","1","1","1","1","1","1","1","1","2"
"250029","img/neutralC/CFD-WM-212-097-N.jpg","img/neutralC/CFD-BF-202-109-N.jpg","img/neutralC/CFD-LM-214-165-N.jpg","1","1","1","0","1","1","0.450112399994396","0.373448700061999","0.54595669999253","1","1","1","1","1","1","2","1","1"
"250029","img/neutralC/CFD-LM-214-165-N.jpg","img/neutralC/CFD-WM-212-097-N.jpg","img/neutralC/CFD-WM-006-002-N.jpg","1","1","1","1","0","0","0.54595669999253","0.450112399994396","0.444841100019403","1","1","1","1","1","1","1","2","1"
"250029","img/neutralC/CFD-WM-006-002-N.jpg","img/neutralC/CFD-LM-214-165-N.jpg","img/neutralC/CFD-BF-228-212-N.jpg","1","1","1","0","1","0","0.444841100019403","0.54595669999253","0.444636399974115","1","1","1","1","1","1","1","1","1"
"250029","img/neutralC/CFD-BF-228-212-N.jpg","img/neutralC/CFD-WM-006-002-N.jpg","img/neutralC/CFD-LM-201-057-N.jpg","1","1","1","0","0","1","0.444636399974115","0.444841100019403","0.448368399986066","1","1","1","1","1","1","1","1","1"
"250029","img/neutralC/CFD-LM-201-057-N.jpg","img/neutralC/CFD-BF-228-212-N.jpg","img/neutralC/CFD-BF-025-002-N.jpg","1","1","1","1","0","0","0.448368399986066","0.444636399974115","0.551353299990296","1","1","1","1","1","1","1","1","1"
"250029","img/neutralC/CFD-BF-025-002-N.jpg","img/neutralC/CFD-LM-201-057-N.jpg","img/neutralC/CFD-WF-240-083-N.jpg","1","1","1","0","1","0","0.551353299990296","0.448368399986066","0.418681700015441","1","1","1","1","1","1","1","1","1"
"250029","img/neutralC/CFD-WF-240-083-N.jpg","img/neutralC/CFD-BF-025-002-N.jpg","img/neutralC/CFD-IM-646-023-N.jpg","1","1","1","0","0","1","0.418681700015441","0.551353299990296","0.417917900020257","1","1","1","1","1","1","1","1","1"
"250029","img/neutralC/CFD-IM-646-023-N.jpg","img/neutralC/CFD-WF-240-083-N.jpg","img/neutralC/CFD-MF-309-002-N.jpg","1","1","1","1","0","0","0.417917900020257","0.418681700015441","0.531772800022736","1","1","1","1","1","1","1","1","1"
"250029","img/neutralC/CFD-MF-309-002-N.jpg","img/neutralC/CFD-IM-646-023-N.jpg","img/neutralC/CFD-LM-244-068-N.jpg","1","1","1","0","1","1","0.531772800022736","0.417917900020257","0.4130302000558","1","1","1","1","1","1","1","1","1"
"250029","img/neutralC/CFD-LM-244-068-N.jpg","img/neutralC/CFD-MF-309-002-N.jpg","img/neutralC/CFD-BM-251-013-N.jpg","1","1","1","1","0","1","0.4130302000558","0.531772800022736","0.38411740004085","1","1","1","1","1","1","1","1","1"
"250029","img/neutralC/CFD-BM-251-013-N.jpg","img/neutralC/CFD-LM-244-068-N.jpg","img/neutralC/CFD-WM-026-001-N.jpg","1","1","1","1","1","1","0.38411740004085","0.4130302000558","0.417914099991322","1","1","1","1","1","1","1","1","1"
"250029","img/neutralC/CFD-WM-026-001-N.jpg","img/neutralC/CFD-BM-251-013-N.jpg","img/neutralC/CFD-IM-648-337-N.jpg","1","1","1","1","1","0","0.417914099991322","0.38411740004085","0.492134400061332","1","1","1","1","1","1","1","1","1"
"250029","img/neutralC/CFD-IM-648-337-N.jpg","img/neutralC/CFD-WM-026-001-N.jpg","img/neutralC/CFD-WM-215-041-N.jpg","1","1","1","0","1","0","0.492134400061332","0.417914099991322","0.491267399978824","1","1","1","1","1","1","1","1","1"
"250029","img/neutralC/CFD-WM-215-041-N.jpg","img/neutralC/CFD-IM-648-337-N.jpg","img/neutralC/CFD-WF-005-010-N.jpg","1","1","1","0","0","0","0.491267399978824","0.492134400061332","0.471213500015438","1","1","1","1","1","1","1","1","1"
"250029","img/neutralC/CFD-WF-005-010-N.jpg","img/neutralC/CFD-WM-215-041-N.jpg","img/neutralC/CFD-AM-247-165-N.jpg","1","1","1","0","0","1","0.471213500015438","0.491267399978824","0.500276700011455","1","1","1","1","1","1","1","1","1"
"250029","img/neutralC/CFD-AM-247-165-N.jpg","img/neutralC/CFD-WF-005-010-N.jpg","img/neutralC/CFD-WM-019-003-N.jpg","1","1","1","1","0","1","0.500276700011455","0.471213500015438","0.441446399898268","1","1","1","1","1","1","1","1","1"
"250029","img/neutralC/CFD-WM-019-003-N.jpg","img/neutralC/CFD-AM-247-165-N.jpg","img/neutralC/CFD-AF-240-206-N.jpg","1","1","1","1","1","0","0.441446399898268","0.500276700011455","0.48951029998716","1","1","1","1","1","1","1","1","1"
"250029","img/neutralC/CFD-AF-240-206-N.jpg","img/neutralC/CFD-WM-019-003-N.jpg","img/neutralC/CFD-WM-249-239-N.jpg","1","1","1","0","1","1","0.48951029998716","0.441446399898268","0.376992199919186","1","1","1","1","1","1","1","1","1"
"250029","img/neutralC/CFD-WM-249-239-N.jpg","img/neutralC/CFD-AF-240-206-N.jpg","img/neutralC/CFD-WF-017-003-N.jpg","1","1","1","1","0","1","0.376992199919186","0.48951029998716","0.417672400013544","1","1","1","1","1","1","1","1","1"
"250029","img/neutralC/CFD-WF-017-003-N.jpg","img/neutralC/CFD-WM-249-239-N.jpg","img/neutralC/CFD-IF-642-295-N.jpg","1","1","1","1","1","1","0.417672400013544","0.376992199919186","0.464112700079568","1","1","1","1","1","1","1","1","1"
"250029","img/neutralC/CFD-IF-642-295-N.jpg","img/neutralC/CFD-WF-017-003-N.jpg","img/neutralC/CFD-MM-317-061-N.jpg","1","1","1","1","1","1","0.464112700079568","0.417672400013544","0.374324799980968","1","1","1","1","1","1","1","1","1"
"250029","img/neutralC/CFD-MM-317-061-N.jpg","img/neutralC/CFD-IF-642-295-N.jpg","img/neutralC/CFD-BF-212-315-N.jpg","1","1","1","1","1","1","0.374324799980968","0.464112700079568","0.395639700000174","1","1","1","1","1","1","1","1","1"
"250029","img/neutralC/CFD-BF-212-315-N.jpg","img/neutralC/CFD-MM-317-061-N.jpg","img/neutralC/CFD-BM-248-128-N.jpg","1","1","1","1","1","0","0.395639700000174","0.374324799980968","0.423891099984758","1","1","1","1","1","1","1","1","1"
"250029","img/neutralC/CFD-BM-248-128-N.jpg","img/neutralC/CFD-BF-212-315-N.jpg",NA,"1","1",NA,"0","1",NA,"0.423891099984758","0.395639700000174",NA,"1","1",NA,"1","1",NA,"1","1",NA
"250029","img/neutralC/CFD-AM-251-124-N.jpg",NA,"img/neutralC/CFD-WM-020-001-N.jpg","1",NA,"1","0",NA,"1","0.575732599943876",NA,"0.368746199994348","1",NA,"1","1",NA,"1","1",NA,"1"
"250029","img/neutralC/CFD-WM-020-001-N.jpg","img/neutralC/CFD-AM-251-124-N.jpg","img/neutralC/CFD-MF-333-012-N.jpg","1","1","1","1","0","0","0.368746199994348","0.575732599943876","0.353091700002551","1","1","1","1","1","1","1","1","1"
"250029","img/neutralC/CFD-MF-333-012-N.jpg","img/neutralC/CFD-WM-020-001-N.jpg","img/neutralC/CFD-IF-650-315-N.jpg","1","1","1","0","1","0","0.353091700002551","0.368746199994348","0.472267100005411","1","1","1","1","1","1","1","1","1"
"250029","img/neutralC/CFD-IF-650-315-N.jpg","img/neutralC/CFD-MF-333-012-N.jpg","img/neutralC/CFD-BF-038-037-N.jpg","1","1","1","0","0","1","0.472267100005411","0.353091700002551","0.503164399997331","1","1","1","1","1","1","1","1","1"
"250029","img/neutralC/CFD-BF-038-037-N.jpg","img/neutralC/CFD-IF-650-315-N.jpg","img/neutralC/CFD-WM-235-147-N.jpg","1","1","1","1","0","0","0.503164399997331","0.472267100005411","0.504629599978216","1","1","1","1","1","1","1","1","1"
"250029","img/neutralC/CFD-WM-235-147-N.jpg","img/neutralC/CFD-BF-038-037-N.jpg","img/neutralC/CFD-IM-703-182-N.jpg","1","1","1","0","1","1","0.504629599978216","0.503164399997331","0.351219700067304","1","1","1","1","1","1","1","1","1"
"250029","img/neutralC/CFD-IM-703-182-N.jpg","img/neutralC/CFD-WM-235-147-N.jpg","img/neutralC/CFD-IM-645-001-N.jpg","1","1","1","1","0","0","0.351219700067304","0.504629599978216","0.427035099943168","1","1","1","1","1","1","1","1","1"
"250029","img/neutralC/CFD-IM-645-001-N.jpg","img/neutralC/CFD-IM-703-182-N.jpg","img/neutralC/CFD-WM-219-008-N.jpg","1","1","0","0","1","0","0.427035099943168","0.351219700067304","0.727865600027144","1","1","1","1","1","1","1","1","1"
"250029","img/neutralC/CFD-WM-219-008-N.jpg","img/neutralC/CFD-IM-645-001-N.jpg","img/neutralC/CFD-AM-211-052-N.jpg","0","1","1","0","0","1","0.727865600027144","0.427035099943168","0.442142599960789","1","1","1","1","1","1","1","1","1"
"250029","img/neutralC/CFD-AM-211-052-N.jpg","img/neutralC/CFD-WM-219-008-N.jpg","img/neutralC/CFD-MF-359-019-N.jpg","1","0","1","1","0","0","0.442142599960789","0.727865600027144","0.497535499976948","1","1","1","1","1","1","1","1","1"
"250029","img/neutralC/CFD-MF-359-019-N.jpg","img/neutralC/CFD-AM-211-052-N.jpg","img/neutralC/CFD-LF-220-120-N.jpg","1","1","1","0","1","1","0.497535499976948","0.442142599960789","0.474660199950449","1","1","1","1","1","1","1","1","1"
"250029","img/neutralC/CFD-LF-220-120-N.jpg","img/neutralC/CFD-MF-359-019-N.jpg","img/neutralC/CFD-BM-225-154-N.jpg","1","1","1","1","0","1","0.474660199950449","0.497535499976948","0.414795499993488","1","1","1","1","1","1","1","1","1"
"250029","img/neutralC/CFD-BM-225-154-N.jpg","img/neutralC/CFD-LF-220-120-N.jpg","img/neutralC/CFD-WF-200-099-N.jpg","1","1","0","1","1","0","0.414795499993488","0.474660199950449",NA,"1","1","0","1","1","0","1","1","0"
"250029","img/neutralC/CFD-WF-200-099-N.jpg","img/neutralC/CFD-BM-225-154-N.jpg","img/neutralC/CFD-IF-623-129-N.jpg","0","1","1","0","1","1",NA,"0.414795499993488","0.471349900006317","0","1","1","0","1","1","0","1","1"
"250029","img/neutralC/CFD-IF-623-129-N.jpg","img/neutralC/CFD-WF-200-099-N.jpg","img/neutralC/CFD-IM-616-214-N.jpg","1","0","1","1","0","0","0.471349900006317",NA,"0.975467200041749","1","0","1","1","0","1","1","0","1"
"250029","img/neutralC/CFD-IM-616-214-N.jpg","img/neutralC/CFD-IF-623-129-N.jpg","img/neutralC/CFD-LM-228-188-N.jpg","1","1","1","0","1","1","0.975467200041749","0.471349900006317","0.482017299975268","1","1","1","1","1","1","1","1","1"
"250029","img/neutralC/CFD-LM-228-188-N.jpg","img/neutralC/CFD-IM-616-214-N.jpg","img/neutralC/CFD-WF-036-023-N.jpg","1","1","1","1","0","0","0.482017299975268","0.975467200041749","0.919208599952981","1","1","1","1","1","1","1","1","1"
"250029","img/neutralC/CFD-WF-036-023-N.jpg","img/neutralC/CFD-LM-228-188-N.jpg","img/neutralC/CFD-IM-671-601-N.jpg","1","1","1","0","1","0","0.919208599952981","0.482017299975268","0.454459799919277","1","1","1","1","1","1","1","1","1"
"250029","img/neutralC/CFD-IM-671-601-N.jpg","img/neutralC/CFD-WF-036-023-N.jpg","img/neutralC/CFD-WM-004-010-N.jpg","1","1","1","0","0","0","0.454459799919277","0.919208599952981","0.536383599974215","1","1","1","1","1","1","1","1","1"
"250029","img/neutralC/CFD-WM-004-010-N.jpg","img/neutralC/CFD-IM-671-601-N.jpg","img/neutralC/CFD-WF-214-122-N.jpg","1","1","1","0","0","1","0.536383599974215","0.454459799919277","0.416322400094941","1","1","1","1","1","1","1","1","1"
"250029","img/neutralC/CFD-WF-214-122-N.jpg","img/neutralC/CFD-WM-004-010-N.jpg","img/neutralC/CFD-MF-352-054-N.jpg","1","1","1","1","0","0","0.416322400094941","0.536383599974215","0.56654119992163","1","1","1","1","1","1","1","1","1"
"250029","img/neutralC/CFD-MF-352-054-N.jpg","img/neutralC/CFD-WF-214-122-N.jpg","img/neutralC/CFD-LM-237-264-N.jpg","1","1","1","0","1","0","0.56654119992163","0.416322400094941","0.587759100017138","1","1","1","1","1","1","1","1","1"
"250029","img/neutralC/CFD-LM-237-264-N.jpg","img/neutralC/CFD-MF-352-054-N.jpg","img/neutralC/CFD-BM-253-004-N.jpg","1","1","1","0","0","1","0.587759100017138","0.56654119992163","0.426031599985436","1","1","1","1","1","1","1","1","1"
"250029","img/neutralC/CFD-BM-253-004-N.jpg","img/neutralC/CFD-LM-237-264-N.jpg","img/neutralC/CFD-BF-229-179-N.jpg","1","1","1","1","0","0","0.426031599985436","0.587759100017138","1.0353163999971","1","1","1","1","1","1","1","1","1"
"250029","img/neutralC/CFD-BF-229-179-N.jpg","img/neutralC/CFD-BM-253-004-N.jpg","img/neutralC/CFD-WF-001-003-N.jpg","1","1","1","0","1","1","1.0353163999971","0.426031599985436","0.405259600025602","1","1","1","1","1","1","1","1","1"
"250029","img/neutralC/CFD-WF-001-003-N.jpg","img/neutralC/CFD-BF-229-179-N.jpg","img/neutralC/CFD-LF-218-072-N.jpg","1","1","1","1","0","0","0.405259600025602","1.0353163999971","0.610372600029223","1","1","1","1","1","1","1","1","1"
"250029","img/neutralC/CFD-LF-218-072-N.jpg","img/neutralC/CFD-WF-001-003-N.jpg","img/neutralC/CFD-BF-226-119-N.jpg","1","1","1","0","1","1","0.610372600029223","0.405259600025602","0.463564199977554","1","1","1","1","1","1","1","1","1"
"250029","img/neutralC/CFD-BF-226-119-N.jpg","img/neutralC/CFD-LF-218-072-N.jpg","img/neutralC/CFD-IM-743-006-N.jpg","1","1","1","1","0","1","0.463564199977554","0.610372600029223","0.413907299982384","1","1","1","1","1","1","1","1","1"
"250029","img/neutralC/CFD-IM-743-006-N.jpg","img/neutralC/CFD-BF-226-119-N.jpg","img/neutralC/CFD-WM-033-025-N.jpg","1","1","1","1","1","1","0.413907299982384","0.463564199977554","0.444371900055557","1","1","1","1","1","1","1","1","1"
"250029","img/neutralC/CFD-WM-033-025-N.jpg","img/neutralC/CFD-IM-743-006-N.jpg","img/neutralC/CFD-BF-232-187-N.jpg","1","1","1","1","1","1","0.444371900055557","0.413907299982384","0.452000000048429","1","1","1","1","1","1","1","1","1"
"250029","img/neutralC/CFD-BF-232-187-N.jpg","img/neutralC/CFD-WM-033-025-N.jpg","img/neutralC/CFD-AM-242-176-N.jpg","1","1","1","1","1","1","0.452000000048429","0.444371900055557","0.454534300020896","1","1","1","1","1","1","1","1","1"
"250029","img/neutralC/CFD-AM-242-176-N.jpg","img/neutralC/CFD-BF-232-187-N.jpg",NA,"1","1",NA,"1","1",NA,"0.454534300020896","0.452000000048429",NA,"1","1",NA,"1","1",NA,"1","1",NA
