"participant_id","current_trial_face","pre_trial_face","post_trial_face","current_trial_accuracy","pre_trial_accuracy","post_trial_accuracy","current_trial_congruency","pre_trial_congruency","post_trial_congruency","current_trial_rt","pre_trial_rt","post_trial_rt","current_trial_responded","pre_trial_responded","post_trial_responded","current_trial_legitResponse","pre_trial_legitResponse","post_trial_legitResponse","current_trial_resp_nums","pre_trial_resp_nums","post_trial_resp_nums"
"250068","img/neutralC/CFD-LF-225-164-N.jpg",NA,"img/neutralC/CFD-BF-045-003-N.jpg","1",NA,"0","1",NA,"0","0.518434300087392",NA,"0.492545499932021","1",NA,"1","1",NA,"1","1",NA,"1"
"250068","img/neutralC/CFD-BF-045-003-N.jpg","img/neutralC/CFD-LF-225-164-N.jpg","img/neutralC/CFD-IM-738-191-N.jpg","0","1","1","0","1","0","0.492545499932021","0.518434300087392","0.699619899969548","1","1","1","1","1","1","1","1","1"
"250068","img/neutralC/CFD-IM-738-191-N.jpg","img/neutralC/CFD-BF-045-003-N.jpg","img/neutralC/CFD-WF-006-002-N.jpg","1","0","1","0","0","0","0.699619899969548","0.492545499932021","0.557828800054267","1","1","1","1","1","1","1","1","1"
"250068","img/neutralC/CFD-WF-006-002-N.jpg","img/neutralC/CFD-IM-738-191-N.jpg","img/neutralC/CFD-LM-247-095-N.jpg","1","1","1","0","0","0","0.557828800054267","0.699619899969548","0.563098800135776","1","1","1","1","1","1","1","1","1"
"250068","img/neutralC/CFD-LM-247-095-N.jpg","img/neutralC/CFD-WF-006-002-N.jpg","img/neutralC/CFD-AF-210-050-N.jpg","1","1","1","0","0","1","0.563098800135776","0.557828800054267","0.588183999992907","1","1","1","1","1","1","1","1","1"
"250068","img/neutralC/CFD-AF-210-050-N.jpg","img/neutralC/CFD-LM-247-095-N.jpg","img/neutralC/CFD-IF-625-225-N.jpg","1","1","1","1","0","0","0.588183999992907","0.563098800135776","0.618628299795091","1","1","1","1","1","1","1","1","1"
"250068","img/neutralC/CFD-IF-625-225-N.jpg","img/neutralC/CFD-AF-210-050-N.jpg","img/neutralC/CFD-MF-312-002-N.jpg","1","1","1","0","1","1","0.618628299795091","0.588183999992907","0.551259199855849","1","1","1","1","1","1","1","1","1"
"250068","img/neutralC/CFD-MF-312-002-N.jpg","img/neutralC/CFD-IF-625-225-N.jpg","img/neutralC/CFD-WF-223-133-N.jpg","1","1","1","1","0","0","0.551259199855849","0.618628299795091","0.71413219999522","1","1","1","1","1","1","1","1","1"
"250068","img/neutralC/CFD-WF-223-133-N.jpg","img/neutralC/CFD-MF-312-002-N.jpg","img/neutralC/CFD-BM-013-002-N.jpg","1","1","1","0","1","1","0.71413219999522","0.551259199855849","0.66320289997384","1","1","1","1","1","1","1","1","1"
"250068","img/neutralC/CFD-BM-013-002-N.jpg","img/neutralC/CFD-WF-223-133-N.jpg","img/neutralC/CFD-MF-336-016-N.jpg","1","1","1","1","0","1","0.66320289997384","0.71413219999522","0.600568800000474","1","1","1","1","1","1","1","1","1"
"250068","img/neutralC/CFD-MF-336-016-N.jpg","img/neutralC/CFD-BM-013-002-N.jpg","img/neutralC/CFD-BM-028-002-N.jpg","1","1","1","1","1","1","0.600568800000474","0.66320289997384","0.575306900078431","1","1","1","1","1","1","1","1","1"
"250068","img/neutralC/CFD-BM-028-002-N.jpg","img/neutralC/CFD-MF-336-016-N.jpg","img/neutralC/CFD-AM-221-184-N.jpg","1","1","1","1","1","1","0.575306900078431","0.600568800000474","0.579711900092661","1","1","1","1","1","1","1","1","1"
"250068","img/neutralC/CFD-AM-221-184-N.jpg","img/neutralC/CFD-BM-028-002-N.jpg","img/neutralC/CFD-WM-202-107-N.jpg","1","1","1","1","1","1","0.579711900092661","0.575306900078431","0.539586700033396","1","1","1","1","1","1","1","1","1"
"250068","img/neutralC/CFD-WM-202-107-N.jpg","img/neutralC/CFD-AM-221-184-N.jpg","img/neutralC/CFD-WF-033-002-N.jpg","1","1","1","1","1","1","0.539586700033396","0.579711900092661","0.603318199981004","1","1","1","1","1","1","1","1","1"
"250068","img/neutralC/CFD-WF-033-002-N.jpg","img/neutralC/CFD-WM-202-107-N.jpg","img/neutralC/CFD-AF-239-171-N.jpg","1","1","1","1","1","1","0.603318199981004","0.539586700033396","0.567289399914443","1","1","1","1","1","1","1","1","1"
"250068","img/neutralC/CFD-AF-239-171-N.jpg","img/neutralC/CFD-WF-033-002-N.jpg","img/neutralC/CFD-IF-673-389-N.jpg","1","1","1","1","1","0","0.567289399914443","0.603318199981004","0.675808500032872","1","1","1","1","1","1","1","1","1"
"250068","img/neutralC/CFD-IF-673-389-N.jpg","img/neutralC/CFD-AF-239-171-N.jpg","img/neutralC/CFD-BF-004-014-N.jpg","1","1","1","0","1","1","0.675808500032872","0.567289399914443","0.562664899975061","1","1","1","1","1","1","1","1","1"
"250068","img/neutralC/CFD-BF-004-014-N.jpg","img/neutralC/CFD-IF-673-389-N.jpg","img/neutralC/CFD-IM-701-312-N.jpg","1","1","1","1","0","0","0.562664899975061","0.675808500032872","0.641076500061899","1","1","1","1","1","1","1","1","1"
"250068","img/neutralC/CFD-IM-701-312-N.jpg","img/neutralC/CFD-BF-004-014-N.jpg","img/neutralC/CFD-BM-213-134-N.jpg","1","1","1","0","1","1","0.641076500061899","0.562664899975061","0.555923500098288","1","1","1","1","1","1","1","1","1"
"250068","img/neutralC/CFD-BM-213-134-N.jpg","img/neutralC/CFD-IM-701-312-N.jpg","img/neutralC/CFD-IF-744-114-N.jpg","1","1","1","1","0","0","0.555923500098288","0.641076500061899","0.744153099833056","1","1","1","1","1","1","1","1","1"
"250068","img/neutralC/CFD-IF-744-114-N.jpg","img/neutralC/CFD-BM-213-134-N.jpg","img/neutralC/CFD-BF-222-240-N.jpg","1","1","1","0","1","0","0.744153099833056","0.555923500098288","0.628005699953064","1","1","1","1","1","1","1","1","1"
"250068","img/neutralC/CFD-BF-222-240-N.jpg","img/neutralC/CFD-IF-744-114-N.jpg","img/neutralC/CFD-BM-010-003-N.jpg","1","1","1","0","0","0","0.628005699953064","0.744153099833056","0.673272399930283","1","1","1","1","1","1","1","1","1"
"250068","img/neutralC/CFD-BM-010-003-N.jpg","img/neutralC/CFD-BF-222-240-N.jpg","img/neutralC/CFD-LF-241-188-N.jpg","1","1","0","0","0","0","0.673272399930283","0.628005699953064","1.29121810011566","1","1","1","1","1","1","1","1","1"
"250068","img/neutralC/CFD-LF-241-188-N.jpg","img/neutralC/CFD-BM-010-003-N.jpg","img/neutralC/CFD-AF-227-207-N.jpg","0","1","1","0","0","1","1.29121810011566","0.673272399930283","0.602766799973324","1","1","1","1","1","1","1","1","1"
"250068","img/neutralC/CFD-AF-227-207-N.jpg","img/neutralC/CFD-LF-241-188-N.jpg","img/neutralC/CFD-IM-659-359-N.jpg","1","0","1","1","0","0","0.602766799973324","1.29121810011566","0.646849600132555","1","1","1","1","1","1","1","1","1"
"250068","img/neutralC/CFD-IM-659-359-N.jpg","img/neutralC/CFD-AF-227-207-N.jpg","img/neutralC/CFD-BM-003-003-N.jpg","1","1","1","0","1","0","0.646849600132555","0.602766799973324","0.616701700026169","1","1","1","1","1","1","1","1","1"
"250068","img/neutralC/CFD-BM-003-003-N.jpg","img/neutralC/CFD-IM-659-359-N.jpg","img/neutralC/CFD-LF-208-127-N.jpg","1","1","1","0","0","0","0.616701700026169","0.646849600132555","0.553427099948749","1","1","1","1","1","1","1","1","1"
"250068","img/neutralC/CFD-LF-208-127-N.jpg","img/neutralC/CFD-BM-003-003-N.jpg","img/neutralC/CFD-WM-254-152-N.jpg","1","1","1","0","0","1","0.553427099948749","0.616701700026169","0.577560300007463","1","1","1","1","1","1","1","1","1"
"250068","img/neutralC/CFD-WM-254-152-N.jpg","img/neutralC/CFD-LF-208-127-N.jpg","img/neutralC/CFD-LF-210-220-N.jpg","1","1","1","1","0","1","0.577560300007463","0.553427099948749","0.611643000040203","1","1","1","1","1","1","1","1","1"
"250068","img/neutralC/CFD-LF-210-220-N.jpg","img/neutralC/CFD-WM-254-152-N.jpg","img/neutralC/CFD-WM-228-065-N.jpg","1","1","1","1","1","0","0.611643000040203","0.577560300007463","0.560010700020939","1","1","1","1","1","1","1","1","1"
"250068","img/neutralC/CFD-WM-228-065-N.jpg","img/neutralC/CFD-LF-210-220-N.jpg","img/neutralC/CFD-LM-238-129-N.jpg","1","1","1","0","1","1","0.560010700020939","0.611643000040203","0.587204199982807","1","1","1","1","1","1","1","1","1"
"250068","img/neutralC/CFD-LM-238-129-N.jpg","img/neutralC/CFD-WM-228-065-N.jpg",NA,"1","1",NA,"1","0",NA,"0.587204199982807","0.560010700020939",NA,"1","1",NA,"1","1",NA,"1","1",NA
"250068","img/neutralC/CFD-LM-225-130-N.jpg",NA,"img/neutralC/CFD-WF-244-163-N.jpg","1",NA,"1","0",NA,"1","0.512416900135577",NA,"0.391022600000724","1",NA,"1","1",NA,"1","1",NA,"1"
"250068","img/neutralC/CFD-WF-244-163-N.jpg","img/neutralC/CFD-LM-225-130-N.jpg","img/neutralC/CFD-MF-357-002-N.jpg","1","1","1","1","0","0","0.391022600000724","0.512416900135577","0.499992500059307","1","1","1","1","1","1","1","1","1"
"250068","img/neutralC/CFD-MF-357-002-N.jpg","img/neutralC/CFD-WF-244-163-N.jpg","img/neutralC/CFD-WM-015-002-N.jpg","1","1","1","0","1","0","0.499992500059307","0.391022600000724","0.504511800128967","1","1","1","1","1","1","1","1","1"
"250068","img/neutralC/CFD-WM-015-002-N.jpg","img/neutralC/CFD-MF-357-002-N.jpg","img/neutralC/CFD-AF-233-190-N.jpg","1","1","1","0","0","0","0.504511800128967","0.499992500059307","0.425955699989572","1","1","1","1","1","1","1","1","1"
"250068","img/neutralC/CFD-AF-233-190-N.jpg","img/neutralC/CFD-WM-015-002-N.jpg","img/neutralC/CFD-BF-237-172-N.jpg","1","1","1","0","0","1","0.425955699989572","0.504511800128967","0.417602700181305","1","1","1","1","1","1","1","1","1"
"250068","img/neutralC/CFD-BF-237-172-N.jpg","img/neutralC/CFD-AF-233-190-N.jpg","img/neutralC/CFD-AM-220-134-N.jpg","1","1","1","1","0","0","0.417602700181305","0.425955699989572","0.503477399935946","1","1","1","1","1","1","1","1","1"
"250068","img/neutralC/CFD-AM-220-134-N.jpg","img/neutralC/CFD-BF-237-172-N.jpg","img/neutralC/CFD-MF-343-001-N.jpg","1","1","1","0","1","1","0.503477399935946","0.417602700181305","0.388426800025627","1","1","1","1","1","1","1","1","1"
"250068","img/neutralC/CFD-MF-343-001-N.jpg","img/neutralC/CFD-AM-220-134-N.jpg","img/neutralC/CFD-MF-316-001-N.jpg","1","1","1","1","0","0","0.388426800025627","0.503477399935946","0.612529000034556","1","1","1","1","1","1","1","1","1"
"250068","img/neutralC/CFD-MF-316-001-N.jpg","img/neutralC/CFD-MF-343-001-N.jpg","img/neutralC/CFD-WF-222-092-N.jpg","1","1","1","0","1","1","0.612529000034556","0.388426800025627","0.611903100041673","1","1","1","1","1","1","1","1","1"
"250068","img/neutralC/CFD-WF-222-092-N.jpg","img/neutralC/CFD-MF-316-001-N.jpg","img/neutralC/CFD-MF-305-014-N.jpg","1","1","1","1","0","1","0.611903100041673","0.612529000034556","0.470670399954543","1","1","1","1","1","1","1","1","1"
"250068","img/neutralC/CFD-MF-305-014-N.jpg","img/neutralC/CFD-WF-222-092-N.jpg","img/neutralC/CFD-IF-660-464-N.jpg","1","1","1","1","1","0","0.470670399954543","0.611903100041673","0.555026599904522","1","1","1","1","1","1","1","1","1"
"250068","img/neutralC/CFD-IF-660-464-N.jpg","img/neutralC/CFD-MF-305-014-N.jpg","img/neutralC/CFD-IM-664-651-N.jpg","1","1","1","0","1","1","0.555026599904522","0.470670399954543","0.460846199886873","1","1","1","1","1","1","1","1","1"
"250068","img/neutralC/CFD-IM-664-651-N.jpg","img/neutralC/CFD-IF-660-464-N.jpg","img/neutralC/CFD-IM-667-369-N.jpg","1","1","1","1","0","0","0.460846199886873","0.555026599904522","0.513775900006294","1","1","1","1","1","1","1","1","1"
"250068","img/neutralC/CFD-IM-667-369-N.jpg","img/neutralC/CFD-IM-664-651-N.jpg","img/neutralC/CFD-BM-217-082-N.jpg","1","1","1","0","1","0","0.513775900006294","0.460846199886873","0.661618200130761","1","1","1","1","1","1","1","1","1"
"250068","img/neutralC/CFD-BM-217-082-N.jpg","img/neutralC/CFD-IM-667-369-N.jpg","img/neutralC/CFD-IM-706-002-N.jpg","1","1","1","0","0","0","0.661618200130761","0.513775900006294","0.567268599988893","1","1","1","1","1","1","1","1","1"
"250068","img/neutralC/CFD-IM-706-002-N.jpg","img/neutralC/CFD-BM-217-082-N.jpg","img/neutralC/CFD-BM-001-014-N.jpg","1","1","1","0","0","0","0.567268599988893","0.661618200130761","0.495334099978208","1","1","1","1","1","1","1","1","1"
"250068","img/neutralC/CFD-BM-001-014-N.jpg","img/neutralC/CFD-IM-706-002-N.jpg","img/neutralC/CFD-WF-007-001-N.jpg","1","1","1","0","0","1","0.495334099978208","0.567268599988893","0.400612900033593","1","1","1","1","1","1","1","1","1"
"250068","img/neutralC/CFD-WF-007-001-N.jpg","img/neutralC/CFD-BM-001-014-N.jpg","img/neutralC/CFD-WF-030-002-N.jpg","1","1","1","1","0","0","0.400612900033593","0.495334099978208","0.58764459984377","1","1","1","1","1","1","1","1","1"
"250068","img/neutralC/CFD-WF-030-002-N.jpg","img/neutralC/CFD-WF-007-001-N.jpg","img/neutralC/CFD-IM-702-101-N.jpg","1","1","1","0","1","1","0.58764459984377","0.400612900033593","0.434164799982682","1","1","1","1","1","1","1","1","1"
"250068","img/neutralC/CFD-IM-702-101-N.jpg","img/neutralC/CFD-WF-030-002-N.jpg","img/neutralC/CFD-WM-209-038-N.jpg","1","1","1","1","0","0","0.434164799982682","0.58764459984377","0.536555500002578","1","1","1","1","1","1","1","1","1"
"250068","img/neutralC/CFD-WM-209-038-N.jpg","img/neutralC/CFD-IM-702-101-N.jpg","img/neutralC/CFD-IF-626-375-N.jpg","1","1","1","0","1","0","0.536555500002578","0.434164799982682","0.440626499941573","1","1","1","1","1","1","1","1","1"
"250068","img/neutralC/CFD-IF-626-375-N.jpg","img/neutralC/CFD-WM-209-038-N.jpg","img/neutralC/CFD-BF-014-002-N.jpg","1","1","1","0","0","1","0.440626499941573","0.536555500002578","0.47538199997507","1","1","1","1","1","1","1","1","1"
"250068","img/neutralC/CFD-BF-014-002-N.jpg","img/neutralC/CFD-IF-626-375-N.jpg","img/neutralC/CFD-MF-303-013-N.jpg","1","1","1","1","0","0","0.47538199997507","0.440626499941573","0.521224999800324","1","1","1","1","1","1","1","1","1"
"250068","img/neutralC/CFD-MF-303-013-N.jpg","img/neutralC/CFD-BF-014-002-N.jpg","img/neutralC/CFD-LF-255-088-N.jpg","1","1","0","0","1","0","0.521224999800324","0.47538199997507","0.449171199928969","1","1","1","1","1","1","1","1","2"
"250068","img/neutralC/CFD-LF-255-088-N.jpg","img/neutralC/CFD-MF-303-013-N.jpg","img/neutralC/CFD-BM-250-170-N.jpg","0","1","1","0","0","1","0.449171199928969","0.521224999800324","0.495224799960852","1","1","1","1","1","1","2","1","1"
"250068","img/neutralC/CFD-BM-250-170-N.jpg","img/neutralC/CFD-LF-255-088-N.jpg","img/neutralC/CFD-LM-200-045-N.jpg","1","0","1","1","0","1","0.495224799960852","0.449171199928969","0.513756799977273","1","1","1","1","1","1","1","2","1"
"250068","img/neutralC/CFD-LM-200-045-N.jpg","img/neutralC/CFD-BM-250-170-N.jpg","img/neutralC/CFD-AF-253-130-N.jpg","1","1","1","1","1","1","0.513756799977273","0.495224799960852","0.500226000091061","1","1","1","1","1","1","1","1","1"
"250068","img/neutralC/CFD-AF-253-130-N.jpg","img/neutralC/CFD-LM-200-045-N.jpg","img/neutralC/CFD-WM-218-074-N.jpg","1","1","1","1","1","1","0.500226000091061","0.513756799977273","0.569533600006253","1","1","1","1","1","1","1","1","1"
"250068","img/neutralC/CFD-WM-218-074-N.jpg","img/neutralC/CFD-AF-253-130-N.jpg","img/neutralC/CFD-IM-680-369-N.jpg","1","1","1","1","1","1","0.569533600006253","0.500226000091061","0.431960199959576","1","1","1","1","1","1","1","1","1"
"250068","img/neutralC/CFD-IM-680-369-N.jpg","img/neutralC/CFD-WM-218-074-N.jpg","img/neutralC/CFD-LF-206-078-N.jpg","1","1","1","1","1","1","0.431960199959576","0.569533600006253","0.501042200019583","1","1","1","1","1","1","1","1","1"
"250068","img/neutralC/CFD-LF-206-078-N.jpg","img/neutralC/CFD-IM-680-369-N.jpg","img/neutralC/CFD-MM-324-069-N.jpg","1","1","1","1","1","1","0.501042200019583","0.431960199959576","0.443702799966559","1","1","1","1","1","1","1","1","1"
"250068","img/neutralC/CFD-MM-324-069-N.jpg","img/neutralC/CFD-LF-206-078-N.jpg",NA,"1","1",NA,"1","1",NA,"0.443702799966559","0.501042200019583",NA,"1","1",NA,"1","1",NA,"1","1",NA
"250068","img/neutralC/CFD-BF-033-028-N.jpg",NA,"img/neutralC/CFD-WM-258-125-N.jpg","1",NA,"0","0",NA,"0","0.513319399906322",NA,"0.422473199898377","1",NA,"1","1",NA,"1","1",NA,"1"
"250068","img/neutralC/CFD-WM-258-125-N.jpg","img/neutralC/CFD-BF-033-028-N.jpg","img/neutralC/CFD-BM-018-001-N.jpg","0","1","1","0","0","1","0.422473199898377","0.513319399906322","0.475510699907318","1","1","1","1","1","1","1","1","1"
"250068","img/neutralC/CFD-BM-018-001-N.jpg","img/neutralC/CFD-WM-258-125-N.jpg","img/neutralC/CFD-BM-005-003-N.jpg","1","0","1","1","0","1","0.475510699907318","0.422473199898377","0.418175800004974","1","1","1","1","1","1","1","1","1"
"250068","img/neutralC/CFD-BM-005-003-N.jpg","img/neutralC/CFD-BM-018-001-N.jpg","img/neutralC/CFD-BF-238-190-N.jpg","1","1","1","1","1","1","0.418175800004974","0.475510699907318","0.471607599873096","1","1","1","1","1","1","1","1","1"
"250068","img/neutralC/CFD-BF-238-190-N.jpg","img/neutralC/CFD-BM-005-003-N.jpg","img/neutralC/CFD-WM-242-011-N.jpg","1","1","1","1","1","0","0.471607599873096","0.418175800004974","0.461648300057277","1","1","1","1","1","1","1","1","1"
"250068","img/neutralC/CFD-WM-242-011-N.jpg","img/neutralC/CFD-BF-238-190-N.jpg","img/neutralC/CFD-BF-010-001-N.jpg","1","1","1","0","1","1","0.461648300057277","0.471607599873096","0.418693299870938","1","1","1","1","1","1","1","1","1"
"250068","img/neutralC/CFD-BF-010-001-N.jpg","img/neutralC/CFD-WM-242-011-N.jpg","img/neutralC/CFD-IM-653-008-N.jpg","1","1","1","1","0","0","0.418693299870938","0.461648300057277","0.579797799931839","1","1","1","1","1","1","1","1","1"
"250068","img/neutralC/CFD-IM-653-008-N.jpg","img/neutralC/CFD-BF-010-001-N.jpg","img/neutralC/CFD-IM-638-250-1-N.jpg","1","1","1","0","1","1","0.579797799931839","0.418693299870938","0.481027800124139","1","1","1","1","1","1","1","1","1"
"250068","img/neutralC/CFD-IM-638-250-1-N.jpg","img/neutralC/CFD-IM-653-008-N.jpg","img/neutralC/CFD-LF-245-166-N.jpg","1","1","1","1","0","1","0.481027800124139","0.579797799931839","0.444560699863359","1","1","1","1","1","1","1","1","1"
"250068","img/neutralC/CFD-LF-245-166-N.jpg","img/neutralC/CFD-IM-638-250-1-N.jpg","img/neutralC/CFD-IM-657-308-N.jpg","1","1","1","1","1","0","0.444560699863359","0.481027800124139","0.339429599931464","1","1","1","1","1","1","1","1","1"
"250068","img/neutralC/CFD-IM-657-308-N.jpg","img/neutralC/CFD-LF-245-166-N.jpg","img/neutralC/CFD-MF-313-002-N.jpg","1","1","1","0","1","0","0.339429599931464","0.444560699863359","0.514187199994922","1","1","1","1","1","1","1","1","1"
"250068","img/neutralC/CFD-MF-313-002-N.jpg","img/neutralC/CFD-IM-657-308-N.jpg","img/neutralC/CFD-WM-017-002-N.jpg","1","1","1","0","0","0","0.514187199994922","0.339429599931464","0.509736499981955","1","1","1","1","1","1","1","1","1"
"250068","img/neutralC/CFD-WM-017-002-N.jpg","img/neutralC/CFD-MF-313-002-N.jpg","img/neutralC/CFD-IM-686-097-N.jpg","1","1","1","0","0","0","0.509736499981955","0.514187199994922","0.535290800035","1","1","1","1","1","1","1","1","1"
"250068","img/neutralC/CFD-IM-686-097-N.jpg","img/neutralC/CFD-WM-017-002-N.jpg","img/neutralC/CFD-IF-620-218-N.jpg","1","1","1","0","0","0","0.535290800035","0.509736499981955","0.508919199928641","1","1","1","1","1","1","1","1","1"
"250068","img/neutralC/CFD-IF-620-218-N.jpg","img/neutralC/CFD-IM-686-097-N.jpg","img/neutralC/CFD-WF-209-052-N.jpg","1","1","1","0","0","1","0.508919199928641","0.535290800035","0.371265699854121","1","1","1","1","1","1","1","1","1"
"250068","img/neutralC/CFD-WF-209-052-N.jpg","img/neutralC/CFD-IF-620-218-N.jpg","img/neutralC/CFD-IF-665-015-N.jpg","1","1","1","1","0","0","0.371265699854121","0.508919199928641","0.416019099997356","1","1","1","1","1","1","1","1","1"
"250068","img/neutralC/CFD-IF-665-015-N.jpg","img/neutralC/CFD-WF-209-052-N.jpg","img/neutralC/CFD-LM-226-175-N.jpg","1","1","1","0","1","0","0.416019099997356","0.371265699854121","0.612282599788159","1","1","1","1","1","1","1","1","1"
"250068","img/neutralC/CFD-LM-226-175-N.jpg","img/neutralC/CFD-IF-665-015-N.jpg","img/neutralC/CFD-IM-617-174-N.jpg","1","1","1","0","0","0","0.612282599788159","0.416019099997356","0.433745699934661","1","1","1","1","1","1","1","1","1"
"250068","img/neutralC/CFD-IM-617-174-N.jpg","img/neutralC/CFD-LM-226-175-N.jpg","img/neutralC/CFD-AF-206-079-N.jpg","1","1","1","0","0","1","0.433745699934661","0.612282599788159","0.397556100040674","1","1","1","1","1","1","1","1","1"
"250068","img/neutralC/CFD-AF-206-079-N.jpg","img/neutralC/CFD-IM-617-174-N.jpg","img/neutralC/CFD-BM-212-117-N.jpg","1","1","1","1","0","0","0.397556100040674","0.433745699934661","0.498446799814701","1","1","1","1","1","1","1","1","1"
"250068","img/neutralC/CFD-BM-212-117-N.jpg","img/neutralC/CFD-AF-206-079-N.jpg","img/neutralC/CFD-LM-233-171-N.jpg","1","1","1","0","1","0","0.498446799814701","0.397556100040674","0.443110399879515","1","1","1","1","1","1","1","1","1"
"250068","img/neutralC/CFD-LM-233-171-N.jpg","img/neutralC/CFD-BM-212-117-N.jpg","img/neutralC/CFD-BM-231-155-N.jpg","1","1","1","0","0","1","0.443110399879515","0.498446799814701","0.400468300096691","1","1","1","1","1","1","1","1","1"
"250068","img/neutralC/CFD-BM-231-155-N.jpg","img/neutralC/CFD-LM-233-171-N.jpg","img/neutralC/CFD-LF-247-051-N.jpg","1","1","1","1","0","1","0.400468300096691","0.443110399879515","0.304403000045568","1","1","1","1","1","1","1","1","1"
"250068","img/neutralC/CFD-LF-247-051-N.jpg","img/neutralC/CFD-BM-231-155-N.jpg","img/neutralC/CFD-AF-241-141-N.jpg","1","1","1","1","1","1","0.304403000045568","0.400468300096691","0.42520060017705","1","1","1","1","1","1","1","1","1"
"250068","img/neutralC/CFD-AF-241-141-N.jpg","img/neutralC/CFD-LF-247-051-N.jpg","img/neutralC/CFD-LM-219-295-N.jpg","1","1","1","1","1","1","0.42520060017705","0.304403000045568","0.385661200154573","1","1","1","1","1","1","1","1","1"
"250068","img/neutralC/CFD-LM-219-295-N.jpg","img/neutralC/CFD-AF-241-141-N.jpg","img/neutralC/CFD-LF-250-169-N.jpg","1","1","1","1","1","1","0.385661200154573","0.42520060017705","0.427528599975631","1","1","1","1","1","1","1","1","1"
"250068","img/neutralC/CFD-LF-250-169-N.jpg","img/neutralC/CFD-LM-219-295-N.jpg","img/neutralC/CFD-LF-242-121-N.jpg","1","1","1","1","1","0","0.427528599975631","0.385661200154573","0.565638300031424","1","1","1","1","1","1","1","1","1"
"250068","img/neutralC/CFD-LF-242-121-N.jpg","img/neutralC/CFD-LF-250-169-N.jpg","img/neutralC/CFD-WM-227-099-N.jpg","1","1","1","0","1","1","0.565638300031424","0.427528599975631","0.412746800109744","1","1","1","1","1","1","1","1","1"
"250068","img/neutralC/CFD-WM-227-099-N.jpg","img/neutralC/CFD-LF-242-121-N.jpg","img/neutralC/CFD-BM-026-002-N.jpg","1","1","1","1","0","0","0.412746800109744","0.565638300031424","0.531991899944842","1","1","1","1","1","1","1","1","1"
"250068","img/neutralC/CFD-BM-026-002-N.jpg","img/neutralC/CFD-WM-227-099-N.jpg","img/neutralC/CFD-IM-727-195-N.jpg","1","1","1","0","1","1","0.531991899944842","0.412746800109744","0.452204499859363","1","1","1","1","1","1","1","1","1"
"250068","img/neutralC/CFD-IM-727-195-N.jpg","img/neutralC/CFD-BM-026-002-N.jpg","img/neutralC/CFD-AF-202-122-N.jpg","1","1","1","1","0","1","0.452204499859363","0.531991899944842","0.48508879984729","1","1","1","1","1","1","1","1","1"
"250068","img/neutralC/CFD-AF-202-122-N.jpg","img/neutralC/CFD-IM-727-195-N.jpg",NA,"1","1",NA,"1","1",NA,"0.48508879984729","0.452204499859363",NA,"1","1",NA,"1","1",NA,"1","1",NA
"250068","img/neutralC/CFD-IM-646-023-N.jpg",NA,"img/neutralC/CFD-IM-648-337-N.jpg","1",NA,"1","1",NA,"0","0.429601300042123",NA,"0.541885599959642","1",NA,"1","1",NA,"1","1",NA,"1"
"250068","img/neutralC/CFD-IM-648-337-N.jpg","img/neutralC/CFD-IM-646-023-N.jpg","img/neutralC/CFD-LM-201-057-N.jpg","1","1","1","0","1","1","0.541885599959642","0.429601300042123","0.401004999876022","1","1","1","1","1","1","1","1","1"
"250068","img/neutralC/CFD-LM-201-057-N.jpg","img/neutralC/CFD-IM-648-337-N.jpg","img/neutralC/CFD-BM-205-001-N.jpg","1","1","0","1","0","0","0.401004999876022","0.541885599959642","0.407544800080359","1","1","1","1","1","1","1","1","1"
"250068","img/neutralC/CFD-BM-205-001-N.jpg","img/neutralC/CFD-LM-201-057-N.jpg","img/neutralC/CFD-WF-228-196-N.jpg","0","1","0","0","1","0","0.407544800080359","0.401004999876022","0.319185300031677","1","1","1","1","1","1","1","1","1"
"250068","img/neutralC/CFD-WF-228-196-N.jpg","img/neutralC/CFD-BM-205-001-N.jpg","img/neutralC/CFD-BF-228-212-N.jpg","0","0","1","0","0","0","0.319185300031677","0.407544800080359","0.516443700063974","1","1","1","1","1","1","1","1","1"
"250068","img/neutralC/CFD-BF-228-212-N.jpg","img/neutralC/CFD-WF-228-196-N.jpg","img/neutralC/CFD-WF-017-003-N.jpg","1","0","1","0","0","1","0.516443700063974","0.319185300031677","0.396835699910298","1","1","1","1","1","1","1","1","1"
"250068","img/neutralC/CFD-WF-017-003-N.jpg","img/neutralC/CFD-BF-228-212-N.jpg","img/neutralC/CFD-AM-247-165-N.jpg","1","1","1","1","0","1","0.396835699910298","0.516443700063974","0.439818799961358","1","1","1","1","1","1","1","1","1"
"250068","img/neutralC/CFD-AM-247-165-N.jpg","img/neutralC/CFD-WF-017-003-N.jpg","img/neutralC/CFD-WM-019-003-N.jpg","1","1","1","1","1","1","0.439818799961358","0.396835699910298","0.369347200030461","1","1","1","1","1","1","1","1","1"
"250068","img/neutralC/CFD-WM-019-003-N.jpg","img/neutralC/CFD-AM-247-165-N.jpg","img/neutralC/CFD-LM-244-068-N.jpg","1","1","1","1","1","1","0.369347200030461","0.439818799961358","0.300719600170851","1","1","1","1","1","1","1","1","1"
"250068","img/neutralC/CFD-LM-244-068-N.jpg","img/neutralC/CFD-WM-019-003-N.jpg","img/neutralC/CFD-BF-212-315-N.jpg","1","1","1","1","1","1","0.300719600170851","0.369347200030461","0.330821099923924","1","1","1","1","1","1","1","1","1"
"250068","img/neutralC/CFD-BF-212-315-N.jpg","img/neutralC/CFD-LM-244-068-N.jpg","img/neutralC/CFD-MF-335-002-N.jpg","1","1","1","1","1","0","0.330821099923924","0.300719600170851","0.482301199808717","1","1","1","1","1","1","1","1","1"
"250068","img/neutralC/CFD-MF-335-002-N.jpg","img/neutralC/CFD-BF-212-315-N.jpg","img/neutralC/CFD-WM-249-239-N.jpg","1","1","1","0","1","1","0.482301199808717","0.330821099923924","0.311762899858877","1","1","1","1","1","1","1","1","1"
"250068","img/neutralC/CFD-WM-249-239-N.jpg","img/neutralC/CFD-MF-335-002-N.jpg","img/neutralC/CFD-BF-041-001-N.jpg","1","1","1","1","0","1","0.311762899858877","0.482301199808717","0.303172499872744","1","1","1","1","1","1","1","1","1"
"250068","img/neutralC/CFD-BF-041-001-N.jpg","img/neutralC/CFD-WM-249-239-N.jpg","img/neutralC/CFD-WF-005-010-N.jpg","1","1","1","1","1","0","0.303172499872744","0.311762899858877","0.266415600199252","1","1","1","1","1","1","1","1","1"
"250068","img/neutralC/CFD-WF-005-010-N.jpg","img/neutralC/CFD-BF-041-001-N.jpg","img/neutralC/CFD-WM-212-097-N.jpg","1","1","1","0","1","0","0.266415600199252","0.303172499872744","0.389725100016221","1","1","1","1","1","1","1","1","1"
"250068","img/neutralC/CFD-WM-212-097-N.jpg","img/neutralC/CFD-WF-005-010-N.jpg","img/neutralC/CFD-WF-240-083-N.jpg","1","1","1","0","0","0","0.389725100016221","0.266415600199252","0.344329700106755","1","1","1","1","1","1","1","1","1"
"250068","img/neutralC/CFD-WF-240-083-N.jpg","img/neutralC/CFD-WM-212-097-N.jpg","img/neutralC/CFD-WM-026-001-N.jpg","1","1","1","0","0","1","0.344329700106755","0.389725100016221","0.404080899897963","1","1","1","1","1","1","1","1","1"
"250068","img/neutralC/CFD-WM-026-001-N.jpg","img/neutralC/CFD-WF-240-083-N.jpg","img/neutralC/CFD-MM-317-061-N.jpg","1","1","1","1","0","1","0.404080899897963","0.344329700106755","0.362628699978814","1","1","1","1","1","1","1","1","1"
"250068","img/neutralC/CFD-MM-317-061-N.jpg","img/neutralC/CFD-WM-026-001-N.jpg","img/neutralC/CFD-BF-025-002-N.jpg","1","1","0","1","1","0","0.362628699978814","0.404080899897963","0.360925699817017","1","1","1","1","1","1","1","1","1"
"250068","img/neutralC/CFD-BF-025-002-N.jpg","img/neutralC/CFD-MM-317-061-N.jpg","img/neutralC/CFD-BM-251-013-N.jpg","0","1","1","0","1","1","0.360925699817017","0.362628699978814","0.444922499824315","1","1","1","1","1","1","1","1","1"
"250068","img/neutralC/CFD-BM-251-013-N.jpg","img/neutralC/CFD-BF-025-002-N.jpg","img/neutralC/CFD-LM-214-165-N.jpg","1","0","1","1","0","1","0.444922499824315","0.360925699817017","0.332514400128275","1","1","1","1","1","1","1","1","1"
"250068","img/neutralC/CFD-LM-214-165-N.jpg","img/neutralC/CFD-BM-251-013-N.jpg","img/neutralC/CFD-MF-309-002-N.jpg","1","1","1","1","1","0","0.332514400128275","0.444922499824315","0.416539000114426","1","1","1","1","1","1","1","1","1"
"250068","img/neutralC/CFD-MF-309-002-N.jpg","img/neutralC/CFD-LM-214-165-N.jpg","img/neutralC/CFD-LM-216-082-N.jpg","1","1","0","0","1","0","0.416539000114426","0.332514400128275","0.405727500095963","1","1","1","1","1","1","1","1","1"
"250068","img/neutralC/CFD-LM-216-082-N.jpg","img/neutralC/CFD-MF-309-002-N.jpg","img/neutralC/CFD-WM-215-041-N.jpg","0","1","1","0","0","0","0.405727500095963","0.416539000114426","0.509332299930975","1","1","1","1","1","1","1","1","1"
"250068","img/neutralC/CFD-WM-215-041-N.jpg","img/neutralC/CFD-LM-216-082-N.jpg","img/neutralC/CFD-AF-240-206-N.jpg","1","0","1","0","0","0","0.509332299930975","0.405727500095963","0.524362899828702","1","1","1","1","1","1","1","1","1"
"250068","img/neutralC/CFD-AF-240-206-N.jpg","img/neutralC/CFD-WM-215-041-N.jpg","img/neutralC/CFD-BF-202-109-N.jpg","1","1","1","0","0","1","0.524362899828702","0.509332299930975","0.419241899857298","1","1","1","1","1","1","1","1","1"
"250068","img/neutralC/CFD-BF-202-109-N.jpg","img/neutralC/CFD-AF-240-206-N.jpg","img/neutralC/CFD-BM-248-128-N.jpg","1","1","1","1","0","0","0.419241899857298","0.524362899828702","0.408498300006613","1","1","1","1","1","1","1","1","1"
"250068","img/neutralC/CFD-BM-248-128-N.jpg","img/neutralC/CFD-BF-202-109-N.jpg","img/neutralC/CFD-IF-642-295-N.jpg","1","1","1","0","1","1","0.408498300006613","0.419241899857298","0.432955799857154","1","1","1","1","1","1","1","1","1"
"250068","img/neutralC/CFD-IF-642-295-N.jpg","img/neutralC/CFD-BM-248-128-N.jpg","img/neutralC/CFD-WM-006-002-N.jpg","1","1","1","1","0","0","0.432955799857154","0.408498300006613","0.553330400027335","1","1","1","1","1","1","1","1","1"
"250068","img/neutralC/CFD-WM-006-002-N.jpg","img/neutralC/CFD-IF-642-295-N.jpg","img/neutralC/CFD-WM-012-001-N.jpg","1","1","1","0","1","1","0.553330400027335","0.432955799857154","0.410195600008592","1","1","1","1","1","1","1","1","1"
"250068","img/neutralC/CFD-WM-012-001-N.jpg","img/neutralC/CFD-WM-006-002-N.jpg","img/neutralC/CFD-LM-243-075-N.jpg","1","1","0","1","0","0","0.410195600008592","0.553330400027335","0.351104600122198","1","1","1","1","1","1","1","1","1"
"250068","img/neutralC/CFD-LM-243-075-N.jpg","img/neutralC/CFD-WM-012-001-N.jpg",NA,"0","1",NA,"0","1",NA,"0.351104600122198","0.410195600008592",NA,"1","1",NA,"1","1",NA,"1","1",NA
"250068","img/neutralC/CFD-IF-732-260-N.jpg",NA,"img/neutralC/CFD-BF-217-189-N.jpg","1",NA,"1","0",NA,"0","0.526754300110042",NA,"0.545478499960154","1",NA,"1","1",NA,"1","1",NA,"1"
"250068","img/neutralC/CFD-BF-217-189-N.jpg","img/neutralC/CFD-IF-732-260-N.jpg","img/neutralC/CFD-AM-245-111-N.jpg","1","1","1","0","0","1","0.545478499960154","0.526754300110042","0.416663199895993","1","1","1","1","1","1","1","1","1"
"250068","img/neutralC/CFD-AM-245-111-N.jpg","img/neutralC/CFD-BF-217-189-N.jpg","img/neutralC/CFD-BF-042-026-N.jpg","1","1","1","1","0","1","0.416663199895993","0.545478499960154","0.410317000001669","1","1","1","1","1","1","1","1","1"
"250068","img/neutralC/CFD-BF-042-026-N.jpg","img/neutralC/CFD-AM-245-111-N.jpg","img/neutralC/CFD-AF-244-168-N.jpg","1","1","1","1","1","0","0.410317000001669","0.416663199895993","0.527966100024059","1","1","1","1","1","1","1","1","1"
"250068","img/neutralC/CFD-AF-244-168-N.jpg","img/neutralC/CFD-BF-042-026-N.jpg","img/neutralC/CFD-WF-210-086-N.jpg","1","1","1","0","1","0","0.527966100024059","0.410317000001669","0.49892340018414","1","1","1","1","1","1","1","1","1"
"250068","img/neutralC/CFD-WF-210-086-N.jpg","img/neutralC/CFD-AF-244-168-N.jpg","img/neutralC/CFD-AF-250-200-N.jpg","1","1","1","0","0","1","0.49892340018414","0.527966100024059","0.354570500086993","1","1","1","1","1","1","1","1","1"
"250068","img/neutralC/CFD-AF-250-200-N.jpg","img/neutralC/CFD-WF-210-086-N.jpg","img/neutralC/CFD-AM-233-236-N.jpg","1","1","1","1","0","1","0.354570500086993","0.49892340018414","0.391427800059319","1","1","1","1","1","1","1","1","1"
"250068","img/neutralC/CFD-AM-233-236-N.jpg","img/neutralC/CFD-AF-250-200-N.jpg","img/neutralC/CFD-IM-635-010-N.jpg","1","1","1","1","1","1","0.391427800059319","0.354570500086993","0.410767700057477","1","1","1","1","1","1","1","1","1"
"250068","img/neutralC/CFD-IM-635-010-N.jpg","img/neutralC/CFD-AM-233-236-N.jpg","img/neutralC/CFD-BF-040-003-N.jpg","1","1","1","1","1","1","0.410767700057477","0.391427800059319","0.400926900096238","1","1","1","1","1","1","1","1","1"
"250068","img/neutralC/CFD-BF-040-003-N.jpg","img/neutralC/CFD-IM-635-010-N.jpg","img/neutralC/CFD-AM-225-102-N.jpg","1","1","1","1","1","0","0.400926900096238","0.410767700057477","0.432275400031358","1","1","1","1","1","1","1","1","1"
"250068","img/neutralC/CFD-AM-225-102-N.jpg","img/neutralC/CFD-BF-040-003-N.jpg","img/neutralC/CFD-BM-215-155-N.jpg","1","1","0","0","1","0","0.432275400031358","0.400926900096238","0.435825400054455","1","1","1","1","1","1","1","1","1"
"250068","img/neutralC/CFD-BM-215-155-N.jpg","img/neutralC/CFD-AM-225-102-N.jpg","img/neutralC/CFD-AF-246-242-N.jpg","0","1","1","0","0","0","0.435825400054455","0.432275400031358","0.501771799987182","1","1","1","1","1","1","1","1","1"
"250068","img/neutralC/CFD-AF-246-242-N.jpg","img/neutralC/CFD-BM-215-155-N.jpg","img/neutralC/CFD-AF-234-208-N.jpg","1","0","1","0","0","1","0.501771799987182","0.435825400054455","0.347679000115022","1","1","1","1","1","1","1","1","1"
"250068","img/neutralC/CFD-AF-234-208-N.jpg","img/neutralC/CFD-AF-246-242-N.jpg","img/neutralC/CFD-IM-669-111-N.jpg","1","1","1","1","0","1","0.347679000115022","0.501771799987182","0.256217599846423","1","1","1","1","1","1","1","1","1"
"250068","img/neutralC/CFD-IM-669-111-N.jpg","img/neutralC/CFD-AF-234-208-N.jpg","img/neutralC/CFD-AF-213-126-N.jpg","1","1","1","1","1","1","0.256217599846423","0.347679000115022","0.320185699965805","1","1","1","1","1","1","1","1","1"
"250068","img/neutralC/CFD-AF-213-126-N.jpg","img/neutralC/CFD-IM-669-111-N.jpg","img/neutralC/CFD-AF-205-155-N.jpg","1","1","1","1","1","0","0.320185699965805","0.256217599846423","0.359116500010714","1","1","1","1","1","1","1","1","1"
"250068","img/neutralC/CFD-AF-205-155-N.jpg","img/neutralC/CFD-AF-213-126-N.jpg","img/neutralC/CFD-MF-307-002-N.jpg","1","1","1","0","1","1","0.359116500010714","0.320185699965805","0.422200300032273","1","1","1","1","1","1","1","1","1"
"250068","img/neutralC/CFD-MF-307-002-N.jpg","img/neutralC/CFD-AF-205-155-N.jpg","img/neutralC/CFD-LF-239-148-N.jpg","1","1","0","1","0","0","0.422200300032273","0.359116500010714","0.377366399858147","1","1","1","1","1","1","1","1","1"
"250068","img/neutralC/CFD-LF-239-148-N.jpg","img/neutralC/CFD-MF-307-002-N.jpg","img/neutralC/CFD-BF-020-002-N.jpg","0","1","1","0","1","1","0.377366399858147","0.422200300032273","0.540388099849224","1","1","1","1","1","1","1","1","1"
"250068","img/neutralC/CFD-BF-020-002-N.jpg","img/neutralC/CFD-LF-239-148-N.jpg","img/neutralC/CFD-IF-636-011-N.jpg","1","0","1","1","0","1","0.540388099849224","0.377366399858147","0.429940299829468","1","1","1","1","1","1","1","1","1"
"250068","img/neutralC/CFD-IF-636-011-N.jpg","img/neutralC/CFD-BF-020-002-N.jpg","img/neutralC/CFD-BF-235-168-N.jpg","1","1","1","1","1","1","0.429940299829468","0.540388099849224","0.465036799898371","1","1","1","1","1","1","1","1","1"
"250068","img/neutralC/CFD-BF-235-168-N.jpg","img/neutralC/CFD-IF-636-011-N.jpg","img/neutralC/CFD-WF-235-121-N.jpg","1","1","1","1","1","0","0.465036799898371","0.429940299829468","0.34316679998301","1","1","1","1","1","1","1","1","1"
"250068","img/neutralC/CFD-WF-235-121-N.jpg","img/neutralC/CFD-BF-235-168-N.jpg","img/neutralC/CFD-BF-206-143-N.jpg","1","1","1","0","1","1","0.34316679998301","0.465036799898371","0.329603600082919","1","1","1","1","1","1","1","1","1"
"250068","img/neutralC/CFD-BF-206-143-N.jpg","img/neutralC/CFD-WF-235-121-N.jpg","img/neutralC/CFD-LM-204-001-N.jpg","1","1","0","1","0","0","0.329603600082919","0.34316679998301","0.332789799897","1","1","1","1","1","1","1","1","1"
"250068","img/neutralC/CFD-LM-204-001-N.jpg","img/neutralC/CFD-BF-206-143-N.jpg","img/neutralC/CFD-IM-632-097-N.jpg","0","1","1","0","1","0","0.332789799897","0.329603600082919","0.470357700018212","1","1","1","1","1","1","1","1","1"
"250068","img/neutralC/CFD-IM-632-097-N.jpg","img/neutralC/CFD-LM-204-001-N.jpg","img/neutralC/CFD-IM-678-482-N.jpg","1","0","0","0","0","0","0.470357700018212","0.332789799897","0.428758099908009","1","1","1","1","1","1","1","1","1"
"250068","img/neutralC/CFD-IM-678-482-N.jpg","img/neutralC/CFD-IM-632-097-N.jpg","img/neutralC/CFD-LM-241-125-N.jpg","0","1","1","0","0","1","0.428758099908009","0.470357700018212","0.421459399862215","1","1","1","1","1","1","1","1","1"
"250068","img/neutralC/CFD-LM-241-125-N.jpg","img/neutralC/CFD-IM-678-482-N.jpg","img/neutralC/CFD-MF-302-027-N.jpg","1","0","0","1","0","0","0.421459399862215","0.428758099908009","0.359861999982968","1","1","1","1","1","1","1","1","1"
"250068","img/neutralC/CFD-MF-302-027-N.jpg","img/neutralC/CFD-LM-241-125-N.jpg","img/neutralC/CFD-BM-004-002-N.jpg","0","1","1","0","1","0","0.359861999982968","0.421459399862215","0.598496699938551","1","1","1","1","1","1","1","1","1"
"250068","img/neutralC/CFD-BM-004-002-N.jpg","img/neutralC/CFD-MF-302-027-N.jpg","img/neutralC/CFD-WM-018-002-N.jpg","1","0","1","0","0","0","0.598496699938551","0.359861999982968","0.413200600072742","1","1","1","1","1","1","1","1","1"
"250068","img/neutralC/CFD-WM-018-002-N.jpg","img/neutralC/CFD-BM-004-002-N.jpg","img/neutralC/CFD-WM-253-119-N.jpg","1","1","1","0","0","1","0.413200600072742","0.598496699938551","0.465240000048652","1","1","1","1","1","1","1","1","1"
"250068","img/neutralC/CFD-WM-253-119-N.jpg","img/neutralC/CFD-WM-018-002-N.jpg",NA,"1","1",NA,"1","0",NA,"0.465240000048652","0.413200600072742",NA,"1","1",NA,"1","1",NA,"1","1",NA
"250068","img/neutralC/CFD-WF-233-112-N.jpg",NA,"img/neutralC/CFD-WF-208-068-N.jpg","1",NA,"1","1",NA,"1","0.448933399980888",NA,"0.407878699945286","1",NA,"1","1",NA,"1","1",NA,"1"
"250068","img/neutralC/CFD-WF-208-068-N.jpg","img/neutralC/CFD-WF-233-112-N.jpg","img/neutralC/CFD-IF-742-103-N.jpg","1","1","1","1","1","1","0.407878699945286","0.448933399980888","0.389173199888319","1","1","1","1","1","1","1","1","1"
"250068","img/neutralC/CFD-IF-742-103-N.jpg","img/neutralC/CFD-WF-208-068-N.jpg","img/neutralC/CFD-BM-207-024-N.jpg","1","1","1","1","1","1","0.389173199888319","0.407878699945286","0.346296099945903","1","1","1","1","1","1","1","1","1"
"250068","img/neutralC/CFD-BM-207-024-N.jpg","img/neutralC/CFD-IF-742-103-N.jpg","img/neutralC/CFD-BF-247-179-N.jpg","1","1","1","1","1","0","0.346296099945903","0.389173199888319","0.485080400016159","1","1","1","1","1","1","1","1","1"
"250068","img/neutralC/CFD-BF-247-179-N.jpg","img/neutralC/CFD-BM-207-024-N.jpg","img/neutralC/CFD-LM-213-061-N.jpg","1","1","1","0","1","0","0.485080400016159","0.346296099945903","0.598812900017947","1","1","1","1","1","1","1","1","1"
"250068","img/neutralC/CFD-LM-213-061-N.jpg","img/neutralC/CFD-BF-247-179-N.jpg","img/neutralC/CFD-IF-729-393-N.jpg","1","1","1","0","0","0","0.598812900017947","0.485080400016159","0.517095300136134","1","1","1","1","1","1","1","1","1"
"250068","img/neutralC/CFD-IF-729-393-N.jpg","img/neutralC/CFD-LM-213-061-N.jpg","img/neutralC/CFD-BF-214-308-N.jpg","1","1","1","0","0","1","0.517095300136134","0.598812900017947","0.428661399986595","1","1","1","1","1","1","1","1","1"
"250068","img/neutralC/CFD-BF-214-308-N.jpg","img/neutralC/CFD-IF-729-393-N.jpg","img/neutralC/CFD-LF-204-133-N.jpg","1","1","1","1","0","1","0.428661399986595","0.517095300136134","0.39644609997049","1","1","1","1","1","1","1","1","1"
"250068","img/neutralC/CFD-LF-204-133-N.jpg","img/neutralC/CFD-BF-214-308-N.jpg","img/neutralC/CFD-IM-726-248-N.jpg","1","1","1","1","1","0","0.39644609997049","0.428661399986595","0.531254500150681","1","1","1","1","1","1","1","1","1"
"250068","img/neutralC/CFD-IM-726-248-N.jpg","img/neutralC/CFD-LF-204-133-N.jpg","img/neutralC/CFD-BF-006-017-N.jpg","1","1","1","0","1","0","0.531254500150681","0.39644609997049","0.48430070001632","1","1","1","1","1","1","1","1","1"
"250068","img/neutralC/CFD-BF-006-017-N.jpg","img/neutralC/CFD-IM-726-248-N.jpg","img/neutralC/CFD-WF-029-002-N.jpg","1","1","1","0","0","0","0.48430070001632","0.531254500150681","0.514916900079697","1","1","1","1","1","1","1","1","1"
"250068","img/neutralC/CFD-WF-029-002-N.jpg","img/neutralC/CFD-BF-006-017-N.jpg","img/neutralC/CFD-BM-241-235-N.jpg","1","1","0","0","0","0","0.514916900079697","0.48430070001632","0.394223199924454","1","1","1","1","1","1","1","1","2"
"250068","img/neutralC/CFD-BM-241-235-N.jpg","img/neutralC/CFD-WF-029-002-N.jpg","img/neutralC/CFD-WF-234-086-N.jpg","0","1","1","0","0","1","0.394223199924454","0.514916900079697","0.504207800142467","1","1","1","1","1","1","2","1","1"
"250068","img/neutralC/CFD-WF-234-086-N.jpg","img/neutralC/CFD-BM-241-235-N.jpg","img/neutralC/CFD-BF-027-002-N.jpg","1","0","1","1","0","1","0.504207800142467","0.394223199924454","0.353380199987441","1","1","1","1","1","1","1","2","1"
"250068","img/neutralC/CFD-BF-027-002-N.jpg","img/neutralC/CFD-WF-234-086-N.jpg","img/neutralC/CFD-BM-238-242-N.jpg","1","1","1","1","1","0","0.353380199987441","0.504207800142467","0.52640699991025","1","1","1","1","1","1","1","1","1"
"250068","img/neutralC/CFD-BM-238-242-N.jpg","img/neutralC/CFD-BF-027-002-N.jpg","img/neutralC/CFD-WM-248-036-N.jpg","1","1","1","0","1","1","0.52640699991025","0.353380199987441","0.429887400008738","1","1","1","1","1","1","1","1","1"
"250068","img/neutralC/CFD-WM-248-036-N.jpg","img/neutralC/CFD-BM-238-242-N.jpg","img/neutralC/CFD-MF-301-024-N.jpg","1","1","1","1","0","0","0.429887400008738","0.52640699991025","0.785453600110486","1","1","1","1","1","1","1","1","1"
"250068","img/neutralC/CFD-MF-301-024-N.jpg","img/neutralC/CFD-WM-248-036-N.jpg","img/neutralC/CFD-IF-677-452-1-N.jpg","1","1","1","0","1","1","0.785453600110486","0.429887400008738","0.441479400033131","1","1","1","1","1","1","1","1","1"
"250068","img/neutralC/CFD-IF-677-452-1-N.jpg","img/neutralC/CFD-MF-301-024-N.jpg","img/neutralC/CFD-BF-036-027-N.jpg","1","1","1","1","0","0","0.441479400033131","0.785453600110486","0.495477699907497","1","1","1","1","1","1","1","1","1"
"250068","img/neutralC/CFD-BF-036-027-N.jpg","img/neutralC/CFD-IF-677-452-1-N.jpg","img/neutralC/CFD-WM-014-002-N.jpg","1","1","1","0","1","0","0.495477699907497","0.441479400033131","0.484351800056174","1","1","1","1","1","1","1","1","1"
"250068","img/neutralC/CFD-WM-014-002-N.jpg","img/neutralC/CFD-BF-036-027-N.jpg","img/neutralC/CFD-IM-696-001-N.jpg","1","1","1","0","0","0","0.484351800056174","0.495477699907497","0.543239699909464","1","1","1","1","1","1","1","1","1"
"250068","img/neutralC/CFD-IM-696-001-N.jpg","img/neutralC/CFD-WM-014-002-N.jpg","img/neutralC/CFD-BM-036-003-N.jpg","1","1","1","0","0","1","0.543239699909464","0.484351800056174","0.35915629984811","1","1","1","1","1","1","1","1","1"
"250068","img/neutralC/CFD-BM-036-003-N.jpg","img/neutralC/CFD-IM-696-001-N.jpg","img/neutralC/CFD-AM-230-150-N.jpg","1","1","1","1","0","0","0.35915629984811","0.543239699909464","0.46887889993377","1","1","1","1","1","1","1","1","1"
"250068","img/neutralC/CFD-AM-230-150-N.jpg","img/neutralC/CFD-BM-036-003-N.jpg","img/neutralC/CFD-BF-011-002-N.jpg","1","1","1","0","1","1","0.46887889993377","0.35915629984811","0.348896099952981","1","1","1","1","1","1","1","1","1"
"250068","img/neutralC/CFD-BF-011-002-N.jpg","img/neutralC/CFD-AM-230-150-N.jpg","img/neutralC/CFD-BF-002-001-N.jpg","1","1","1","1","0","0","0.348896099952981","0.46887889993377","0.460211999947205","1","1","1","1","1","1","1","1","1"
"250068","img/neutralC/CFD-BF-002-001-N.jpg","img/neutralC/CFD-BF-011-002-N.jpg","img/neutralC/CFD-IM-707-105-N.jpg","1","1","1","0","1","1","0.460211999947205","0.348896099952981","0.391922399867326","1","1","1","1","1","1","1","1","1"
"250068","img/neutralC/CFD-IM-707-105-N.jpg","img/neutralC/CFD-BF-002-001-N.jpg","img/neutralC/CFD-BF-236-177-N.jpg","1","1","1","1","0","0","0.391922399867326","0.460211999947205","0.510593600105494","1","1","1","1","1","1","1","1","1"
"250068","img/neutralC/CFD-BF-236-177-N.jpg","img/neutralC/CFD-IM-707-105-N.jpg","img/neutralC/CFD-IM-721-341-N.jpg","1","1","1","0","1","1","0.510593600105494","0.391922399867326","0.423154899850488","1","1","1","1","1","1","1","1","1"
"250068","img/neutralC/CFD-IM-721-341-N.jpg","img/neutralC/CFD-BF-236-177-N.jpg","img/neutralC/CFD-WM-034-030-N.jpg","1","1","1","1","0","1","0.423154899850488","0.510593600105494","0.453299999935552","1","1","1","1","1","1","1","1","1"
"250068","img/neutralC/CFD-WM-034-030-N.jpg","img/neutralC/CFD-IM-721-341-N.jpg","img/neutralC/CFD-BF-207-004-N.jpg","1","1","1","1","1","1","0.453299999935552","0.423154899850488","0.404863399919122","1","1","1","1","1","1","1","1","1"
"250068","img/neutralC/CFD-BF-207-004-N.jpg","img/neutralC/CFD-WM-034-030-N.jpg","img/neutralC/CFD-BF-044-034-N.jpg","1","1","1","1","1","0","0.404863399919122","0.453299999935552","0.51977530005388","1","1","1","1","1","1","1","1","1"
"250068","img/neutralC/CFD-BF-044-034-N.jpg","img/neutralC/CFD-BF-207-004-N.jpg",NA,"1","1",NA,"0","1",NA,"0.51977530005388","0.404863399919122",NA,"1","1",NA,"1","1",NA,"1","1",NA
"250068","img/neutralC/CFD-BF-244-231-N.jpg",NA,"img/neutralC/CFD-LM-240-013-N.jpg","1",NA,"1","1",NA,"1","0.407830599928275",NA,"0.391817499883473","1",NA,"1","1",NA,"1","1",NA,"1"
"250068","img/neutralC/CFD-LM-240-013-N.jpg","img/neutralC/CFD-BF-244-231-N.jpg","img/neutralC/CFD-BM-020-001-N.jpg","1","1","1","1","1","0","0.391817499883473","0.407830599928275","0.274018800118938","1","1","1","1","1","1","1","1","1"
"250068","img/neutralC/CFD-BM-020-001-N.jpg","img/neutralC/CFD-LM-240-013-N.jpg","img/neutralC/CFD-WF-241-210-N.jpg","1","1","0","0","1","0","0.274018800118938","0.391817499883473","0.365500899963081","1","1","1","1","1","1","1","1","1"
"250068","img/neutralC/CFD-WF-241-210-N.jpg","img/neutralC/CFD-BM-020-001-N.jpg","img/neutralC/CFD-IM-697-015-N.jpg","0","1","1","0","0","1","0.365500899963081","0.274018800118938","0.405101299984381","1","1","1","1","1","1","1","1","1"
"250068","img/neutralC/CFD-IM-697-015-N.jpg","img/neutralC/CFD-WF-241-210-N.jpg","img/neutralC/CFD-AM-243-212-N.jpg","1","0","1","1","0","1","0.405101299984381","0.365500899963081","0.42190399998799","1","1","1","1","1","1","1","1","1"
"250068","img/neutralC/CFD-AM-243-212-N.jpg","img/neutralC/CFD-IM-697-015-N.jpg","img/neutralC/CFD-MM-306-010-N.jpg","1","1","1","1","1","0","0.42190399998799","0.405101299984381","0.398753199959174","1","1","1","1","1","1","1","1","1"
"250068","img/neutralC/CFD-MM-306-010-N.jpg","img/neutralC/CFD-AM-243-212-N.jpg","img/neutralC/CFD-BM-009-002-N.jpg","1","1","1","0","1","1","0.398753199959174","0.42190399998799","0.426679400028661","1","1","1","1","1","1","1","1","1"
"250068","img/neutralC/CFD-BM-009-002-N.jpg","img/neutralC/CFD-MM-306-010-N.jpg","img/neutralC/CFD-WF-221-005-N.jpg","1","1","1","1","0","0","0.426679400028661","0.398753199959174","0.505456099985167","1","1","1","1","1","1","1","1","1"
"250068","img/neutralC/CFD-WF-221-005-N.jpg","img/neutralC/CFD-BM-009-002-N.jpg","img/neutralC/CFD-LF-222-147-N.jpg","1","1","1","0","1","0","0.505456099985167","0.426679400028661","0.473778799874708","1","1","1","1","1","1","1","1","1"
"250068","img/neutralC/CFD-LF-222-147-N.jpg","img/neutralC/CFD-WF-221-005-N.jpg","img/neutralC/CFD-BM-030-003-N.jpg","1","1","1","0","0","0","0.473778799874708","0.505456099985167","0.334078799933195","1","1","1","1","1","1","1","1","1"
"250068","img/neutralC/CFD-BM-030-003-N.jpg","img/neutralC/CFD-LF-222-147-N.jpg","img/neutralC/CFD-WF-207-014-N.jpg","1","1","1","0","0","1","0.334078799933195","0.473778799874708","0.39443810004741","1","1","1","1","1","1","1","1","1"
"250068","img/neutralC/CFD-WF-207-014-N.jpg","img/neutralC/CFD-BM-030-003-N.jpg","img/neutralC/CFD-WF-243-148-N.jpg","1","1","1","1","0","0","0.39443810004741","0.334078799933195","0.481703799916431","1","1","1","1","1","1","1","1","1"
"250068","img/neutralC/CFD-WF-243-148-N.jpg","img/neutralC/CFD-WF-207-014-N.jpg","img/neutralC/CFD-AM-219-101-N.jpg","1","1","0","0","1","0","0.481703799916431","0.39443810004741","0.480728900060058","1","1","1","1","1","1","1","1","2"
"250068","img/neutralC/CFD-AM-219-101-N.jpg","img/neutralC/CFD-WF-243-148-N.jpg","img/neutralC/CFD-IM-615-167-N.jpg","0","1","1","0","0","0","0.480728900060058","0.481703799916431","0.468927999958396","1","1","1","1","1","1","2","1","1"
"250068","img/neutralC/CFD-IM-615-167-N.jpg","img/neutralC/CFD-AM-219-101-N.jpg","img/neutralC/CFD-WM-028-003-N.jpg","1","0","1","0","0","1","0.468927999958396","0.480728900060058","0.486640299903229","1","1","1","1","1","1","1","2","1"
"250068","img/neutralC/CFD-WM-028-003-N.jpg","img/neutralC/CFD-IM-615-167-N.jpg","img/neutralC/CFD-WM-025-002-N.jpg","1","1","1","1","0","0","0.486640299903229","0.468927999958396","0.537209900096059","1","1","1","1","1","1","1","1","1"
"250068","img/neutralC/CFD-WM-025-002-N.jpg","img/neutralC/CFD-WM-028-003-N.jpg","img/neutralC/CFD-BF-012-001-N.jpg","1","1","1","0","1","0","0.537209900096059","0.486640299903229","0.545829400187358","1","1","1","1","1","1","1","1","1"
"250068","img/neutralC/CFD-BF-012-001-N.jpg","img/neutralC/CFD-WM-025-002-N.jpg","img/neutralC/CFD-BM-227-191-N.jpg","1","1","1","0","0","1","0.545829400187358","0.537209900096059","0.441550499992445","1","1","1","1","1","1","1","1","1"
"250068","img/neutralC/CFD-BM-227-191-N.jpg","img/neutralC/CFD-BF-012-001-N.jpg","img/neutralC/CFD-BM-043-071-N.jpg","1","1","0","1","0","0","0.441550499992445","0.545829400187358","0.403328199870884","1","1","1","1","1","1","1","1","1"
"250068","img/neutralC/CFD-BM-043-071-N.jpg","img/neutralC/CFD-BM-227-191-N.jpg","img/neutralC/CFD-IF-676-017-N.jpg","0","1","1","0","1","1","0.403328199870884","0.441550499992445","0.437607700005174","1","1","1","1","1","1","1","1","1"
"250068","img/neutralC/CFD-IF-676-017-N.jpg","img/neutralC/CFD-BM-043-071-N.jpg","img/neutralC/CFD-WF-009-001-N.jpg","1","0","1","1","0","1","0.437607700005174","0.403328199870884","0.398594399914146","1","1","1","1","1","1","1","1","1"
"250068","img/neutralC/CFD-WF-009-001-N.jpg","img/neutralC/CFD-IF-676-017-N.jpg","img/neutralC/CFD-LF-212-066-N.jpg","1","1","1","1","1","1","0.398594399914146","0.437607700005174","0.54103900003247","1","1","1","1","1","1","1","1","1"
"250068","img/neutralC/CFD-LF-212-066-N.jpg","img/neutralC/CFD-WF-009-001-N.jpg","img/neutralC/CFD-WM-023-001-N.jpg","1","1","0","1","1","0","0.54103900003247","0.398594399914146","0.420014400035143","1","1","1","1","1","1","1","1","1"
"250068","img/neutralC/CFD-WM-023-001-N.jpg","img/neutralC/CFD-LF-212-066-N.jpg","img/neutralC/CFD-BM-021-021-N.jpg","0","1","1","0","1","1","0.420014400035143","0.54103900003247","0.485555800143629","1","1","1","1","1","1","1","1","1"
"250068","img/neutralC/CFD-BM-021-021-N.jpg","img/neutralC/CFD-WM-023-001-N.jpg","img/neutralC/CFD-IM-606-008-N.jpg","1","0","1","1","0","0","0.485555800143629","0.420014400035143","0.492192100035027","1","1","1","1","1","1","1","1","1"
"250068","img/neutralC/CFD-IM-606-008-N.jpg","img/neutralC/CFD-BM-021-021-N.jpg","img/neutralC/CFD-AM-205-153-N.jpg","1","1","1","0","1","1","0.492192100035027","0.485555800143629","0.470530200051144","1","1","1","1","1","1","1","1","1"
"250068","img/neutralC/CFD-AM-205-153-N.jpg","img/neutralC/CFD-IM-606-008-N.jpg","img/neutralC/CFD-AF-237-223-N.jpg","1","1","1","1","0","0","0.470530200051144","0.492192100035027","0.539158299798146","1","1","1","1","1","1","1","1","1"
"250068","img/neutralC/CFD-AF-237-223-N.jpg","img/neutralC/CFD-AM-205-153-N.jpg","img/neutralC/CFD-IM-689-263-N.jpg","1","1","1","0","1","1","0.539158299798146","0.470530200051144","0.408796299947426","1","1","1","1","1","1","1","1","1"
"250068","img/neutralC/CFD-IM-689-263-N.jpg","img/neutralC/CFD-AF-237-223-N.jpg","img/neutralC/CFD-AM-249-163-N.jpg","1","1","1","1","0","1","0.408796299947426","0.539158299798146","0.471696000080556","1","1","1","1","1","1","1","1","1"
"250068","img/neutralC/CFD-AM-249-163-N.jpg","img/neutralC/CFD-IM-689-263-N.jpg","img/neutralC/CFD-LF-238-154-N.jpg","1","1","1","1","1","1","0.471696000080556","0.408796299947426","0.405899700010195","1","1","1","1","1","1","1","1","1"
"250068","img/neutralC/CFD-LF-238-154-N.jpg","img/neutralC/CFD-AM-249-163-N.jpg","img/neutralC/CFD-MF-328-020-N.jpg","1","1","1","1","1","0","0.405899700010195","0.471696000080556","0.673405900131911","1","1","1","1","1","1","1","1","1"
"250068","img/neutralC/CFD-MF-328-020-N.jpg","img/neutralC/CFD-LF-238-154-N.jpg",NA,"1","1",NA,"0","1",NA,"0.673405900131911","0.405899700010195",NA,"1","1",NA,"1","1",NA,"1","1",NA
"250068","img/neutralC/CFD-BM-015-015-N.jpg",NA,"img/neutralC/CFD-AM-235-241-N.jpg","0",NA,"1","0",NA,"0","0.530450500082225",NA,"0.405334299895912","1",NA,"1","1",NA,"1","1",NA,"1"
"250068","img/neutralC/CFD-AM-235-241-N.jpg","img/neutralC/CFD-BM-015-015-N.jpg","img/neutralC/CFD-BF-003-003-N.jpg","1","0","1","0","0","0","0.405334299895912","0.530450500082225","0.418424399802461","1","1","1","1","1","1","1","1","1"
"250068","img/neutralC/CFD-BF-003-003-N.jpg","img/neutralC/CFD-AM-235-241-N.jpg","img/neutralC/CFD-MM-319-052-N.jpg","1","1","1","0","0","1","0.418424399802461","0.405334299895912","0.506202399963513","1","1","1","1","1","1","1","1","1"
"250068","img/neutralC/CFD-MM-319-052-N.jpg","img/neutralC/CFD-BF-003-003-N.jpg","img/neutralC/CFD-WF-026-002-N.jpg","1","1","1","1","0","1","0.506202399963513","0.418424399802461","0.378329100087285","1","1","1","1","1","1","1","1","1"
"250068","img/neutralC/CFD-WF-026-002-N.jpg","img/neutralC/CFD-MM-319-052-N.jpg","img/neutralC/CFD-WM-225-127-N.jpg","1","1","0","1","1","0","0.378329100087285","0.506202399963513","0.404081499902532","1","1","1","1","1","1","1","1","1"
"250068","img/neutralC/CFD-WM-225-127-N.jpg","img/neutralC/CFD-WF-026-002-N.jpg","img/neutralC/CFD-BF-023-010-N.jpg","0","1","1","0","1","1","0.404081499902532","0.378329100087285","0.442968400195241","1","1","1","1","1","1","1","1","1"
"250068","img/neutralC/CFD-BF-023-010-N.jpg","img/neutralC/CFD-WM-225-127-N.jpg","img/neutralC/CFD-AM-217-085-N.jpg","1","0","1","1","0","0","0.442968400195241","0.404081499902532","0.426072699949145","1","1","1","1","1","1","1","1","1"
"250068","img/neutralC/CFD-AM-217-085-N.jpg","img/neutralC/CFD-BF-023-010-N.jpg","img/neutralC/CFD-WM-257-161-N.jpg","1","1","1","0","1","1","0.426072699949145","0.442968400195241","0.493660100037232","1","1","1","1","1","1","1","1","1"
"250068","img/neutralC/CFD-WM-257-161-N.jpg","img/neutralC/CFD-AM-217-085-N.jpg","img/neutralC/CFD-AM-215-120-N.jpg","1","1","1","1","0","1","0.493660100037232","0.426072699949145","0.477576100034639","1","1","1","1","1","1","1","1","1"
"250068","img/neutralC/CFD-AM-215-120-N.jpg","img/neutralC/CFD-WM-257-161-N.jpg","img/neutralC/CFD-IF-672-305-N.jpg","1","1","1","1","1","0","0.477576100034639","0.493660100037232","0.501339699840173","1","1","1","1","1","1","1","1","1"
"250068","img/neutralC/CFD-IF-672-305-N.jpg","img/neutralC/CFD-AM-215-120-N.jpg","img/neutralC/CFD-BF-028-001-N.jpg","1","1","1","0","1","1","0.501339699840173","0.477576100034639","0.384236500132829","1","1","1","1","1","1","1","1","1"
"250068","img/neutralC/CFD-BF-028-001-N.jpg","img/neutralC/CFD-IF-672-305-N.jpg","img/neutralC/CFD-WM-038-003-N.jpg","1","1","0","1","0","0","0.384236500132829","0.501339699840173","0.462050399975851","1","1","1","1","1","1","1","1","1"
"250068","img/neutralC/CFD-WM-038-003-N.jpg","img/neutralC/CFD-BF-028-001-N.jpg","img/neutralC/CFD-LF-216-121-N.jpg","0","1","1","0","1","1","0.462050399975851","0.384236500132829","0.423109099967405","1","1","1","1","1","1","1","1","1"
"250068","img/neutralC/CFD-LF-216-121-N.jpg","img/neutralC/CFD-WM-038-003-N.jpg","img/neutralC/CFD-IM-639-263-N.jpg","1","0","1","1","0","1","0.423109099967405","0.462050399975851","0.506202900083736","1","1","1","1","1","1","1","1","1"
"250068","img/neutralC/CFD-IM-639-263-N.jpg","img/neutralC/CFD-LF-216-121-N.jpg","img/neutralC/CFD-IM-674-281-N.jpg","1","1","1","1","1","1","0.506202900083736","0.423109099967405","0.421971399802715","1","1","1","1","1","1","1","1","1"
"250068","img/neutralC/CFD-IM-674-281-N.jpg","img/neutralC/CFD-IM-639-263-N.jpg","img/neutralC/CFD-BM-029-024-N.jpg","1","1","1","1","1","1","0.421971399802715","0.506202900083736","0.423867999808863","1","1","1","1","1","1","1","1","1"
"250068","img/neutralC/CFD-BM-029-024-N.jpg","img/neutralC/CFD-IM-674-281-N.jpg","img/neutralC/CFD-WM-002-009-N.jpg","1","1","1","1","1","0","0.423867999808863","0.421971399802715","0.543415399966761","1","1","1","1","1","1","1","1","1"
"250068","img/neutralC/CFD-WM-002-009-N.jpg","img/neutralC/CFD-BM-029-024-N.jpg","img/neutralC/CFD-BF-201-080-N.jpg","1","1","1","0","1","1","0.543415399966761","0.423867999808863","0.555182100040838","1","1","1","1","1","1","1","1","1"
"250068","img/neutralC/CFD-BF-201-080-N.jpg","img/neutralC/CFD-WM-002-009-N.jpg","img/neutralC/CFD-WF-002-004-N.jpg","1","1","0","1","0","0","0.555182100040838","0.543415399966761","0.374484700150788","1","1","1","1","1","1","1","1","1"
"250068","img/neutralC/CFD-WF-002-004-N.jpg","img/neutralC/CFD-BF-201-080-N.jpg","img/neutralC/CFD-BF-208-266-N.jpg","0","1","1","0","1","0","0.374484700150788","0.555182100040838","0.539861700031906","1","1","1","1","1","1","1","1","1"
"250068","img/neutralC/CFD-BF-208-266-N.jpg","img/neutralC/CFD-WF-002-004-N.jpg","img/neutralC/CFD-WM-040-022-N.jpg","1","0","1","0","0","0","0.539861700031906","0.374484700150788","0.456230300012976","1","1","1","1","1","1","1","1","1"
"250068","img/neutralC/CFD-WM-040-022-N.jpg","img/neutralC/CFD-BF-208-266-N.jpg","img/neutralC/CFD-LF-236-221-N.jpg","1","1","1","0","0","1","0.456230300012976","0.539861700031906","0.399472699966282","1","1","1","1","1","1","1","1","1"
"250068","img/neutralC/CFD-LF-236-221-N.jpg","img/neutralC/CFD-WM-040-022-N.jpg","img/neutralC/CFD-BM-211-174-N.jpg","1","1","0","1","0","0","0.399472699966282","0.456230300012976","0.292509200051427","1","1","1","1","1","1","1","1","1"
"250068","img/neutralC/CFD-BM-211-174-N.jpg","img/neutralC/CFD-LF-236-221-N.jpg","img/neutralC/CFD-WF-022-017-N.jpg","0","1","1","0","1","0","0.292509200051427","0.399472699966282","0.408428699942306","1","1","1","1","1","1","1","1","1"
"250068","img/neutralC/CFD-WF-022-017-N.jpg","img/neutralC/CFD-BM-211-174-N.jpg","img/neutralC/CFD-IM-728-041-N.jpg","1","0","1","0","0","0","0.408428699942306","0.292509200051427","0.414911300176755","1","1","1","1","1","1","1","1","1"
"250068","img/neutralC/CFD-IM-728-041-N.jpg","img/neutralC/CFD-WF-022-017-N.jpg","img/neutralC/CFD-LM-252-076-N.jpg","1","1","1","0","0","1","0.414911300176755","0.408428699942306","0.292793300002813","1","1","1","1","1","1","1","1","1"
"250068","img/neutralC/CFD-LM-252-076-N.jpg","img/neutralC/CFD-IM-728-041-N.jpg","img/neutralC/CFD-IF-718-001-N.jpg","1","1","1","1","0","1","0.292793300002813","0.414911300176755","0.277306000003591","1","1","1","1","1","1","1","1","1"
"250068","img/neutralC/CFD-IF-718-001-N.jpg","img/neutralC/CFD-LM-252-076-N.jpg","img/neutralC/CFD-BF-255-140-N.jpg","1","1","1","1","1","1","0.277306000003591","0.292793300002813","0.362309299875051","1","1","1","1","1","1","1","1","1"
"250068","img/neutralC/CFD-BF-255-140-N.jpg","img/neutralC/CFD-IF-718-001-N.jpg","img/neutralC/CFD-BM-247-240-N.jpg","1","1","1","1","1","0","0.362309299875051","0.277306000003591","0.321341099916026","1","1","1","1","1","1","1","1","1"
"250068","img/neutralC/CFD-BM-247-240-N.jpg","img/neutralC/CFD-BF-255-140-N.jpg","img/neutralC/CFD-BF-204-189-N.jpg","1","1","1","0","1","1","0.321341099916026","0.362309299875051","0.288768900092691","1","1","1","1","1","1","1","1","1"
"250068","img/neutralC/CFD-BF-204-189-N.jpg","img/neutralC/CFD-BM-247-240-N.jpg","img/neutralC/CFD-BM-027-001-N.jpg","1","1","0","1","0","0","0.288768900092691","0.321341099916026","0.217264299979433","1","1","1","1","1","1","1","1","1"
"250068","img/neutralC/CFD-BM-027-001-N.jpg","img/neutralC/CFD-BF-204-189-N.jpg",NA,"0","1",NA,"0","1",NA,"0.217264299979433","0.288768900092691",NA,"1","1",NA,"1","1",NA,"1","1",NA
"250068","img/neutralC/CFD-AM-236-090-N.jpg",NA,"img/neutralC/CFD-BF-043-003-N.jpg","1",NA,"1","1",NA,"0","0.470800299895927",NA,"0.460010200040415","1",NA,"1","1",NA,"1","1",NA,"1"
"250068","img/neutralC/CFD-BF-043-003-N.jpg","img/neutralC/CFD-AM-236-090-N.jpg","img/neutralC/CFD-LF-226-174-N.jpg","1","1","0","0","1","0","0.460010200040415","0.470800299895927","0.38723580003716","1","1","1","1","1","1","1","1","1"
"250068","img/neutralC/CFD-LF-226-174-N.jpg","img/neutralC/CFD-BF-043-003-N.jpg","img/neutralC/CFD-IF-619-197-N.jpg","0","1","0","0","0","0","0.38723580003716","0.460010200040415","0.432858899934217","1","1","1","1","1","1","1","1","1"
"250068","img/neutralC/CFD-IF-619-197-N.jpg","img/neutralC/CFD-LF-226-174-N.jpg","img/neutralC/CFD-MF-300-002-N.jpg","0","0","0","0","0","0","0.432858899934217","0.38723580003716","0.379146799910814","1","1","1","1","1","1","1","1","2"
"250068","img/neutralC/CFD-MF-300-002-N.jpg","img/neutralC/CFD-IF-619-197-N.jpg","img/neutralC/CFD-MF-329-001-N.jpg","0","0","1","0","0","0","0.379146799910814","0.432858899934217","0.399386200122535","1","1","1","1","1","1","2","1","1"
"250068","img/neutralC/CFD-MF-329-001-N.jpg","img/neutralC/CFD-MF-300-002-N.jpg","img/neutralC/CFD-BF-224-002-N.jpg","1","0","1","0","0","1","0.399386200122535","0.379146799910814","0.349883700022474","1","1","1","1","1","1","1","2","1"
"250068","img/neutralC/CFD-BF-224-002-N.jpg","img/neutralC/CFD-MF-329-001-N.jpg","img/neutralC/CFD-WF-012-002-N.jpg","1","1","1","1","0","1","0.349883700022474","0.399386200122535","0.362366500077769","1","1","1","1","1","1","1","1","1"
"250068","img/neutralC/CFD-WF-012-002-N.jpg","img/neutralC/CFD-BF-224-002-N.jpg","img/neutralC/CFD-WM-213-076-N.jpg","1","1","1","1","1","1","0.362366500077769","0.349883700022474","0.367981499992311","1","1","1","1","1","1","1","1","1"
"250068","img/neutralC/CFD-WM-213-076-N.jpg","img/neutralC/CFD-WF-012-002-N.jpg","img/neutralC/CFD-MM-304-002-N.jpg","1","1","1","1","1","1","0.367981499992311","0.362366500077769","0.317004299955442","1","1","1","1","1","1","1","1","1"
"250068","img/neutralC/CFD-MM-304-002-N.jpg","img/neutralC/CFD-WM-213-076-N.jpg","img/neutralC/CFD-IM-637-007-N.jpg","1","1","0","1","1","0","0.317004299955442","0.367981499992311","0.375847999937832","1","1","1","1","1","1","1","1","1"
"250068","img/neutralC/CFD-IM-637-007-N.jpg","img/neutralC/CFD-MM-304-002-N.jpg","img/neutralC/CFD-IF-608-390-N.jpg","0","1","1","0","1","1","0.375847999937832","0.317004299955442","0.386340800207108","1","1","1","1","1","1","1","1","1"
"250068","img/neutralC/CFD-IF-608-390-N.jpg","img/neutralC/CFD-IM-637-007-N.jpg","img/neutralC/CFD-AF-229-160-N.jpg","1","0","0","1","0","0","0.386340800207108","0.375847999937832","0.26689049997367","1","1","1","1","1","1","1","1","1"
"250068","img/neutralC/CFD-AF-229-160-N.jpg","img/neutralC/CFD-IF-608-390-N.jpg","img/neutralC/CFD-LF-201-035-N.jpg","0","1","1","0","1","1","0.26689049997367","0.386340800207108","0.339217000175267","1","1","1","1","1","1","1","1","1"
"250068","img/neutralC/CFD-LF-201-035-N.jpg","img/neutralC/CFD-AF-229-160-N.jpg","img/neutralC/CFD-LM-217-162-N.jpg","1","0","1","1","0","0","0.339217000175267","0.26689049997367","0.430879099993035","1","1","1","1","1","1","1","1","1"
"250068","img/neutralC/CFD-LM-217-162-N.jpg","img/neutralC/CFD-LF-201-035-N.jpg","img/neutralC/CFD-IM-685-004-N.jpg","1","1","1","0","1","1","0.430879099993035","0.339217000175267","0.351490100147203","1","1","1","1","1","1","1","1","1"
"250068","img/neutralC/CFD-IM-685-004-N.jpg","img/neutralC/CFD-LM-217-162-N.jpg","img/neutralC/CFD-IM-709-103-N.jpg","1","1","0","1","0","0","0.351490100147203","0.430879099993035","0.410029999911785","1","1","1","1","1","1","1","1","1"
"250068","img/neutralC/CFD-IM-709-103-N.jpg","img/neutralC/CFD-IM-685-004-N.jpg","img/neutralC/CFD-WM-232-070-N.jpg","0","1","1","0","1","0","0.410029999911785","0.351490100147203","0.399081000126898","1","1","1","1","1","1","1","1","1"
"250068","img/neutralC/CFD-WM-232-070-N.jpg","img/neutralC/CFD-IM-709-103-N.jpg","img/neutralC/CFD-WF-248-129-N.jpg","1","0","0","0","0","0","0.399081000126898","0.410029999911785","0.404977499973029","1","1","1","1","1","1","1","1","1"
"250068","img/neutralC/CFD-WF-248-129-N.jpg","img/neutralC/CFD-WM-232-070-N.jpg","img/neutralC/CFD-WF-212-050-N.jpg","0","1","1","0","0","0","0.404977499973029","0.399081000126898","0.307792499894276","1","1","1","1","1","1","1","1","1"
"250068","img/neutralC/CFD-WF-212-050-N.jpg","img/neutralC/CFD-WF-248-129-N.jpg","img/neutralC/CFD-AF-254-167-N.jpg","1","0","1","0","0","1","0.307792499894276","0.404977499973029","0.470461300108582","1","1","1","1","1","1","1","1","1"
"250068","img/neutralC/CFD-AF-254-167-N.jpg","img/neutralC/CFD-WF-212-050-N.jpg","img/neutralC/CFD-MF-340-026-N.jpg","1","1","1","1","0","1","0.470461300108582","0.307792499894276","0.339270799886435","1","1","1","1","1","1","1","1","1"
"250068","img/neutralC/CFD-MF-340-026-N.jpg","img/neutralC/CFD-AF-254-167-N.jpg","img/neutralC/CFD-IM-675-015-N.jpg","1","1","1","1","1","1","0.339270799886435","0.470461300108582","0.396639199927449","1","1","1","1","1","1","1","1","1"
"250068","img/neutralC/CFD-IM-675-015-N.jpg","img/neutralC/CFD-MF-340-026-N.jpg","img/neutralC/CFD-BM-243-218-N.jpg","1","1","1","1","1","1","0.396639199927449","0.339270799886435","0.34979739994742","1","1","1","1","1","1","1","1","1"
"250068","img/neutralC/CFD-BM-243-218-N.jpg","img/neutralC/CFD-IM-675-015-N.jpg","img/neutralC/CFD-WM-024-015-N.jpg","1","1","1","1","1","1","0.34979739994742","0.396639199927449","0.446468600071967","1","1","1","1","1","1","1","1","1"
"250068","img/neutralC/CFD-WM-024-015-N.jpg","img/neutralC/CFD-BM-243-218-N.jpg","img/neutralC/CFD-AF-215-70-N.jpg","1","1","0","1","1","0","0.446468600071967","0.34979739994742","0.357035499997437","1","1","1","1","1","1","1","1","1"
"250068","img/neutralC/CFD-AF-215-70-N.jpg","img/neutralC/CFD-WM-024-015-N.jpg","img/neutralC/CFD-BM-039-029-N.jpg","0","1","1","0","1","1","0.357035499997437","0.446468600071967","0.439991999883205","1","1","1","1","1","1","1","1","1"
"250068","img/neutralC/CFD-BM-039-029-N.jpg","img/neutralC/CFD-AF-215-70-N.jpg","img/neutralC/CFD-WF-217-085-N.jpg","1","0","1","1","0","1","0.439991999883205","0.357035499997437","0.356100000208244","1","1","1","1","1","1","1","1","1"
"250068","img/neutralC/CFD-WF-217-085-N.jpg","img/neutralC/CFD-BM-039-029-N.jpg","img/neutralC/CFD-BF-051-035-N.jpg","1","1","1","1","1","0","0.356100000208244","0.439991999883205","0.43570589995943","1","1","1","1","1","1","1","1","1"
"250068","img/neutralC/CFD-BF-051-035-N.jpg","img/neutralC/CFD-WF-217-085-N.jpg","img/neutralC/CFD-IM-604-014-N.jpg","1","1","0","0","1","0","0.43570589995943","0.356100000208244","0.41181299998425","1","1","1","1","1","1","1","1","2"
"250068","img/neutralC/CFD-IM-604-014-N.jpg","img/neutralC/CFD-BF-051-035-N.jpg","img/neutralC/CFD-WF-008-002-N.jpg","0","1","1","0","0","1","0.41181299998425","0.43570589995943","0.386419699992984","1","1","1","1","1","1","2","1","1"
"250068","img/neutralC/CFD-WF-008-002-N.jpg","img/neutralC/CFD-IM-604-014-N.jpg","img/neutralC/CFD-MF-327-002-N.jpg","1","0","1","1","0","0","0.386419699992984","0.41181299998425","0.419362799962983","1","1","1","1","1","1","1","2","1"
"250068","img/neutralC/CFD-MF-327-002-N.jpg","img/neutralC/CFD-WF-008-002-N.jpg",NA,"1","1",NA,"0","1",NA,"0.419362799962983","0.386419699992984",NA,"1","1",NA,"1","1",NA,"1","1",NA
"250068","img/neutralC/CFD-IM-719-221-N.jpg",NA,"img/neutralC/CFD-MF-318-022-N.jpg","0",NA,"1","0",NA,"1",NA,NA,"0.532571699935943","0",NA,"1","0",NA,"1","0",NA,"1"
"250068","img/neutralC/CFD-MF-318-022-N.jpg","img/neutralC/CFD-IM-719-221-N.jpg","img/neutralC/CFD-AM-244-222-N.jpg","1","0","1","1","0","0","0.532571699935943",NA,"0.478670299984515","1","0","1","1","0","1","1","0","1"
"250068","img/neutralC/CFD-AM-244-222-N.jpg","img/neutralC/CFD-MF-318-022-N.jpg","img/neutralC/CFD-BF-254-201-N.jpg","1","1","1","0","1","0","0.478670299984515","0.532571699935943","0.424673300003633","1","1","1","1","1","1","1","1","1"
"250068","img/neutralC/CFD-BF-254-201-N.jpg","img/neutralC/CFD-AM-244-222-N.jpg","img/neutralC/CFD-BF-218-207-N.jpg","1","1","0","0","0","1","0.424673300003633","0.478670299984515",NA,"1","1","0","1","1","0","1","1","0"
"250068","img/neutralC/CFD-BF-218-207-N.jpg","img/neutralC/CFD-BF-254-201-N.jpg","img/neutralC/CFD-LF-215-157-N.jpg","0","1","1","1","0","0",NA,"0.424673300003633","0.351976600009948","0","1","1","0","1","1","0","1","1"
"250068","img/neutralC/CFD-LF-215-157-N.jpg","img/neutralC/CFD-BF-218-207-N.jpg","img/neutralC/CFD-BM-200-046-N.jpg","1","0","0","0","1","0","0.351976600009948",NA,"0.432668399997056","1","0","1","1","0","1","1","0","1"
"250068","img/neutralC/CFD-BM-200-046-N.jpg","img/neutralC/CFD-LF-215-157-N.jpg","img/neutralC/CFD-WM-221-091-N.jpg","0","1","1","0","0","0","0.432668399997056","0.351976600009948","0.479359799996018","1","1","1","1","1","1","1","1","1"
"250068","img/neutralC/CFD-WM-221-091-N.jpg","img/neutralC/CFD-BM-200-046-N.jpg","img/neutralC/CFD-MM-321-021-N.jpg","1","0","1","0","0","0","0.479359799996018","0.432668399997056","0.438109799986705","1","1","1","1","1","1","1","1","1"
"250068","img/neutralC/CFD-MM-321-021-N.jpg","img/neutralC/CFD-WM-221-091-N.jpg","img/neutralC/CFD-LM-253-075-N.jpg","1","1","1","0","0","0","0.438109799986705","0.479359799996018","0.235739800147712","1","1","1","1","1","1","1","1","1"
"250068","img/neutralC/CFD-LM-253-075-N.jpg","img/neutralC/CFD-MM-321-021-N.jpg","img/neutralC/CFD-MF-342-022-N.jpg","1","1","1","0","0","1","0.235739800147712","0.438109799986705","0.400765600148588","1","1","1","1","1","1","1","1","1"
"250068","img/neutralC/CFD-MF-342-022-N.jpg","img/neutralC/CFD-LM-253-075-N.jpg","img/neutralC/CFD-WF-027-003-N.jpg","1","1","1","1","0","1","0.400765600148588","0.235739800147712","0.393952100072056","1","1","1","1","1","1","1","1","1"
"250068","img/neutralC/CFD-WF-027-003-N.jpg","img/neutralC/CFD-MF-342-022-N.jpg","img/neutralC/CFD-WF-226-095-N.jpg","1","1","1","1","1","1","0.393952100072056","0.400765600148588","0.36591889988631","1","1","1","1","1","1","1","1","1"
"250068","img/neutralC/CFD-WF-226-095-N.jpg","img/neutralC/CFD-WF-027-003-N.jpg","img/neutralC/CFD-BM-204-003-N.jpg","1","1","0","1","1","0","0.36591889988631","0.393952100072056","0.308722499990836","1","1","1","1","1","1","1","1","1"
"250068","img/neutralC/CFD-BM-204-003-N.jpg","img/neutralC/CFD-WF-226-095-N.jpg","img/neutralC/CFD-WM-009-002-N.jpg","0","1","1","0","1","0","0.308722499990836","0.36591889988631","0.467577899806202","1","1","1","1","1","1","1","1","1"
"250068","img/neutralC/CFD-WM-009-002-N.jpg","img/neutralC/CFD-BM-204-003-N.jpg","img/neutralC/CFD-WF-245-084-N.jpg","1","0","1","0","0","1","0.467577899806202","0.308722499990836","0.414480299921706","1","1","1","1","1","1","1","1","1"
"250068","img/neutralC/CFD-WF-245-084-N.jpg","img/neutralC/CFD-WM-009-002-N.jpg","img/neutralC/CFD-WM-237-052-N.jpg","1","1","1","1","0","1","0.414480299921706","0.467577899806202","0.341615400044248","1","1","1","1","1","1","1","1","1"
"250068","img/neutralC/CFD-WM-237-052-N.jpg","img/neutralC/CFD-WF-245-084-N.jpg","img/neutralC/CFD-WM-013-001-N.jpg","1","1","1","1","1","1","0.341615400044248","0.414480299921706","0.334059300133958","1","1","1","1","1","1","1","1","1"
"250068","img/neutralC/CFD-WM-013-001-N.jpg","img/neutralC/CFD-WM-237-052-N.jpg","img/neutralC/CFD-LF-211-003-N.jpg","1","1","0","1","1","0","0.334059300133958","0.341615400044248","0.461398300016299","1","1","1","1","1","1","1","1","2"
"250068","img/neutralC/CFD-LF-211-003-N.jpg","img/neutralC/CFD-WM-013-001-N.jpg","img/neutralC/CFD-WF-018-017-N.jpg","0","1","1","0","1","1","0.461398300016299","0.334059300133958","0.396257700165734","1","1","1","1","1","1","2","1","1"
"250068","img/neutralC/CFD-WF-018-017-N.jpg","img/neutralC/CFD-LF-211-003-N.jpg","img/neutralC/CFD-WF-238-023-N.jpg","1","0","0","1","0","0","0.396257700165734","0.461398300016299","0.424183800118044","1","1","1","1","1","1","1","2","1"
"250068","img/neutralC/CFD-WF-238-023-N.jpg","img/neutralC/CFD-WF-018-017-N.jpg","img/neutralC/CFD-IM-627-178-N.jpg","0","1","1","0","1","1","0.424183800118044","0.396257700165734","0.414319599978626","1","1","1","1","1","1","1","1","1"
"250068","img/neutralC/CFD-IM-627-178-N.jpg","img/neutralC/CFD-WF-238-023-N.jpg","img/neutralC/CFD-AF-221-147-N.jpg","1","0","1","1","0","0","0.414319599978626","0.424183800118044","0.450604600133374","1","1","1","1","1","1","1","1","1"
"250068","img/neutralC/CFD-AF-221-147-N.jpg","img/neutralC/CFD-IM-627-178-N.jpg","img/neutralC/CFD-WM-201-063-N.jpg","1","1","1","0","1","1","0.450604600133374","0.414319599978626","0.372667100047693","1","1","1","1","1","1","1","1","1"
"250068","img/neutralC/CFD-WM-201-063-N.jpg","img/neutralC/CFD-AF-221-147-N.jpg","img/neutralC/CFD-BF-018-039-N.jpg","1","1","1","1","0","1","0.372667100047693","0.450604600133374","0.512778999982402","1","1","1","1","1","1","1","1","1"
"250068","img/neutralC/CFD-BF-018-039-N.jpg","img/neutralC/CFD-WM-201-063-N.jpg","img/neutralC/CFD-MF-321-003-N.jpg","1","1","1","1","1","0","0.512778999982402","0.372667100047693","0.537371900165454","1","1","1","1","1","1","1","1","1"
"250068","img/neutralC/CFD-MF-321-003-N.jpg","img/neutralC/CFD-BF-018-039-N.jpg","img/neutralC/CFD-WM-255-219-N.jpg","1","1","1","0","1","0","0.537371900165454","0.512778999982402","0.474639300024137","1","1","1","1","1","1","1","1","1"
"250068","img/neutralC/CFD-WM-255-219-N.jpg","img/neutralC/CFD-MF-321-003-N.jpg","img/neutralC/CFD-WF-023-003-N.jpg","1","1","1","0","0","1","0.474639300024137","0.537371900165454","0.374961599940434","1","1","1","1","1","1","1","1","1"
"250068","img/neutralC/CFD-WF-023-003-N.jpg","img/neutralC/CFD-WM-255-219-N.jpg","img/neutralC/CFD-IM-700-009-N.jpg","1","1","0","1","0","1","0.374961599940434","0.474639300024137","0.329599100165069","1","1","1","1","1","1","1","1","1"
"250068","img/neutralC/CFD-IM-700-009-N.jpg","img/neutralC/CFD-WF-023-003-N.jpg","img/neutralC/CFD-BM-023-029-N.jpg","0","1","1","1","1","1","0.329599100165069","0.374961599940434","0.415158599847928","1","1","1","1","1","1","1","1","1"
"250068","img/neutralC/CFD-BM-023-029-N.jpg","img/neutralC/CFD-IM-700-009-N.jpg","img/neutralC/CFD-IF-629-234-N.jpg","1","0","1","1","1","0","0.415158599847928","0.329599100165069","0.406587000004947","1","1","1","1","1","1","1","1","1"
"250068","img/neutralC/CFD-IF-629-234-N.jpg","img/neutralC/CFD-BM-023-029-N.jpg","img/neutralC/CFD-AF-232-078-N.jpg","1","1","1","0","1","1","0.406587000004947","0.415158599847928","0.490070600062609","1","1","1","1","1","1","1","1","1"
"250068","img/neutralC/CFD-AF-232-078-N.jpg","img/neutralC/CFD-IF-629-234-N.jpg",NA,"1","1",NA,"1","0",NA,"0.490070600062609","0.406587000004947",NA,"1","1",NA,"1","1",NA,"1","1",NA
"250068","img/neutralC/CFD-WM-011-002-N.jpg",NA,"img/neutralC/CFD-WF-250-167-N.jpg","1",NA,"0","0",NA,"1","0.422515699872747",NA,NA,"1",NA,"0","1",NA,"0","1",NA,"0"
"250068","img/neutralC/CFD-WF-250-167-N.jpg","img/neutralC/CFD-WM-011-002-N.jpg","img/neutralC/CFD-AM-212-050-N.jpg","0","1","1","1","0","1",NA,"0.422515699872747","0.417794500011951","0","1","1","0","1","1","0","1","1"
"250068","img/neutralC/CFD-AM-212-050-N.jpg","img/neutralC/CFD-WF-250-167-N.jpg","img/neutralC/CFD-LF-224-176-N.jpg","1","0","1","1","1","0","0.417794500011951",NA,"0.317149499896914","1","0","1","1","0","1","1","0","1"
"250068","img/neutralC/CFD-LF-224-176-N.jpg","img/neutralC/CFD-AM-212-050-N.jpg","img/neutralC/CFD-LM-215-247-N.jpg","1","1","1","0","1","0","0.317149499896914","0.417794500011951","0.431247000116855","1","1","1","1","1","1","1","1","1"
"250068","img/neutralC/CFD-LM-215-247-N.jpg","img/neutralC/CFD-LF-224-176-N.jpg","img/neutralC/CFD-IF-710-016-N.jpg","1","1","1","0","0","0","0.431247000116855","0.317149499896914","0.369467299897224","1","1","1","1","1","1","1","1","1"
"250068","img/neutralC/CFD-IF-710-016-N.jpg","img/neutralC/CFD-LM-215-247-N.jpg","img/neutralC/CFD-IM-684-008-N.jpg","1","1","1","0","0","1","0.369467299897224","0.431247000116855","0.409774899948388","1","1","1","1","1","1","1","1","1"
"250068","img/neutralC/CFD-IM-684-008-N.jpg","img/neutralC/CFD-IF-710-016-N.jpg","img/neutralC/CFD-LM-218-183-N.jpg","1","1","1","1","0","1","0.409774899948388","0.369467299897224","0.391620900016278","1","1","1","1","1","1","1","1","1"
"250068","img/neutralC/CFD-LM-218-183-N.jpg","img/neutralC/CFD-IM-684-008-N.jpg","img/neutralC/CFD-WF-213-031-N.jpg","1","1","1","1","1","1","0.391620900016278","0.409774899948388","0.324574400205165","1","1","1","1","1","1","1","1","1"
"250068","img/neutralC/CFD-WF-213-031-N.jpg","img/neutralC/CFD-LM-218-183-N.jpg","img/neutralC/CFD-BM-033-003-N.jpg","1","1","1","1","1","0","0.324574400205165","0.391620900016278","0.447696200106293","1","1","1","1","1","1","1","1","1"
"250068","img/neutralC/CFD-BM-033-003-N.jpg","img/neutralC/CFD-WF-213-031-N.jpg","img/neutralC/CFD-AF-231-357-N.jpg","1","1","1","0","1","1","0.447696200106293","0.324574400205165","0.321050300030038","1","1","1","1","1","1","1","1","1"
"250068","img/neutralC/CFD-AF-231-357-N.jpg","img/neutralC/CFD-BM-033-003-N.jpg","img/neutralC/CFD-MF-337-026-N.jpg","1","1","1","1","0","1","0.321050300030038","0.447696200106293","0.377700299955904","1","1","1","1","1","1","1","1","1"
"250068","img/neutralC/CFD-MF-337-026-N.jpg","img/neutralC/CFD-AF-231-357-N.jpg","img/neutralC/CFD-MM-316-156-N.jpg","1","1","1","1","1","1","0.377700299955904","0.321050300030038","0.400721400044858","1","1","1","1","1","1","1","1","1"
"250068","img/neutralC/CFD-MM-316-156-N.jpg","img/neutralC/CFD-MF-337-026-N.jpg","img/neutralC/CFD-AM-201-076-N.jpg","1","1","1","1","1","1","0.400721400044858","0.377700299955904","0.343746299855411","1","1","1","1","1","1","1","1","1"
"250068","img/neutralC/CFD-AM-201-076-N.jpg","img/neutralC/CFD-MM-316-156-N.jpg","img/neutralC/CFD-LF-230-203-N.jpg","1","1","1","1","1","0","0.343746299855411","0.400721400044858","0.408296799985692","1","1","1","1","1","1","1","1","1"
"250068","img/neutralC/CFD-LF-230-203-N.jpg","img/neutralC/CFD-AM-201-076-N.jpg","img/neutralC/CFD-WF-224-099-N.jpg","1","1","1","0","1","0","0.408296799985692","0.343746299855411","0.377514599822462","1","1","1","1","1","1","1","1","1"
"250068","img/neutralC/CFD-WF-224-099-N.jpg","img/neutralC/CFD-LF-230-203-N.jpg","img/neutralC/CFD-BF-039-031-N.jpg","1","1","1","0","0","1","0.377514599822462","0.408296799985692","0.290243800031021","1","1","1","1","1","1","1","1","1"
"250068","img/neutralC/CFD-BF-039-031-N.jpg","img/neutralC/CFD-WF-224-099-N.jpg","img/neutralC/CFD-IF-693-172-N.jpg","1","1","0","1","0","0","0.290243800031021","0.377514599822462","0.33695530006662","1","1","1","1","1","1","1","1","1"
"250068","img/neutralC/CFD-IF-693-172-N.jpg","img/neutralC/CFD-BF-039-031-N.jpg","img/neutralC/CFD-BM-019-002-N.jpg","0","1","1","0","1","0","0.33695530006662","0.290243800031021","0.545481299981475","1","1","1","1","1","1","1","1","1"
"250068","img/neutralC/CFD-BM-019-002-N.jpg","img/neutralC/CFD-IF-693-172-N.jpg","img/neutralC/CFD-LF-214-090-N.jpg","1","0","1","0","0","0","0.545481299981475","0.33695530006662","0.4234790999908","1","1","1","1","1","1","1","1","1"
"250068","img/neutralC/CFD-LF-214-090-N.jpg","img/neutralC/CFD-BM-019-002-N.jpg","img/neutralC/CFD-IM-651-308-N.jpg","1","1","1","0","0","0","0.4234790999908","0.545481299981475","0.478472499875352","1","1","1","1","1","1","1","1","1"
"250068","img/neutralC/CFD-IM-651-308-N.jpg","img/neutralC/CFD-LF-214-090-N.jpg","img/neutralC/CFD-LF-205-100-N.jpg","1","1","1","0","0","1","0.478472499875352","0.4234790999908","0.354688900057226","1","1","1","1","1","1","1","1","1"
"250068","img/neutralC/CFD-LF-205-100-N.jpg","img/neutralC/CFD-IM-651-308-N.jpg","img/neutralC/CFD-BM-041-035-N.jpg","1","1","1","1","0","0","0.354688900057226","0.478472499875352","0.398019899846986","1","1","1","1","1","1","1","1","1"
"250068","img/neutralC/CFD-BM-041-035-N.jpg","img/neutralC/CFD-LF-205-100-N.jpg","img/neutralC/CFD-LF-203-066-N.jpg","1","1","1","0","1","0","0.398019899846986","0.354688900057226","0.509532499825582","1","1","1","1","1","1","1","1","1"
"250068","img/neutralC/CFD-LF-203-066-N.jpg","img/neutralC/CFD-BM-041-035-N.jpg","img/neutralC/CFD-BF-205-141-N.jpg","1","1","1","0","0","0","0.509532499825582","0.398019899846986","0.410149100003764","1","1","1","1","1","1","1","1","1"
"250068","img/neutralC/CFD-BF-205-141-N.jpg","img/neutralC/CFD-LF-203-066-N.jpg","img/neutralC/CFD-BF-253-202-N.jpg","1","1","1","0","0","0","0.410149100003764","0.509532499825582","0.357062699971721","1","1","1","1","1","1","1","1","1"
"250068","img/neutralC/CFD-BF-253-202-N.jpg","img/neutralC/CFD-BF-205-141-N.jpg","img/neutralC/CFD-WM-041-021-N.jpg","1","1","1","0","0","0","0.357062699971721","0.410149100003764","0.306801000144333","1","1","1","1","1","1","1","1","1"
"250068","img/neutralC/CFD-WM-041-021-N.jpg","img/neutralC/CFD-BF-253-202-N.jpg","img/neutralC/CFD-BF-213-188-N.jpg","1","1","0","0","0","1","0.306801000144333","0.357062699971721","0.425454400014132","1","1","1","1","1","1","1","1","1"
"250068","img/neutralC/CFD-BF-213-188-N.jpg","img/neutralC/CFD-WM-041-021-N.jpg","img/neutralC/CFD-IF-634-382-N.jpg","0","1","1","1","0","1","0.425454400014132","0.306801000144333","0.397008900064975","1","1","1","1","1","1","1","1","1"
"250068","img/neutralC/CFD-IF-634-382-N.jpg","img/neutralC/CFD-BF-213-188-N.jpg","img/neutralC/CFD-BM-239-136-N.jpg","1","0","1","1","1","1","0.397008900064975","0.425454400014132","0.391965699847788","1","1","1","1","1","1","1","1","1"
"250068","img/neutralC/CFD-BM-239-136-N.jpg","img/neutralC/CFD-IF-634-382-N.jpg","img/neutralC/CFD-BF-029-031-N.jpg","1","1","1","1","1","1","0.391965699847788","0.397008900064975","0.429017300019041","1","1","1","1","1","1","1","1","1"
"250068","img/neutralC/CFD-BF-029-031-N.jpg","img/neutralC/CFD-BM-239-136-N.jpg","img/neutralC/CFD-WM-021-001-N.jpg","1","1","1","1","1","1","0.429017300019041","0.391965699847788","0.432412199908867","1","1","1","1","1","1","1","1","1"
"250068","img/neutralC/CFD-WM-021-001-N.jpg","img/neutralC/CFD-BF-029-031-N.jpg",NA,"1","1",NA,"1","1",NA,"0.432412199908867","0.429017300019041",NA,"1","1",NA,"1","1",NA,"1","1",NA
"250068","img/neutralC/CFD-BF-226-119-N.jpg",NA,"img/neutralC/CFD-LM-228-188-N.jpg","1",NA,"1","1",NA,"1","0.496846899855882",NA,"0.382851599948481","1",NA,"1","1",NA,"1","1",NA,"1"
"250068","img/neutralC/CFD-LM-228-188-N.jpg","img/neutralC/CFD-BF-226-119-N.jpg","img/neutralC/CFD-LM-237-264-N.jpg","1","1","0","1","1","0","0.382851599948481","0.496846899855882","0.43048909981735","1","1","1","1","1","1","1","1","1"
"250068","img/neutralC/CFD-LM-237-264-N.jpg","img/neutralC/CFD-LM-228-188-N.jpg","img/neutralC/CFD-BM-225-154-N.jpg","0","1","1","0","1","1","0.43048909981735","0.382851599948481","0.408275599824265","1","1","1","1","1","1","1","1","1"
"250068","img/neutralC/CFD-BM-225-154-N.jpg","img/neutralC/CFD-LM-237-264-N.jpg","img/neutralC/CFD-MF-359-019-N.jpg","1","0","1","1","0","0","0.408275599824265","0.43048909981735","0.470518599962816","1","1","1","1","1","1","1","1","1"
"250068","img/neutralC/CFD-MF-359-019-N.jpg","img/neutralC/CFD-BM-225-154-N.jpg","img/neutralC/CFD-MF-352-054-N.jpg","1","1","1","0","1","0","0.470518599962816","0.408275599824265","0.585984700126573","1","1","1","1","1","1","1","1","1"
"250068","img/neutralC/CFD-MF-352-054-N.jpg","img/neutralC/CFD-MF-359-019-N.jpg","img/neutralC/CFD-WF-001-003-N.jpg","1","1","1","0","0","1","0.585984700126573","0.470518599962816","0.401041799923405","1","1","1","1","1","1","1","1","1"
"250068","img/neutralC/CFD-WF-001-003-N.jpg","img/neutralC/CFD-MF-352-054-N.jpg","img/neutralC/CFD-WM-235-147-N.jpg","1","1","0","1","0","0","0.401041799923405","0.585984700126573","0.353732000105083","1","1","1","1","1","1","1","1","1"
"250068","img/neutralC/CFD-WM-235-147-N.jpg","img/neutralC/CFD-WF-001-003-N.jpg","img/neutralC/CFD-BM-253-004-N.jpg","0","1","1","0","1","1","0.353732000105083","0.401041799923405","0.416960699949414","1","1","1","1","1","1","1","1","1"
"250068","img/neutralC/CFD-BM-253-004-N.jpg","img/neutralC/CFD-WM-235-147-N.jpg","img/neutralC/CFD-IF-623-129-N.jpg","1","0","1","1","0","1","0.416960699949414","0.353732000105083","0.432866899995133","1","1","1","1","1","1","1","1","1"
"250068","img/neutralC/CFD-IF-623-129-N.jpg","img/neutralC/CFD-BM-253-004-N.jpg","img/neutralC/CFD-WM-004-010-N.jpg","1","1","1","1","1","0","0.432866899995133","0.416960699949414","0.454167499905452","1","1","1","1","1","1","1","1","1"
"250068","img/neutralC/CFD-WM-004-010-N.jpg","img/neutralC/CFD-IF-623-129-N.jpg","img/neutralC/CFD-BF-229-179-N.jpg","1","1","1","0","1","0","0.454167499905452","0.432866899995133","0.579222899861634","1","1","1","1","1","1","1","1","1"
"250068","img/neutralC/CFD-BF-229-179-N.jpg","img/neutralC/CFD-WM-004-010-N.jpg","img/neutralC/CFD-LF-218-072-N.jpg","1","1","1","0","0","0","0.579222899861634","0.454167499905452","0.507334799971431","1","1","1","1","1","1","1","1","1"
"250068","img/neutralC/CFD-LF-218-072-N.jpg","img/neutralC/CFD-BF-229-179-N.jpg","img/neutralC/CFD-WF-214-122-N.jpg","1","1","1","0","0","1","0.507334799971431","0.579222899861634","0.445424100151286","1","1","1","1","1","1","1","1","1"
"250068","img/neutralC/CFD-WF-214-122-N.jpg","img/neutralC/CFD-LF-218-072-N.jpg","img/neutralC/CFD-BF-038-037-N.jpg","1","1","1","1","0","1","0.445424100151286","0.507334799971431","0.36496190004982","1","1","1","1","1","1","1","1","1"
"250068","img/neutralC/CFD-BF-038-037-N.jpg","img/neutralC/CFD-WF-214-122-N.jpg","img/neutralC/CFD-IM-645-001-N.jpg","1","1","1","1","1","0","0.36496190004982","0.445424100151286","0.476539599942043","1","1","1","1","1","1","1","1","1"
"250068","img/neutralC/CFD-IM-645-001-N.jpg","img/neutralC/CFD-BF-038-037-N.jpg","img/neutralC/CFD-AM-211-052-N.jpg","1","1","1","0","1","1","0.476539599942043","0.36496190004982","0.43138419999741","1","1","1","1","1","1","1","1","1"
"250068","img/neutralC/CFD-AM-211-052-N.jpg","img/neutralC/CFD-IM-645-001-N.jpg","img/neutralC/CFD-IF-650-315-N.jpg","1","1","1","1","0","0","0.43138419999741","0.476539599942043","0.41839149990119","1","1","1","1","1","1","1","1","1"
"250068","img/neutralC/CFD-IF-650-315-N.jpg","img/neutralC/CFD-AM-211-052-N.jpg","img/neutralC/CFD-IM-703-182-N.jpg","1","1","1","0","1","1","0.41839149990119","0.43138419999741","0.451597200008109","1","1","1","1","1","1","1","1","1"
"250068","img/neutralC/CFD-IM-703-182-N.jpg","img/neutralC/CFD-IF-650-315-N.jpg","img/neutralC/CFD-WM-033-025-N.jpg","1","1","1","1","0","1","0.451597200008109","0.41839149990119","0.470732599962503","1","1","1","1","1","1","1","1","1"
"250068","img/neutralC/CFD-WM-033-025-N.jpg","img/neutralC/CFD-IM-703-182-N.jpg","img/neutralC/CFD-WM-020-001-N.jpg","1","1","1","1","1","1","0.470732599962503","0.451597200008109","0.347732299938798","1","1","1","1","1","1","1","1","1"
"250068","img/neutralC/CFD-WM-020-001-N.jpg","img/neutralC/CFD-WM-033-025-N.jpg","img/neutralC/CFD-IM-671-601-N.jpg","1","1","1","1","1","0","0.347732299938798","0.470732599962503","0.451868500094861","1","1","1","1","1","1","1","1","1"
"250068","img/neutralC/CFD-IM-671-601-N.jpg","img/neutralC/CFD-WM-020-001-N.jpg","img/neutralC/CFD-MF-333-012-N.jpg","1","1","0","0","1","0","0.451868500094861","0.347732299938798","0.368229300016537","1","1","1","1","1","1","1","1","1"
"250068","img/neutralC/CFD-MF-333-012-N.jpg","img/neutralC/CFD-IM-671-601-N.jpg","img/neutralC/CFD-WF-036-023-N.jpg","0","1","1","0","0","0","0.368229300016537","0.451868500094861","0.568396599963307","1","1","1","1","1","1","1","1","1"
"250068","img/neutralC/CFD-WF-036-023-N.jpg","img/neutralC/CFD-MF-333-012-N.jpg","img/neutralC/CFD-IM-743-006-N.jpg","1","0","1","0","0","1","0.568396599963307","0.368229300016537","0.463426300091669","1","1","1","1","1","1","1","1","1"
"250068","img/neutralC/CFD-IM-743-006-N.jpg","img/neutralC/CFD-WF-036-023-N.jpg","img/neutralC/CFD-AM-251-124-N.jpg","1","1","0","1","0","0","0.463426300091669","0.568396599963307","0.352878500008956","1","1","1","1","1","1","1","1","1"
"250068","img/neutralC/CFD-AM-251-124-N.jpg","img/neutralC/CFD-IM-743-006-N.jpg","img/neutralC/CFD-AM-242-176-N.jpg","0","1","1","0","1","1","0.352878500008956","0.463426300091669","0.420321099925786","1","1","1","1","1","1","1","1","1"
"250068","img/neutralC/CFD-AM-242-176-N.jpg","img/neutralC/CFD-AM-251-124-N.jpg","img/neutralC/CFD-IM-616-214-N.jpg","1","0","1","1","0","0","0.420321099925786","0.352878500008956","0.476803299970925","1","1","1","1","1","1","1","1","1"
"250068","img/neutralC/CFD-IM-616-214-N.jpg","img/neutralC/CFD-AM-242-176-N.jpg","img/neutralC/CFD-WF-200-099-N.jpg","1","1","1","0","1","0","0.476803299970925","0.420321099925786","0.450598499970511","1","1","1","1","1","1","1","1","1"
"250068","img/neutralC/CFD-WF-200-099-N.jpg","img/neutralC/CFD-IM-616-214-N.jpg","img/neutralC/CFD-LF-220-120-N.jpg","1","1","1","0","0","1","0.450598499970511","0.476803299970925","0.43629079987295","1","1","1","1","1","1","1","1","1"
"250068","img/neutralC/CFD-LF-220-120-N.jpg","img/neutralC/CFD-WF-200-099-N.jpg","img/neutralC/CFD-WM-219-008-N.jpg","1","1","1","1","0","0","0.43629079987295","0.450598499970511","0.45424889982678","1","1","1","1","1","1","1","1","1"
"250068","img/neutralC/CFD-WM-219-008-N.jpg","img/neutralC/CFD-LF-220-120-N.jpg","img/neutralC/CFD-BF-232-187-N.jpg","1","1","1","0","1","1","0.45424889982678","0.43629079987295","0.480463800020516","1","1","1","1","1","1","1","1","1"
"250068","img/neutralC/CFD-BF-232-187-N.jpg","img/neutralC/CFD-WM-219-008-N.jpg",NA,"1","1",NA,"1","0",NA,"0.480463800020516","0.45424889982678",NA,"1","1",NA,"1","1",NA,"1","1",NA
