"participant_id","face","surpAcc","memory_surp_responses","memory_surp_rt","keep_surp_memory_trial_based_on_rt","surp_block_num","exclude_block","number_of_surp_resp_items_used","num_blocks_excluded"
"250054","img/neutralC/CFD-MF-305-014-N.jpg","1","s","2.18860130000394",1,1,0,2,0
"250054","img/neutralC/CFD-AF-246-242-N.jpg","0","s","2.62774259998696",1,1,0,2,0
"250054","img/neutralC/CFD-BM-227-191-N.jpg","0","k","1.78563140000915",1,1,0,2,0
"250054","img/neutralC/CFD-LF-245-166-N.jpg","0","s","1.67888619998121",1,1,0,2,0
"250054","img/neutralC/CFD-BM-213-134-N.jpg","0","s","3.52123749998282",1,1,0,2,0
"250054","img/neutralC/CFD-BM-239-136-N.jpg","0","k","1.15025269999751",1,1,0,2,0
"250054","img/neutralC/CFD-IM-657-308-N.jpg","1","k","1.2716439999931",1,1,0,2,0
"250054","img/neutralC/CFD-BM-004-002-N.jpg","1","s","1.12302290002117",1,1,0,2,0
"250054","img/neutralC/CFD-IF-660-464-N.jpg","0","k","1.34027559999959",1,1,0,2,0
"250054","img/neutralC/CFD-WM-028-003-N.jpg","1","s","4.25617720000446",1,1,0,2,0
"250054","img/neutralC/CFD-LM-247-095-N.jpg","0","s","1.66596139999456",1,1,0,2,0
"250054","img/neutralC/CFD-BF-205-141-N.jpg","1","s","1.68669929998578",1,1,0,2,0
"250054","img/neutralC/CFD-WM-227-099-N.jpg","1","k","3.85621600001468",1,1,0,2,0
"250054","img/neutralC/CFD-WM-033-025-N.jpg","1","s","1.72625119998702",1,1,0,2,0
"250054","img/neutralC/CFD-IM-671-601-N.jpg","1","k","1.19582230001106",1,1,0,2,0
"250054","img/neutralC/CFD-LF-204-133-N.jpg","0","s","2.23547130002407",1,1,0,2,0
"250054","img/neutralC/CFD-IM-617-174-N.jpg","0","k","2.41891890001716",1,1,0,2,0
"250054","img/neutralC/CFD-AF-253-130-N.jpg","1","s","1.77341429999797",1,1,0,2,0
"250054","img/neutralC/CFD-AM-233-236-N.jpg","1","s","0.887814299989259",1,1,0,2,0
"250054","img/neutralC/CFD-MF-300-002-N.jpg","0","k","1.9523231999774",1,1,0,2,0
"250054","img/neutralC/CFD-IM-700-009-N.jpg","1","s","1.89010609997786",1,1,0,2,0
"250054","img/neutralC/CFD-WF-244-163-N.jpg","1","s","0.752633299998706",1,1,0,2,0
"250054","img/neutralC/CFD-BM-253-004-N.jpg","1","s","0.821074000006774",1,1,0,2,0
"250054","img/neutralC/CFD-BF-012-001-N.jpg","0","s","2.66199969997979",1,1,0,2,0
"250054","img/neutralC/CFD-AM-219-101-N.jpg","0","k","1.05032189999474",1,1,0,2,0
"250054","img/neutralC/CFD-WF-250-167-N.jpg","1","s","0.86522929999046",1,1,0,2,0
"250054","img/neutralC/CFD-IM-674-281-N.jpg","1","s","1.14194149998366",1,1,0,2,0
"250054","img/neutralC/CFD-WM-004-010-N.jpg","1","k","1.02552659998764",1,1,0,2,0
"250054","img/neutralC/CFD-WM-034-030-N.jpg","0","s","1.21018879997428",1,1,0,2,0
"250054","img/neutralC/CFD-WF-030-002-N.jpg","1","s","1.38719539999147",1,1,0,2,0
"250054","img/neutralC/CFD-MM-304-002-N.jpg","1","s","2.49929700000212",1,1,0,2,0
"250054","img/neutralC/CFD-WM-012-001-N.jpg","1","s","1.88064200000372",1,1,0,2,0
"250054","img/neutralC/CFD-WM-215-041-N.jpg","0","s","1.57374870000058",1,1,0,2,0
"250054","img/neutralC/CFD-WF-233-112-N.jpg","0","k","1.92940829999861",1,1,0,2,0
"250054","img/neutralC/CFD-IF-744-114-N.jpg","1","s","1.35766489998787",1,1,0,2,0
"250054","img/neutralC/CFD-IM-632-097-N.jpg","1","s","1.26052399998298",1,1,0,2,0
"250054","img/neutralC/CFD-BM-009-002-N.jpg","0","s","2.85677979997126",1,1,0,2,0
"250054","img/neutralC/CFD-WF-234-086-N.jpg","1","s","1.33465699999942",1,1,0,2,0
"250054","img/neutralC/CFD-WM-020-001-N.jpg","1","k","1.06557320000138",1,1,0,2,0
"250054","img/neutralC/CFD-WF-001-003-N.jpg","1","k","1.30464399998891",1,1,0,2,0
"250054","img/neutralC/CFD-WF-213-031-N.jpg","1","k","2.15681190000032",1,1,0,2,0
"250054","img/neutralC/CFD-WM-023-001-N.jpg","0","s","1.49018630001228",1,1,0,2,0
"250054","img/neutralC/CFD-WM-212-097-N.jpg","0","s","2.41447079999489",1,1,0,2,0
"250054","img/neutralC/CFD-BM-020-001-N.jpg","0","k","1.16802809998626",1,1,0,2,0
"250054","img/neutralC/CFD-MF-307-002-N.jpg","1","s","2.01121249998687",1,1,0,2,0
"250054","img/neutralC/CFD-BM-238-242-N.jpg","1","k","1.34315800000331",1,1,0,2,0
"250054","img/neutralC/CFD-IM-707-105-N.jpg","1","s","2.65766450000228",1,1,0,2,0
"250054","img/neutralC/CFD-LF-225-164-N.jpg","1","k","2.02737159997923",1,1,0,2,0
"250054","img/neutralC/CFD-MM-306-010-N.jpg","0","s","1.88143700000364",1,2,0,2,0
"250054","img/neutralC/CFD-BM-023-029-N.jpg","1","k","1.16859089999343",1,2,0,2,0
"250054","img/neutralC/CFD-IF-693-172-N.jpg","0","s","1.20319649999146",1,2,0,2,0
"250054","img/neutralC/CFD-WM-015-002-N.jpg","1","s","1.93626879999647",1,2,0,2,0
"250054","img/neutralC/CFD-IF-672-305-N.jpg","1","k","2.67477139999392",1,2,0,2,0
"250054","img/neutralC/CFD-WF-033-002-N.jpg","0","k","2.29242760001216",1,2,0,2,0
"250054","img/neutralC/CFD-BM-036-003-N.jpg","1","k","1.42165500001283",1,2,0,2,0
"250054","img/neutralC/CFD-LM-237-264-N.jpg","1","k","1.43158400000539",1,2,0,2,0
"250054","img/neutralC/CFD-AM-211-052-N.jpg","0","s","2.12024129999918",1,2,0,2,0
"250054","img/neutralC/CFD-IF-665-015-N.jpg","1","s","2.37945879998733",1,2,0,2,0
"250054","img/neutralC/CFD-IM-669-111-N.jpg","0","s","2.28996039999765",1,2,0,2,0
"250054","img/neutralC/CFD-WM-017-002-N.jpg","1","k","1.23335039999802",1,2,0,2,0
"250054","img/neutralC/CFD-WM-248-036-N.jpg","0","k","1.40277420001803",1,2,0,2,0
"250054","img/neutralC/CFD-BF-043-003-N.jpg","1","k","1.98944829998072",1,2,0,2,0
"250054","img/neutralC/CFD-MF-313-002-N.jpg","1","s","2.70262290001847",1,2,0,2,0
"250054","img/neutralC/CFD-BM-030-003-N.jpg","0","s","1.87318989998312",1,2,0,2,0
"250054","img/neutralC/CFD-BM-003-003-N.jpg","1","s","4.88465200000792",1,2,0,2,0
"250054","img/neutralC/CFD-WF-240-083-N.jpg","1","s","3.10748209999292",1,2,0,2,0
"250054","img/neutralC/CFD-LM-241-125-N.jpg","1","k","1.71945369997411",1,2,0,2,0
"250054","img/neutralC/CFD-WM-242-011-N.jpg","0","k","1.28427380000358",1,2,0,2,0
"250054","img/neutralC/CFD-AF-250-200-N.jpg","1","s","1.460411499982",1,2,0,2,0
"250054","img/neutralC/CFD-IF-710-016-N.jpg","1","k","1.10379019999527",1,2,0,2,0
"250054","img/neutralC/CFD-BF-044-034-N.jpg","0","k","2.41189019999001",1,2,0,2,0
"250054","img/neutralC/CFD-BM-217-082-N.jpg","1","k","1.36016280000331",1,2,0,2,0
"250054","img/neutralC/CFD-IM-667-369-N.jpg","1","k","1.40098900001612",1,2,0,2,0
"250054","img/neutralC/CFD-IM-664-651-N.jpg","1","s","3.57393210000009",1,2,0,2,0
"250054","img/neutralC/CFD-BM-026-002-N.jpg","1","s","1.28303979997872",1,2,0,2,0
"250054","img/neutralC/CFD-MF-321-003-N.jpg","1","s","1.63978980001411",1,2,0,2,0
"250054","img/neutralC/CFD-AF-239-171-N.jpg","1","s","2.7514917999797",1,2,0,2,0
"250054","img/neutralC/CFD-WF-208-068-N.jpg","0","k","2.6042754999944",1,2,0,2,0
"250054","img/neutralC/CFD-IF-718-001-N.jpg","1","s","1.36968539998634",1,2,0,2,0
"250054","img/neutralC/CFD-LM-213-061-N.jpg","0","k","2.37316650000867",1,2,0,2,0
"250054","img/neutralC/CFD-IM-689-263-N.jpg","0","s","1.87612309999531",1,2,0,2,0
"250054","img/neutralC/CFD-WM-228-065-N.jpg","0","s","4.02582439998514",1,2,0,2,0
"250054","img/neutralC/CFD-IF-634-382-N.jpg","1","s","1.86478639999405",1,2,0,2,0
"250054","img/neutralC/CFD-IM-627-178-N.jpg","1","s","1.60041600000113",1,2,0,2,0
"250054","img/neutralC/CFD-WM-019-003-N.jpg","0","s","1.94988560001366",1,2,0,2,0
"250054","img/neutralC/CFD-WF-200-099-N.jpg","1","k","1.20702849997906",1,2,0,2,0
"250054","img/neutralC/CFD-BF-218-207-N.jpg","0","k","1.65273849997902",1,2,0,2,0
"250054","img/neutralC/CFD-LF-224-176-N.jpg","0","k","1.29462709999643",1,2,0,2,0
"250054","img/neutralC/CFD-WF-023-003-N.jpg","1","s","1.47830720001366",1,2,0,2,0
"250054","img/neutralC/CFD-BM-207-024-N.jpg","1","s","1.40929849998793",1,2,0,2,0
"250054","img/neutralC/CFD-BF-051-035-N.jpg","0","k","2.57707979998668",1,2,0,2,0
"250054","img/neutralC/CFD-BM-015-015-N.jpg","0","k","1.48251840000739",1,2,0,2,0
"250054","img/neutralC/CFD-IM-651-308-N.jpg","1","k","1.4636210000026",1,2,0,2,0
"250054","img/neutralC/CFD-WM-219-008-N.jpg","1","k","1.3680118000193",1,2,0,2,0
"250054","img/neutralC/CFD-MM-319-052-N.jpg","0","k","2.88246940000681",1,2,0,2,0
"250054","img/neutralC/CFD-WM-009-002-N.jpg","0","s","1.82250070001464",1,2,0,2,0
"250054","img/neutralC/CFD-WM-213-076-N.jpg","1","s","2.80632309999783",1,3,0,2,0
"250054","img/neutralC/CFD-AM-242-176-N.jpg","1","s","1.73019420000492",1,3,0,2,0
"250054","img/neutralC/CFD-IF-673-389-N.jpg","1","k","2.49177779999445",1,3,0,2,0
"250054","img/neutralC/CFD-WM-254-152-N.jpg","1","s","2.99341480000294",1,3,0,2,0
"250054","img/neutralC/CFD-BF-027-002-N.jpg","1","s","3.28630140001769",1,3,0,2,0
"250054","img/neutralC/CFD-AM-251-124-N.jpg","1","k","1.08311229999526",1,3,0,2,0
"250054","img/neutralC/CFD-AM-212-050-N.jpg","1","s","2.03791149999597",1,3,0,2,0
"250054","img/neutralC/CFD-BM-039-029-N.jpg","1","k","1.14091940000071",1,3,0,2,0
"250054","img/neutralC/CFD-BM-251-013-N.jpg","1","s","1.53459929997916",1,3,0,2,0
"250054","img/neutralC/CFD-MM-321-021-N.jpg","1","k","2.3202565999818",1,3,0,2,0
"250054","img/neutralC/CFD-IM-738-191-N.jpg","0","s","1.83596079997369",1,3,0,2,0
"250054","img/neutralC/CFD-BF-038-037-N.jpg","0","k","2.44514090000303",1,3,0,2,0
"250054","img/neutralC/CFD-LF-206-078-N.jpg","1","k","1.31219569998211",1,3,0,2,0
"250054","img/neutralC/CFD-WF-008-002-N.jpg","0","k","1.63282909998088",1,3,0,2,0
"250054","img/neutralC/CFD-BF-033-028-N.jpg","0","k","1.36795240000356",1,3,0,2,0
"250054","img/neutralC/CFD-BF-025-002-N.jpg","0","s","1.61083039999357",1,3,0,2,0
"250054","img/neutralC/CFD-BF-208-266-N.jpg","0","s","3.17226329998812",1,3,0,2,0
"250054","img/neutralC/CFD-AF-232-078-N.jpg","0","s","2.55677729999297",1,3,0,2,0
"250054","img/neutralC/CFD-WM-202-107-N.jpg","0","s","3.41230379999615",1,3,0,2,0
"250054","img/neutralC/CFD-WF-036-023-N.jpg","0","k","1.73224099999061",1,3,0,2,0
"250054","img/neutralC/CFD-BF-018-039-N.jpg","0","k","1.84375950001413",1,3,0,2,0
"250054","img/neutralC/CFD-WM-209-038-N.jpg","0","s","2.10127859999193",1,3,0,2,0
"250054","img/neutralC/CFD-AM-225-102-N.jpg","0","s","3.53958789998433",1,3,0,2,0
"250054","img/neutralC/CFD-WM-014-002-N.jpg","0","s","2.05735829999321",1,3,0,2,0
"250054","img/neutralC/CFD-IM-659-359-N.jpg","0","k","2.4593488999817",1,3,0,2,0
"250054","img/neutralC/CFD-IM-680-369-N.jpg","1","k","1.24417920000269",1,3,0,2,0
"250054","img/neutralC/CFD-LM-216-082-N.jpg","0","k","1.05566320000798",1,3,0,2,0
"250054","img/neutralC/CFD-AF-227-207-N.jpg","1","s","3.43817220002529",1,3,0,2,0
"250054","img/neutralC/CFD-LM-204-001-N.jpg","0","s","2.12605630001053",1,3,0,2,0
"250054","img/neutralC/CFD-IF-677-452-1-N.jpg","1","k","1.13553910001065",1,3,0,2,0
"250054","img/neutralC/CFD-IM-639-263-N.jpg","1","k","3.63925729997572",1,3,0,2,0
"250054","img/neutralC/CFD-BF-238-190-N.jpg","0","s","2.05312500000582",1,3,0,2,0
"250054","img/neutralC/CFD-BF-004-014-N.jpg","1","k","2.10263430001214",1,3,0,2,0
"250054","img/neutralC/CFD-LF-255-088-N.jpg","0","k","2.80946699998458",1,3,0,2,0
"250054","img/neutralC/CFD-AF-213-126-N.jpg","1","s","1.98823339998489",1,3,0,2,0
"250054","img/neutralC/CFD-AF-244-168-N.jpg","1","k","1.32366189997992",1,3,0,2,0
"250054","img/neutralC/CFD-LM-217-162-N.jpg","1","s","1.57302769998205",1,3,0,2,0
"250054","img/neutralC/CFD-BF-255-140-N.jpg","1","k","1.60275769999134",1,3,0,2,0
"250054","img/neutralC/CFD-LF-241-188-N.jpg","0","s","2.50130790000549",1,3,0,2,0
"250054","img/neutralC/CFD-WM-258-125-N.jpg","1","s","1.98807809999562",1,3,0,2,0
"250054","img/neutralC/CFD-WM-038-003-N.jpg","0","k","2.38560710000456",1,3,0,2,0
"250054","img/neutralC/CFD-MM-316-156-N.jpg","1","s","1.12498659998528",1,3,0,2,0
"250054","img/neutralC/CFD-BF-045-003-N.jpg","1","s","2.27137599998969",1,3,0,2,0
"250054","img/neutralC/CFD-BF-003-003-N.jpg","1","s","1.88995949999662",1,3,0,2,0
"250054","img/neutralC/CFD-WM-255-219-N.jpg","1","k","1.46678350001457",1,3,0,2,0
"250054","img/neutralC/CFD-WF-026-002-N.jpg","1","k","2.42690249998122",1,3,0,2,0
"250054","img/neutralC/CFD-BM-005-003-N.jpg","1","s","1.7915442000085",1,3,0,2,0
"250054","img/neutralC/CFD-IM-701-312-N.jpg","1","s","2.17380210000556",1,3,0,2,0
"250054","img/neutralC/CFD-BF-028-001-N.jpg","0","k","1.85421549997409",1,4,0,2,0
"250054","img/neutralC/CFD-AM-245-111-N.jpg","1","k","2.19688719999977",1,4,0,2,0
"250054","img/neutralC/CFD-WF-209-052-N.jpg","0","k","1.45629869998083",1,4,0,2,0
"250054","img/neutralC/CFD-WF-238-023-N.jpg","1","s","4.65950210002484",1,4,0,2,0
"250054","img/neutralC/CFD-IM-703-182-N.jpg","1","k","1.03075779997744",1,4,0,2,0
"250054","img/neutralC/CFD-WF-006-002-N.jpg","0","s","1.89574089998496",1,4,0,2,0
"250054","img/neutralC/CFD-AM-230-150-N.jpg","1","s","1.83154069999",1,4,0,2,0
"250054","img/neutralC/CFD-WM-006-002-N.jpg","0","s","1.60073209999246",1,4,0,2,0
"250054","img/neutralC/CFD-BF-212-315-N.jpg","0","k","2.00396819997695",1,4,0,2,0
"250054","img/neutralC/CFD-LM-200-045-N.jpg","0","s","1.75208949999069",1,4,0,2,0
"250054","img/neutralC/CFD-WF-226-095-N.jpg","0","s","1.77390850000666",1,4,0,2,0
"250054","img/neutralC/CFD-AF-229-160-N.jpg","1","s","2.40404799999669",1,4,0,2,0
"250054","img/neutralC/CFD-BM-013-002-N.jpg","0","s","2.9003248999943",1,4,0,2,0
"250054","img/neutralC/CFD-IM-675-015-N.jpg","0","k","1.38050139998086",1,4,0,2,0
"250054","img/neutralC/CFD-LM-243-075-N.jpg","1","k","3.08798420001403",1,4,0,2,0
"250054","img/neutralC/CFD-BF-226-119-N.jpg","0","s","1.47531189999427",1,4,0,2,0
"250054","img/neutralC/CFD-BF-002-001-N.jpg","1","k","2.49463519998244",1,4,0,2,0
"250054","img/neutralC/CFD-WM-253-119-N.jpg","1","s","1.9942699999956",1,4,0,2,0
"250054","img/neutralC/CFD-LM-218-183-N.jpg","1","s","1.46960539999418",1,4,0,2,0
"250054","img/neutralC/CFD-LM-226-175-N.jpg","0","s","2.82331959999283",1,4,0,2,0
"250054","img/neutralC/CFD-MF-301-024-N.jpg","0","k","2.28895650000777",1,4,0,2,0
"250054","img/neutralC/CFD-AF-215-70-N.jpg","1","s","2.07375229999889",1,4,0,2,0
"250054","img/neutralC/CFD-IM-696-001-N.jpg","1","s","1.98098700001719",1,4,0,2,0
"250054","img/neutralC/CFD-BM-250-170-N.jpg","0","s","2.04267130000517",1,4,0,2,0
"250054","img/neutralC/CFD-AF-221-147-N.jpg","1","k","1.45402010000544",1,4,0,2,0
"250054","img/neutralC/CFD-MF-335-002-N.jpg","0","k","1.66838489999645",1,4,0,2,0
"250054","img/neutralC/CFD-WM-024-015-N.jpg","1","s","1.46525550002116",1,4,0,2,0
"250054","img/neutralC/CFD-BF-020-002-N.jpg","1","k","1.44392890000017",1,4,0,2,0
"250054","img/neutralC/CFD-LF-212-066-N.jpg","1","s","2.00705499999458",1,4,0,2,0
"250054","img/neutralC/CFD-LF-222-147-N.jpg","0","s","2.14935330001754",1,4,0,2,0
"250054","img/neutralC/CFD-BF-232-187-N.jpg","0","s","3.9651180000219",1,4,0,2,0
"250054","img/neutralC/CFD-WF-007-001-N.jpg","0","k","2.20663679999416",1,4,0,2,0
"250054","img/neutralC/CFD-LF-208-127-N.jpg","0","s","1.70520830000169",1,4,0,2,0
"250054","img/neutralC/CFD-MF-318-022-N.jpg","1","k","0.998089400003664",1,4,0,2,0
"250054","img/neutralC/CFD-LM-238-129-N.jpg","1","s","0.89808820001781",1,4,0,2,0
"250054","img/neutralC/CFD-LF-214-090-N.jpg","0","k","1.36602419998962",1,4,0,2,0
"250054","img/neutralC/CFD-BM-247-240-N.jpg","1","s","1.80460490001133",1,4,0,2,0
"250054","img/neutralC/CFD-AM-247-165-N.jpg","0","k","3.15385060000699",1,4,0,2,0
"250054","img/neutralC/CFD-BM-001-014-N.jpg","1","k","1.49802820000332",1,4,0,2,0
"250054","img/neutralC/CFD-LM-219-295-N.jpg","0","s","2.56021300001885",1,4,0,2,0
"250054","img/neutralC/CFD-BF-039-031-N.jpg","1","k","1.23982260000776",1,4,0,2,0
"250054","img/neutralC/CFD-BF-010-001-N.jpg","1","s","1.39915589999873",1,4,0,2,0
"250054","img/neutralC/CFD-BM-018-001-N.jpg","0","k","2.58547990000807",1,4,0,2,0
"250054","img/neutralC/CFD-AM-235-241-N.jpg","0","s","1.99877479998395",1,4,0,2,0
"250054","img/neutralC/CFD-AF-237-223-N.jpg","1","s","1.95837790000951",1,4,0,2,0
"250054","img/neutralC/CFD-WM-018-002-N.jpg","1","k","4.59527539997362",1,4,0,2,0
"250054","img/neutralC/CFD-MF-309-002-N.jpg","1","s","2.5418658000126",1,4,0,2,0
"250054","img/neutralC/CFD-WF-235-121-N.jpg","0","s","1.54271750000771",1,4,0,2,0
"250054","img/neutralC/CFD-WF-029-002-N.jpg","0","s","1.56834379999782",1,5,0,2,0
"250054","img/neutralC/CFD-AM-236-090-N.jpg","1","s","1.69018320000032",1,5,0,2,0
"250054","img/neutralC/CFD-LF-203-066-N.jpg","1","s","1.7080100000021",1,5,0,2,0
"250054","img/neutralC/CFD-AF-205-155-N.jpg","1","s","1.5475507999945",1,5,0,2,0
"250054","img/neutralC/CFD-BF-041-001-N.jpg","1","k","2.82732349997968",1,5,0,2,0
"250054","img/neutralC/CFD-LM-244-068-N.jpg","0","s","1.7111017999996",1,5,0,2,0
"250054","img/neutralC/CFD-BM-027-001-N.jpg","0","s","5.7521332000033",1,5,0,2,0
"250054","img/neutralC/CFD-WF-002-004-N.jpg","0","k","1.11760300002061",1,5,0,2,0
"250054","img/neutralC/CFD-WF-228-196-N.jpg","0","k","1.63317009998718",1,5,0,2,0
"250054","img/neutralC/CFD-BF-202-109-N.jpg","0","k","2.42038520000642",1,5,0,2,0
"250054","img/neutralC/CFD-AF-240-206-N.jpg","1","s","1.29489640000975",1,5,0,2,0
"250054","img/neutralC/CFD-AF-254-167-N.jpg","1","s","2.09016889997292",1,5,0,2,0
"250054","img/neutralC/CFD-IM-743-006-N.jpg","1","s","2.02111699999659",1,5,0,2,0
"250054","img/neutralC/CFD-BF-014-002-N.jpg","1","s","1.37207030001446",1,5,0,2,0
"250054","img/neutralC/CFD-BF-207-004-N.jpg","0","s","2.39649750001263",1,5,0,2,0
"250054","img/neutralC/CFD-IM-606-008-N.jpg","0","k","3.36755059999996",1,5,0,2,0
"250054","img/neutralC/CFD-IM-635-010-N.jpg","0","k","3.26953580000554",1,5,0,2,0
"250054","img/neutralC/CFD-BF-217-189-N.jpg","0","k","1.06707580000511",1,5,0,2,0
"250054","img/neutralC/CFD-MF-336-016-N.jpg","1","s","1.6355104999966",1,5,0,2,0
"250054","img/neutralC/CFD-WF-243-148-N.jpg","1","k","1.3984569000022",1,5,0,2,0
"250054","img/neutralC/CFD-WF-027-003-N.jpg","1","s","2.31578629999422",1,5,0,2,0
"250054","img/neutralC/CFD-WM-225-127-N.jpg","1","k","1.52731899998616",1,5,0,2,0
"250054","img/neutralC/CFD-WF-245-084-N.jpg","1","s","2.01398299998255",1,5,0,2,0
"250054","img/neutralC/CFD-BM-029-024-N.jpg","1","k","1.45097850001184",1,5,0,2,0
"250054","img/neutralC/CFD-WF-221-005-N.jpg","0","k","1.52162710000994",1,5,0,2,0
"250054","img/neutralC/CFD-IF-625-225-N.jpg","1","s","1.97699300001841",1,5,0,2,0
"250054","img/neutralC/CFD-IM-638-250-1-N.jpg","1","k","2.39786680001998",1,5,0,2,0
"250054","img/neutralC/CFD-WM-221-091-N.jpg","0","s","2.14983949999441",1,5,0,2,0
"250054","img/neutralC/CFD-WF-207-014-N.jpg","0","k","1.36939449998317",1,5,0,2,0
"250054","img/neutralC/CFD-IM-684-008-N.jpg","1","s","2.37971829998423",1,5,0,2,0
"250054","img/neutralC/CFD-MF-340-026-N.jpg","1","k","1.2190953999816",1,5,0,2,0
"250054","img/neutralC/CFD-WF-224-099-N.jpg","0","s","2.21033289999468",1,5,0,2,0
"250054","img/neutralC/CFD-LF-242-121-N.jpg","1","k","1.17014660002314",1,5,0,2,0
"250054","img/neutralC/CFD-WF-005-010-N.jpg","0","s","1.85582990001421",1,5,0,2,0
"250054","img/neutralC/CFD-WM-021-001-N.jpg","1","s","1.229209800018",1,5,0,2,0
"250054","img/neutralC/CFD-AF-233-190-N.jpg","1","k","1.11746880001738",1,5,0,2,0
"250054","img/neutralC/CFD-IF-642-295-N.jpg","1","k","2.01041190000251",1,5,0,2,0
"250054","img/neutralC/CFD-WM-249-239-N.jpg","1","k","2.78154100000393",1,5,0,2,0
"250054","img/neutralC/CFD-BF-201-080-N.jpg","1","s","1.34550579998177",1,5,0,2,0
"250054","img/neutralC/CFD-AM-220-134-N.jpg","1","k","1.34380549998605",1,5,0,2,0
"250054","img/neutralC/CFD-BF-236-177-N.jpg","0","s","1.29005979999783",1,5,0,2,0
"250054","img/neutralC/CFD-LF-239-148-N.jpg","0","k","1.62162809999427",1,5,0,2,0
"250054","img/neutralC/CFD-LM-252-076-N.jpg","0","s","1.55829169999924",1,5,0,2,0
"250054","img/neutralC/CFD-MF-328-020-N.jpg","1","k","1.10797589999856",1,5,0,2,0
"250054","img/neutralC/CFD-BF-237-172-N.jpg","0","s","2.29658259998541",1,5,0,2,0
"250054","img/neutralC/CFD-AM-221-184-N.jpg","1","s","3.02426249999553",1,5,0,2,0
"250054","img/neutralC/CFD-BM-010-003-N.jpg","0","k","1.1895340999763",1,5,0,2,0
"250054","img/neutralC/CFD-LF-211-003-N.jpg","0","s","1.49595680000493",1,5,0,2,0
"250054","img/neutralC/CFD-LM-214-165-N.jpg","1","s","2.14108480000868",1,6,0,2,0
"250054","img/neutralC/CFD-BM-021-021-N.jpg","0","k","1.13089159998344",1,6,0,2,0
"250054","img/neutralC/CFD-BF-006-017-N.jpg","1","k","1.50408339998103",1,6,0,2,0
"250054","img/neutralC/CFD-BF-222-240-N.jpg","1","k","1.72942519999924",1,6,0,2,0
"250054","img/neutralC/CFD-WF-222-092-N.jpg","0","k","2.35491369999363",1,6,0,2,0
"250054","img/neutralC/CFD-IM-697-015-N.jpg","1","s","1.31402499999967",1,6,0,2,0
"250054","img/neutralC/CFD-IM-616-214-N.jpg","1","k","2.05356999998912",1,6,0,2,0
"250054","img/neutralC/CFD-IF-629-234-N.jpg","1","s","1.75397689998499",1,6,0,2,0
"250054","img/neutralC/CFD-AF-206-079-N.jpg","1","k","1.48331849998794",1,6,0,2,0
"250054","img/neutralC/CFD-WF-018-017-N.jpg","0","s","1.54348700001719",1,6,0,2,0
"250054","img/neutralC/CFD-LF-210-220-N.jpg","1","k","1.23712700000033",1,6,0,2,0
"250054","img/neutralC/CFD-BM-215-155-N.jpg","1","k","1.3308820000093",1,6,0,2,0
"250054","img/neutralC/CFD-BF-254-201-N.jpg","1","s","1.73036270000739",1,6,0,2,0
"250054","img/neutralC/CFD-IM-646-023-N.jpg","0","k","2.75301489999401",1,6,0,2,0
"250054","img/neutralC/CFD-WF-241-210-N.jpg","1","k","1.76273220000439",1,6,0,2,0
"250054","img/neutralC/CFD-IF-608-390-N.jpg","0","k","1.25076269998681",1,6,0,2,0
"250054","img/neutralC/CFD-LM-233-171-N.jpg","0","s","1.15910379998968",1,6,0,2,0
"250054","img/neutralC/CFD-AM-244-222-N.jpg","0","s","1.27046440000413",1,6,0,2,0
"250054","img/neutralC/CFD-LF-236-221-N.jpg","0","s","1.47312449998572",1,6,0,2,0
"250054","img/neutralC/CFD-IM-719-221-N.jpg","0","k","1.7228921999922",1,6,0,2,0
"250054","img/neutralC/CFD-IF-676-017-N.jpg","1","s","1.69349559998955",1,6,0,2,0
"250054","img/neutralC/CFD-LF-230-203-N.jpg","0","k","0.993702500010841",1,6,0,2,0
"250054","img/neutralC/CFD-IM-615-167-N.jpg","1","k","1.94513460001326",1,6,0,2,0
"250054","img/neutralC/CFD-LF-250-169-N.jpg","1","s","1.90186459998949",1,6,0,2,0
"250054","img/neutralC/CFD-WM-002-009-N.jpg","0","s","2.36441360000754",1,6,0,2,0
"250054","img/neutralC/CFD-BM-243-218-N.jpg","1","k","1.25956369997584",1,6,0,2,0
"250054","img/neutralC/CFD-IM-604-014-N.jpg","1","s","1.76926649999223",1,6,0,2,0
"250054","img/neutralC/CFD-LF-238-154-N.jpg","0","s","1.67738929999177",1,6,0,2,0
"250054","img/neutralC/CFD-BM-241-235-N.jpg","1","k","1.41845949998242",1,6,0,2,0
"250054","img/neutralC/CFD-IM-637-007-N.jpg","0","k","1.04838910000399",1,6,0,2,0
"250054","img/neutralC/CFD-LF-218-072-N.jpg","0","s","1.69852909998735",1,6,0,2,0
"250054","img/neutralC/CFD-AF-202-122-N.jpg","1","k","1.03135409997776",1,6,0,2,0
"250054","img/neutralC/CFD-BM-225-154-N.jpg","1","k","3.0989993000112",1,6,0,2,0
"250054","img/neutralC/CFD-LF-247-051-N.jpg","1","k","1.89924560001236",1,6,0,2,0
"250054","img/neutralC/CFD-WM-041-021-N.jpg","0","k","4.49445840000408",1,6,0,2,0
"250054","img/neutralC/CFD-IM-702-101-N.jpg","1","k","1.30457379997824",1,6,0,2,0
"250054","img/neutralC/CFD-MF-302-027-N.jpg","1","s","1.5392638000194",1,6,0,2,0
"250054","img/neutralC/CFD-BF-253-202-N.jpg","0","s","1.72604139999021",1,6,0,2,0
"250054","img/neutralC/CFD-LM-215-247-N.jpg","1","k","2.44368689999101",1,6,0,2,0
"250054","img/neutralC/CFD-MF-337-026-N.jpg","0","s","1.18026190000819",1,6,0,2,0
"250054","img/neutralC/CFD-WF-223-133-N.jpg","1","s","1.11827560001984",1,6,0,2,0
"250054","img/neutralC/CFD-BF-042-026-N.jpg","0","k","1.6853650000121",1,6,0,2,0
"250054","img/neutralC/CFD-IF-620-218-N.jpg","0","k","2.83627529998193",1,6,0,2,0
"250054","img/neutralC/CFD-LM-253-075-N.jpg","0","k","2.14784339998732",1,6,0,2,0
"250054","img/neutralC/CFD-WM-237-052-N.jpg","1","k","1.39735600000131",1,6,0,2,0
"250054","img/neutralC/CFD-BM-019-002-N.jpg","0","s","2.23830739999539",1,6,0,2,0
"250054","img/neutralC/CFD-BF-214-308-N.jpg","1","s","1.26466909999726",1,6,0,2,0
"250054","img/neutralC/CFD-MF-343-001-N.jpg","0","k","1.48184860000038",1,6,0,2,0
"250054","img/neutralC/CFD-AM-249-163-N.jpg","0","s","2.76607630000217",1,7,0,2,0
"250054","img/neutralC/CFD-IF-742-103-N.jpg","1","k","2.06602860000567",1,7,0,2,0
"250054","img/neutralC/CFD-WF-210-086-N.jpg","0","k","3.10642649998772",1,7,0,2,0
"250054","img/neutralC/CFD-WF-248-129-N.jpg","1","k","2.37594939998235",1,7,0,2,0
"250054","img/neutralC/CFD-IM-706-002-N.jpg","0","k","1.59694980000495",1,7,0,2,0
"250054","img/neutralC/CFD-AM-205-153-N.jpg","0","s","1.33750599998166",1,7,0,2,0
"250054","img/neutralC/CFD-IM-648-337-N.jpg","1","k","1.3173206000065",1,7,0,2,0
"250054","img/neutralC/CFD-BF-206-143-N.jpg","0","k","1.18273010000121",1,7,0,2,0
"250054","img/neutralC/CFD-BM-204-003-N.jpg","1","k","3.09616320001078",1,7,0,2,0
"250054","img/neutralC/CFD-BF-029-031-N.jpg","1","s","1.47752539999783",1,7,0,2,0
"250054","img/neutralC/CFD-WM-040-022-N.jpg","0","k","1.69620340000256",1,7,0,2,0
"250054","img/neutralC/CFD-WF-012-002-N.jpg","1","k","1.32775060000131",1,7,0,2,0
"250054","img/neutralC/CFD-LF-226-174-N.jpg","1","k","1.65477019999526",1,7,0,2,0
"250054","img/neutralC/CFD-WF-214-122-N.jpg","0","s","2.2132861999853",1,7,0,2,0
"250054","img/neutralC/CFD-BM-248-128-N.jpg","0","k","1.97862089998671",1,7,0,2,0
"250054","img/neutralC/CFD-BM-200-046-N.jpg","1","k","1.17256169999018",1,7,0,2,0
"250054","img/neutralC/CFD-WM-026-001-N.jpg","0","k","2.45645420000073",1,7,0,2,0
"250054","img/neutralC/CFD-MF-329-001-N.jpg","1","s","2.02793379998184",1,7,0,2,0
"250054","img/neutralC/CFD-MF-342-022-N.jpg","1","k","2.55812339999829",1,7,0,2,0
"250054","img/neutralC/CFD-MF-357-002-N.jpg","0","s","1.60833469999488",1,7,0,2,0
"250054","img/neutralC/CFD-IM-709-103-N.jpg","0","s","1.60263069998473",1,7,0,2,0
"250054","img/neutralC/CFD-MF-312-002-N.jpg","1","k","1.28414679999696",1,7,0,2,0
"250054","img/neutralC/CFD-WM-025-002-N.jpg","1","k","1.16398699997808",1,7,0,2,0
"250054","img/neutralC/CFD-MF-303-013-N.jpg","1","k","1.14806000000681",1,7,0,2,0
"250054","img/neutralC/CFD-LF-205-100-N.jpg","1","k","1.85150099999737",1,7,0,2,0
"250054","img/neutralC/CFD-MF-316-001-N.jpg","1","s","1.73921309999423",1,7,0,2,0
"250054","img/neutralC/CFD-IF-729-393-N.jpg","1","k","1.26797749998514",1,7,0,2,0
"250054","img/neutralC/CFD-BM-211-174-N.jpg","1","k","3.56087130002561",1,7,0,2,0
"250054","img/neutralC/CFD-BF-224-002-N.jpg","0","s","1.05938949997653",1,7,0,2,0
"250054","img/neutralC/CFD-IM-653-008-N.jpg","1","s","1.18235149999964",1,7,0,2,0
"250054","img/neutralC/CFD-WF-009-001-N.jpg","0","k","3.42998589997296",1,7,0,2,0
"250054","img/neutralC/CFD-BM-212-117-N.jpg","1","k","1.38129319998552",1,7,0,2,0
"250054","img/neutralC/CFD-LM-225-130-N.jpg","1","k","2.59734049998224",1,7,0,2,0
"250054","img/neutralC/CFD-BF-213-188-N.jpg","1","k","1.38490679999813",1,7,0,2,0
"250054","img/neutralC/CFD-BM-033-003-N.jpg","1","k","2.54947290002019",1,7,0,2,0
"250054","img/neutralC/CFD-MF-327-002-N.jpg","1","k","2.89413709999644",1,7,0,2,0
"250054","img/neutralC/CFD-IM-685-004-N.jpg","1","k","1.39021630000207",1,7,0,2,0
"250054","img/neutralC/CFD-IF-732-260-N.jpg","1","k","2.01894129998982",1,7,0,2,0
"250054","img/neutralC/CFD-WM-257-161-N.jpg","0","s","2.1813717999903",1,7,0,2,0
"250054","img/neutralC/CFD-IM-727-195-N.jpg","0","s","1.82485860001179",1,7,0,2,0
"250054","img/neutralC/CFD-IM-721-341-N.jpg","1","k","1.1326468999905",1,7,0,2,0
"250054","img/neutralC/CFD-AM-201-076-N.jpg","1","k","1.40508930000942",1,7,0,2,0
"250054","img/neutralC/CFD-WM-232-070-N.jpg","1","k","1.27059339999687",1,7,0,2,0
"250054","img/neutralC/CFD-AM-243-212-N.jpg","1","s","3.22959390000324",1,7,0,2,0
"250054","img/neutralC/CFD-AF-241-141-N.jpg","0","k","1.97889900000882",1,7,0,2,0
"250054","img/neutralC/CFD-AF-210-050-N.jpg","1","s","1.80624919998809",1,7,0,2,0
"250054","img/neutralC/CFD-IF-650-315-N.jpg","1","k","1.30120149999857",1,7,0,2,0
"250054","img/neutralC/CFD-LF-220-120-N.jpg","1","s","1.793570800015",1,7,0,2,0
"250054","img/neutralC/CFD-IM-726-248-N.jpg","1","k","1.19148039998254",1,8,0,2,0
"250054","img/neutralC/CFD-AF-231-357-N.jpg","1","s","1.96725770001649",1,8,0,2,0
"250054","img/neutralC/CFD-WF-017-003-N.jpg","0","k","1.05632829997921",1,8,0,2,0
"250054","img/neutralC/CFD-MF-359-019-N.jpg","1","k","1.66399890001048",1,8,0,2,0
"250054","img/neutralC/CFD-AM-215-120-N.jpg","0","k","2.12128179997671",1,8,0,2,0
"250054","img/neutralC/CFD-AM-217-085-N.jpg","0","s","1.5626717999985",1,8,0,2,0
"250054","img/neutralC/CFD-WM-235-147-N.jpg","1","k","1.72641019997536",1,8,0,2,0
"250054","img/neutralC/CFD-BM-231-155-N.jpg","0","s","2.80118480001693",1,8,0,2,0
"250054","img/neutralC/CFD-WM-201-063-N.jpg","0","k","0.967635300010443",1,8,0,2,0
"250054","img/neutralC/CFD-MF-352-054-N.jpg","1","s","2.53095339998254",1,8,0,2,0
"250054","img/neutralC/CFD-IF-623-129-N.jpg","1","s","2.13826000000699",1,8,0,2,0
"250054","img/neutralC/CFD-BF-235-168-N.jpg","1","s","1.45406799999182",1,8,0,2,0
"250054","img/neutralC/CFD-LF-215-157-N.jpg","0","k","1.19912269999622",1,8,0,2,0
"250054","img/neutralC/CFD-BF-229-179-N.jpg","0","k","3.89952929998981",1,8,0,2,0
"250054","img/neutralC/CFD-LM-201-057-N.jpg","0","k","1.11457700000028",1,8,0,2,0
"250054","img/neutralC/CFD-WF-212-050-N.jpg","0","k","2.21361900001648",1,8,0,2,0
"250054","img/neutralC/CFD-BM-028-002-N.jpg","0","k","3.23919009999372",1,8,0,2,0
"250054","img/neutralC/CFD-MM-324-069-N.jpg","1","k","2.28487989999121",1,8,0,2,0
"250054","img/neutralC/CFD-LM-228-188-N.jpg","1","s","1.57374589997926",1,8,0,2,0
"250054","img/neutralC/CFD-WM-013-001-N.jpg","1","s","1.24220400000922",1,8,0,2,0
"250054","img/neutralC/CFD-WM-218-074-N.jpg","1","s","3.08951449999586",1,8,0,2,0
"250054","img/neutralC/CFD-IF-636-011-N.jpg","1","s","1.86372429999756",1,8,0,2,0
"250054","img/neutralC/CFD-IM-686-097-N.jpg","1","s","1.84792679999373",1,8,0,2,0
"250054","img/neutralC/CFD-IM-728-041-N.jpg","1","s","1.25921099999687",1,8,0,2,0
"250054","img/neutralC/CFD-BF-011-002-N.jpg","0","k","2.84928490000311",1,8,0,2,0
"250054","img/neutralC/CFD-WM-011-002-N.jpg","1","k","1.94980020000366",1,8,0,2,0
"250054","img/neutralC/CFD-WF-022-017-N.jpg","1","k","1.59055669998634",1,8,0,2,0
"250054","img/neutralC/CFD-BM-041-035-N.jpg","1","s","1.2712584999972",1,8,0,2,0
"250054","img/neutralC/CFD-BF-023-010-N.jpg","1","s","1.65983380001853",1,8,0,2,0
"250054","img/neutralC/CFD-BF-040-003-N.jpg","1","s","1.86884959999588",1,8,0,2,0
"250054","img/neutralC/CFD-IF-626-375-N.jpg","1","k","2.3909108999942",1,8,0,2,0
"250054","img/neutralC/CFD-AF-234-208-N.jpg","1","s","2.21887459998834",1,8,0,2,0
"250054","img/neutralC/CFD-BF-228-212-N.jpg","1","k","1.28179460001411",1,8,0,2,0
"250054","img/neutralC/CFD-WF-217-085-N.jpg","0","s","1.90285169999697",1,8,0,2,0
"250054","img/neutralC/CFD-BM-043-071-N.jpg","1","k","1.34556270000758",1,8,0,2,0
"250054","img/neutralC/CFD-BM-205-001-N.jpg","1","s","2.08022809997783",1,8,0,2,0
"250054","img/neutralC/CFD-BF-204-189-N.jpg","0","s","1.87522529999842",1,8,0,2,0
"250054","img/neutralC/CFD-BF-247-179-N.jpg","0","k","4.58650190001936",1,8,0,2,0
"250054","img/neutralC/CFD-BF-036-027-N.jpg","1","k","1.59715889999643",1,8,0,2,0
"250054","img/neutralC/CFD-LF-201-035-N.jpg","1","k","1.23475419997703",1,8,0,2,0
"250054","img/neutralC/CFD-IM-645-001-N.jpg","1","k","2.73876730000484",1,8,0,2,0
"250054","img/neutralC/CFD-BF-244-231-N.jpg","0","s","1.32042259999434",1,8,0,2,0
"250054","img/neutralC/CFD-IF-619-197-N.jpg","1","k","1.23133310000412",1,8,0,2,0
"250054","img/neutralC/CFD-MM-317-061-N.jpg","0","k","3.30930690001696",1,8,0,2,0
"250054","img/neutralC/CFD-MF-333-012-N.jpg","0","s","1.28010249999352",1,8,0,2,0
"250054","img/neutralC/CFD-IM-678-482-N.jpg","1","k","1.63948540002457",1,8,0,2,0
"250054","img/neutralC/CFD-LM-240-013-N.jpg","1","s","2.11820379999699",1,8,0,2,0
"250054","img/neutralC/CFD-LF-216-121-N.jpg","1","s","1.18679199999315",1,8,0,2,0
