"participant_id","current_trial_face","pre_trial_face","post_trial_face","current_trial_accuracy","pre_trial_accuracy","post_trial_accuracy","current_trial_congruency","pre_trial_congruency","post_trial_congruency","current_trial_rt","pre_trial_rt","post_trial_rt","current_trial_responded","pre_trial_responded","post_trial_responded","current_trial_legitResponse","pre_trial_legitResponse","post_trial_legitResponse","current_trial_resp_nums","pre_trial_resp_nums","post_trial_resp_nums"
"250012","img/neutralC/CFD-WF-224-099-N.jpg",NA,"img/neutralC/CFD-BF-213-188-N.jpg","1",NA,"1","0",NA,"1","1.21888750000016",NA,"0.740757200000189","1",NA,"1","1",NA,"1","1",NA,"1"
"250012","img/neutralC/CFD-BF-213-188-N.jpg","img/neutralC/CFD-WF-224-099-N.jpg","img/neutralC/CFD-BM-239-136-N.jpg","1","1","1","1","0","1","0.740757200000189","1.21888750000016","0.632363799998529","1","1","1","1","1","1","1","1","1"
"250012","img/neutralC/CFD-BM-239-136-N.jpg","img/neutralC/CFD-BF-213-188-N.jpg","img/neutralC/CFD-MM-316-156-N.jpg","1","1","1","1","1","1","0.632363799998529","0.740757200000189","0.636318800000481","1","1","1","1","1","1","1","1","1"
"250012","img/neutralC/CFD-MM-316-156-N.jpg","img/neutralC/CFD-BM-239-136-N.jpg","img/neutralC/CFD-IM-651-308-N.jpg","1","1","1","1","1","0","0.636318800000481","0.632363799998529","0.623849799999334","1","1","1","1","1","1","1","1","1"
"250012","img/neutralC/CFD-IM-651-308-N.jpg","img/neutralC/CFD-MM-316-156-N.jpg","img/neutralC/CFD-AM-212-050-N.jpg","1","1","1","0","1","1","0.623849799999334","0.636318800000481","0.462674999999763","1","1","1","1","1","1","1","1","1"
"250012","img/neutralC/CFD-AM-212-050-N.jpg","img/neutralC/CFD-IM-651-308-N.jpg","img/neutralC/CFD-BM-033-003-N.jpg","1","1","1","1","0","0","0.462674999999763","0.623849799999334","0.532411400000456","1","1","1","1","1","1","1","1","1"
"250012","img/neutralC/CFD-BM-033-003-N.jpg","img/neutralC/CFD-AM-212-050-N.jpg","img/neutralC/CFD-BM-019-002-N.jpg","1","1","1","0","1","0","0.532411400000456","0.462674999999763","0.7420405999992","1","1","1","1","1","1","1","1","1"
"250012","img/neutralC/CFD-BM-019-002-N.jpg","img/neutralC/CFD-BM-033-003-N.jpg","img/neutralC/CFD-LM-215-247-N.jpg","1","1","1","0","0","0","0.7420405999992","0.532411400000456","0.550049299999046","1","1","1","1","1","1","1","1","1"
"250012","img/neutralC/CFD-LM-215-247-N.jpg","img/neutralC/CFD-BM-019-002-N.jpg","img/neutralC/CFD-BF-029-031-N.jpg","1","1","1","0","0","1","0.550049299999046","0.7420405999992","0.45811440000125","1","1","1","1","1","1","1","1","1"
"250012","img/neutralC/CFD-BF-029-031-N.jpg","img/neutralC/CFD-LM-215-247-N.jpg","img/neutralC/CFD-BF-205-141-N.jpg","1","1","1","1","0","0","0.45811440000125","0.550049299999046","0.518100799999047","1","1","1","1","1","1","1","1","1"
"250012","img/neutralC/CFD-BF-205-141-N.jpg","img/neutralC/CFD-BF-029-031-N.jpg","img/neutralC/CFD-BF-039-031-N.jpg","1","1","1","0","1","1","0.518100799999047","0.45811440000125","0.460013400000207","1","1","1","1","1","1","1","1","1"
"250012","img/neutralC/CFD-BF-039-031-N.jpg","img/neutralC/CFD-BF-205-141-N.jpg","img/neutralC/CFD-AF-231-357-N.jpg","1","1","1","1","0","1","0.460013400000207","0.518100799999047","0.553233499999806","1","1","1","1","1","1","1","1","1"
"250012","img/neutralC/CFD-AF-231-357-N.jpg","img/neutralC/CFD-BF-039-031-N.jpg","img/neutralC/CFD-WF-213-031-N.jpg","1","1","1","1","1","1","0.553233499999806","0.460013400000207","0.538881899999069","1","1","1","1","1","1","1","1","1"
"250012","img/neutralC/CFD-WF-213-031-N.jpg","img/neutralC/CFD-AF-231-357-N.jpg","img/neutralC/CFD-LF-224-176-N.jpg","1","1","1","1","1","0","0.538881899999069","0.553233499999806","0.464621300000545","1","1","1","1","1","1","1","1","1"
"250012","img/neutralC/CFD-LF-224-176-N.jpg","img/neutralC/CFD-WF-213-031-N.jpg","img/neutralC/CFD-LF-230-203-N.jpg","1","1","1","0","1","0","0.464621300000545","0.538881899999069","0.592959700000392","1","1","1","1","1","1","1","1","1"
"250012","img/neutralC/CFD-LF-230-203-N.jpg","img/neutralC/CFD-LF-224-176-N.jpg","img/neutralC/CFD-IF-710-016-N.jpg","1","1","1","0","0","0","0.592959700000392","0.464621300000545","0.556133699999009","1","1","1","1","1","1","1","1","1"
"250012","img/neutralC/CFD-IF-710-016-N.jpg","img/neutralC/CFD-LF-230-203-N.jpg","img/neutralC/CFD-AM-201-076-N.jpg","1","1","1","0","0","1","0.556133699999009","0.592959700000392","0.449556900000061","1","1","1","1","1","1","1","1","1"
"250012","img/neutralC/CFD-AM-201-076-N.jpg","img/neutralC/CFD-IF-710-016-N.jpg","img/neutralC/CFD-WM-021-001-N.jpg","1","1","1","1","0","1","0.449556900000061","0.556133699999009","0.519797599999038","1","1","1","1","1","1","1","1","1"
"250012","img/neutralC/CFD-WM-021-001-N.jpg","img/neutralC/CFD-AM-201-076-N.jpg","img/neutralC/CFD-LF-205-100-N.jpg","1","1","1","1","1","1","0.519797599999038","0.449556900000061","0.429571300000134","1","1","1","1","1","1","1","1","1"
"250012","img/neutralC/CFD-LF-205-100-N.jpg","img/neutralC/CFD-WM-021-001-N.jpg","img/neutralC/CFD-IF-634-382-N.jpg","1","1","1","1","1","1","0.429571300000134","0.519797599999038","0.511856799998895","1","1","1","1","1","1","1","1","1"
"250012","img/neutralC/CFD-IF-634-382-N.jpg","img/neutralC/CFD-LF-205-100-N.jpg","img/neutralC/CFD-WM-011-002-N.jpg","1","1","1","1","1","0","0.511856799998895","0.429571300000134","0.496697399998993","1","1","1","1","1","1","1","1","1"
"250012","img/neutralC/CFD-WM-011-002-N.jpg","img/neutralC/CFD-IF-634-382-N.jpg","img/neutralC/CFD-MF-337-026-N.jpg","1","1","1","0","1","1","0.496697399998993","0.511856799998895","0.477467300000171","1","1","1","1","1","1","1","1","1"
"250012","img/neutralC/CFD-MF-337-026-N.jpg","img/neutralC/CFD-WM-011-002-N.jpg","img/neutralC/CFD-LM-218-183-N.jpg","1","1","1","1","0","1","0.477467300000171","0.496697399998993","0.487633199999436","1","1","1","1","1","1","1","1","1"
"250012","img/neutralC/CFD-LM-218-183-N.jpg","img/neutralC/CFD-MF-337-026-N.jpg","img/neutralC/CFD-LF-203-066-N.jpg","1","1","1","1","1","0","0.487633199999436","0.477467300000171","0.501027399998748","1","1","1","1","1","1","1","1","1"
"250012","img/neutralC/CFD-LF-203-066-N.jpg","img/neutralC/CFD-LM-218-183-N.jpg","img/neutralC/CFD-IM-684-008-N.jpg","1","1","1","0","1","1","0.501027399998748","0.487633199999436","0.555132599999524","1","1","1","1","1","1","1","1","1"
"250012","img/neutralC/CFD-IM-684-008-N.jpg","img/neutralC/CFD-LF-203-066-N.jpg","img/neutralC/CFD-IF-693-172-N.jpg","1","1","1","1","0","0","0.555132599999524","0.501027399998748","0.482874199999969","1","1","1","1","1","1","1","1","1"
"250012","img/neutralC/CFD-IF-693-172-N.jpg","img/neutralC/CFD-IM-684-008-N.jpg","img/neutralC/CFD-WF-250-167-N.jpg","1","1","1","0","1","1","0.482874199999969","0.555132599999524","0.449669500000709","1","1","1","1","1","1","1","1","1"
"250012","img/neutralC/CFD-WF-250-167-N.jpg","img/neutralC/CFD-IF-693-172-N.jpg","img/neutralC/CFD-BF-253-202-N.jpg","1","1","1","1","0","0","0.449669500000709","0.482874199999969","0.4470081999998","1","1","1","1","1","1","1","1","1"
"250012","img/neutralC/CFD-BF-253-202-N.jpg","img/neutralC/CFD-WF-250-167-N.jpg","img/neutralC/CFD-BM-041-035-N.jpg","1","1","1","0","1","0","0.4470081999998","0.449669500000709","0.491185199999563","1","1","1","1","1","1","1","1","1"
"250012","img/neutralC/CFD-BM-041-035-N.jpg","img/neutralC/CFD-BF-253-202-N.jpg","img/neutralC/CFD-WM-041-021-N.jpg","1","1","1","0","0","0","0.491185199999563","0.4470081999998","0.566285399999288","1","1","1","1","1","1","1","1","1"
"250012","img/neutralC/CFD-WM-041-021-N.jpg","img/neutralC/CFD-BM-041-035-N.jpg","img/neutralC/CFD-LF-214-090-N.jpg","1","1","1","0","0","0","0.566285399999288","0.491185199999563","0.533259499999076","1","1","1","1","1","1","1","1","1"
"250012","img/neutralC/CFD-LF-214-090-N.jpg","img/neutralC/CFD-WM-041-021-N.jpg",NA,"1","1",NA,"0","0",NA,"0.533259499999076","0.566285399999288",NA,"1","1",NA,"1","1",NA,"1","1",NA
"250012","img/neutralC/CFD-LM-200-045-N.jpg",NA,"img/neutralC/CFD-IM-702-101-N.jpg","1",NA,"1","1",NA,"1","0.508213099999011",NA,"0.412474100000509","1",NA,"1","1",NA,"1","1",NA,"1"
"250012","img/neutralC/CFD-IM-702-101-N.jpg","img/neutralC/CFD-LM-200-045-N.jpg","img/neutralC/CFD-IM-664-651-N.jpg","1","1","1","1","1","1","0.412474100000509","0.508213099999011","0.370287700000517","1","1","1","1","1","1","1","1","1"
"250012","img/neutralC/CFD-IM-664-651-N.jpg","img/neutralC/CFD-IM-702-101-N.jpg","img/neutralC/CFD-IM-706-002-N.jpg","1","1","1","1","1","0","0.370287700000517","0.412474100000509","0.53976319999947","1","1","1","1","1","1","1","1","1"
"250012","img/neutralC/CFD-IM-706-002-N.jpg","img/neutralC/CFD-IM-664-651-N.jpg","img/neutralC/CFD-BF-014-002-N.jpg","1","1","1","0","1","1","0.53976319999947","0.370287700000517","0.337297200000648","1","1","1","1","1","1","1","1","1"
"250012","img/neutralC/CFD-BF-014-002-N.jpg","img/neutralC/CFD-IM-706-002-N.jpg","img/neutralC/CFD-BF-237-172-N.jpg","1","1","1","1","0","1","0.337297200000648","0.53976319999947","0.390342499999861","1","1","1","1","1","1","1","1","1"
"250012","img/neutralC/CFD-BF-237-172-N.jpg","img/neutralC/CFD-BF-014-002-N.jpg","img/neutralC/CFD-WF-030-002-N.jpg","1","1","1","1","1","0","0.390342499999861","0.337297200000648","0.398342900000898","1","1","1","1","1","1","1","1","1"
"250012","img/neutralC/CFD-WF-030-002-N.jpg","img/neutralC/CFD-BF-237-172-N.jpg","img/neutralC/CFD-AM-220-134-N.jpg","1","1","1","0","1","0","0.398342900000898","0.390342499999861","0.501260000000002","1","1","1","1","1","1","1","1","1"
"250012","img/neutralC/CFD-AM-220-134-N.jpg","img/neutralC/CFD-WF-030-002-N.jpg","img/neutralC/CFD-LF-255-088-N.jpg","1","1","1","0","0","0","0.501260000000002","0.398342900000898","0.437928999998803","1","1","1","1","1","1","1","1","1"
"250012","img/neutralC/CFD-LF-255-088-N.jpg","img/neutralC/CFD-AM-220-134-N.jpg","img/neutralC/CFD-IF-660-464-N.jpg","1","1","1","0","0","0","0.437928999998803","0.501260000000002","0.54232470000079","1","1","1","1","1","1","1","1","1"
"250012","img/neutralC/CFD-IF-660-464-N.jpg","img/neutralC/CFD-LF-255-088-N.jpg","img/neutralC/CFD-LM-225-130-N.jpg","1","1","0","0","0","0","0.54232470000079","0.437928999998803","0.484085600000071","1","1","1","1","1","1","1","1","2"
"250012","img/neutralC/CFD-LM-225-130-N.jpg","img/neutralC/CFD-IF-660-464-N.jpg","img/neutralC/CFD-IF-626-375-N.jpg","0","1","1","0","0","0","0.484085600000071","0.54232470000079","0.586372799999481","1","1","1","1","1","1","2","1","1"
"250012","img/neutralC/CFD-IF-626-375-N.jpg","img/neutralC/CFD-LM-225-130-N.jpg","img/neutralC/CFD-MF-303-013-N.jpg","1","0","1","0","0","0","0.586372799999481","0.484085600000071","0.55389120000018","1","1","1","1","1","1","1","2","1"
"250012","img/neutralC/CFD-MF-303-013-N.jpg","img/neutralC/CFD-IF-626-375-N.jpg","img/neutralC/CFD-WF-007-001-N.jpg","1","1","1","0","0","1","0.55389120000018","0.586372799999481","0.4377087999992","1","1","1","1","1","1","1","1","1"
"250012","img/neutralC/CFD-WF-007-001-N.jpg","img/neutralC/CFD-MF-303-013-N.jpg","img/neutralC/CFD-LF-206-078-N.jpg","1","1","1","1","0","1","0.4377087999992","0.55389120000018","0.626184799998555","1","1","1","1","1","1","1","1","1"
"250012","img/neutralC/CFD-LF-206-078-N.jpg","img/neutralC/CFD-WF-007-001-N.jpg","img/neutralC/CFD-AF-233-190-N.jpg","1","1","1","1","1","0","0.626184799998555","0.4377087999992","0.527553199998692","1","1","1","1","1","1","1","1","1"
"250012","img/neutralC/CFD-AF-233-190-N.jpg","img/neutralC/CFD-LF-206-078-N.jpg","img/neutralC/CFD-WF-222-092-N.jpg","1","1","1","0","1","1","0.527553199998692","0.626184799998555","0.494246299999759","1","1","1","1","1","1","1","1","1"
"250012","img/neutralC/CFD-WF-222-092-N.jpg","img/neutralC/CFD-AF-233-190-N.jpg","img/neutralC/CFD-AF-253-130-N.jpg","1","1","1","1","0","1","0.494246299999759","0.527553199998692","0.482410800000252","1","1","1","1","1","1","1","1","1"
"250012","img/neutralC/CFD-AF-253-130-N.jpg","img/neutralC/CFD-WF-222-092-N.jpg","img/neutralC/CFD-IM-667-369-N.jpg","1","1","1","1","1","0","0.482410800000252","0.494246299999759","0.590618999999606","1","1","1","1","1","1","1","1","1"
"250012","img/neutralC/CFD-IM-667-369-N.jpg","img/neutralC/CFD-AF-253-130-N.jpg","img/neutralC/CFD-BM-217-082-N.jpg","1","1","1","0","1","0","0.590618999999606","0.482410800000252","0.489898400000129","1","1","1","1","1","1","1","1","1"
"250012","img/neutralC/CFD-BM-217-082-N.jpg","img/neutralC/CFD-IM-667-369-N.jpg","img/neutralC/CFD-MF-357-002-N.jpg","1","1","1","0","0","0","0.489898400000129","0.590618999999606","0.50821950000045","1","1","1","1","1","1","1","1","1"
"250012","img/neutralC/CFD-MF-357-002-N.jpg","img/neutralC/CFD-BM-217-082-N.jpg","img/neutralC/CFD-BM-001-014-N.jpg","1","1","1","0","0","0","0.50821950000045","0.489898400000129","0.54108449999967","1","1","1","1","1","1","1","1","1"
"250012","img/neutralC/CFD-BM-001-014-N.jpg","img/neutralC/CFD-MF-357-002-N.jpg","img/neutralC/CFD-MF-343-001-N.jpg","1","1","1","0","0","1","0.54108449999967","0.50821950000045","0.412242999999762","1","1","1","1","1","1","1","1","1"
"250012","img/neutralC/CFD-MF-343-001-N.jpg","img/neutralC/CFD-BM-001-014-N.jpg","img/neutralC/CFD-WM-015-002-N.jpg","1","1","1","1","0","0","0.412242999999762","0.54108449999967","0.445946400000139","1","1","1","1","1","1","1","1","1"
"250012","img/neutralC/CFD-WM-015-002-N.jpg","img/neutralC/CFD-MF-343-001-N.jpg","img/neutralC/CFD-WM-209-038-N.jpg","1","1","1","0","1","0","0.445946400000139","0.412242999999762","0.540030899998783","1","1","1","1","1","1","1","1","1"
"250012","img/neutralC/CFD-WM-209-038-N.jpg","img/neutralC/CFD-WM-015-002-N.jpg","img/neutralC/CFD-IM-680-369-N.jpg","1","1","1","0","0","1","0.540030899998783","0.445946400000139","0.482421699999577","1","1","1","1","1","1","1","1","1"
"250012","img/neutralC/CFD-IM-680-369-N.jpg","img/neutralC/CFD-WM-209-038-N.jpg","img/neutralC/CFD-WM-218-074-N.jpg","1","1","1","1","0","1","0.482421699999577","0.540030899998783","0.390190499999335","1","1","1","1","1","1","1","1","1"
"250012","img/neutralC/CFD-WM-218-074-N.jpg","img/neutralC/CFD-IM-680-369-N.jpg","img/neutralC/CFD-WF-244-163-N.jpg","1","1","1","1","1","1","0.390190499999335","0.482421699999577","0.47395029999916","1","1","1","1","1","1","1","1","1"
"250012","img/neutralC/CFD-WF-244-163-N.jpg","img/neutralC/CFD-WM-218-074-N.jpg","img/neutralC/CFD-MM-324-069-N.jpg","1","1","1","1","1","1","0.47395029999916","0.390190499999335","0.534373100000266","1","1","1","1","1","1","1","1","1"
"250012","img/neutralC/CFD-MM-324-069-N.jpg","img/neutralC/CFD-WF-244-163-N.jpg","img/neutralC/CFD-MF-305-014-N.jpg","1","1","1","1","1","1","0.534373100000266","0.47395029999916","0.468624499998441","1","1","1","1","1","1","1","1","1"
"250012","img/neutralC/CFD-MF-305-014-N.jpg","img/neutralC/CFD-MM-324-069-N.jpg","img/neutralC/CFD-MF-316-001-N.jpg","1","1","1","1","1","0","0.468624499998441","0.534373100000266","0.526167600000008","1","1","1","1","1","1","1","1","1"
"250012","img/neutralC/CFD-MF-316-001-N.jpg","img/neutralC/CFD-MF-305-014-N.jpg","img/neutralC/CFD-BM-250-170-N.jpg","1","1","1","0","1","1","0.526167600000008","0.468624499998441","0.527615699999842","1","1","1","1","1","1","1","1","1"
"250012","img/neutralC/CFD-BM-250-170-N.jpg","img/neutralC/CFD-MF-316-001-N.jpg",NA,"1","1",NA,"1","0",NA,"0.527615699999842","0.526167600000008",NA,"1","1",NA,"1","1",NA,"1","1",NA
"250012","img/neutralC/CFD-BM-036-003-N.jpg",NA,"img/neutralC/CFD-IF-677-452-1-N.jpg","0",NA,"1","1",NA,"1",NA,NA,"0.477900199998658","0",NA,"1","0",NA,"1","0",NA,"1"
"250012","img/neutralC/CFD-IF-677-452-1-N.jpg","img/neutralC/CFD-BM-036-003-N.jpg","img/neutralC/CFD-BF-247-179-N.jpg","1","0","1","1","1","0","0.477900199998658",NA,"0.551098299999467","1","0","1","1","0","1","1","0","1"
"250012","img/neutralC/CFD-BF-247-179-N.jpg","img/neutralC/CFD-IF-677-452-1-N.jpg","img/neutralC/CFD-MF-301-024-N.jpg","1","1","1","0","1","0","0.551098299999467","0.477900199998658","0.49106429999938","1","1","1","1","1","1","1","1","1"
"250012","img/neutralC/CFD-MF-301-024-N.jpg","img/neutralC/CFD-BF-247-179-N.jpg","img/neutralC/CFD-BF-002-001-N.jpg","1","1","1","0","0","0","0.49106429999938","0.551098299999467","0.537064799999825","1","1","1","1","1","1","1","1","1"
"250012","img/neutralC/CFD-BF-002-001-N.jpg","img/neutralC/CFD-MF-301-024-N.jpg","img/neutralC/CFD-WM-014-002-N.jpg","1","1","1","0","0","0","0.537064799999825","0.49106429999938","0.538281199999801","1","1","1","1","1","1","1","1","1"
"250012","img/neutralC/CFD-WM-014-002-N.jpg","img/neutralC/CFD-BF-002-001-N.jpg","img/neutralC/CFD-BF-011-002-N.jpg","1","1","1","0","0","1","0.538281199999801","0.537064799999825","0.477299099999982","1","1","1","1","1","1","1","1","1"
"250012","img/neutralC/CFD-BF-011-002-N.jpg","img/neutralC/CFD-WM-014-002-N.jpg","img/neutralC/CFD-BF-027-002-N.jpg","1","1","1","1","0","1","0.477299099999982","0.538281199999801","0.412334400000873","1","1","1","1","1","1","1","1","1"
"250012","img/neutralC/CFD-BF-027-002-N.jpg","img/neutralC/CFD-BF-011-002-N.jpg","img/neutralC/CFD-BF-036-027-N.jpg","1","1","1","1","1","0","0.412334400000873","0.477299099999982","0.527365999999347","1","1","1","1","1","1","1","1","1"
"250012","img/neutralC/CFD-BF-036-027-N.jpg","img/neutralC/CFD-BF-027-002-N.jpg","img/neutralC/CFD-IM-696-001-N.jpg","1","1","1","0","1","0","0.527365999999347","0.412334400000873","0.560401399999137","1","1","1","1","1","1","1","1","1"
"250012","img/neutralC/CFD-IM-696-001-N.jpg","img/neutralC/CFD-BF-036-027-N.jpg","img/neutralC/CFD-LF-204-133-N.jpg","1","1","1","0","0","1","0.560401399999137","0.527365999999347","0.37104829999862","1","1","1","1","1","1","1","1","1"
"250012","img/neutralC/CFD-LF-204-133-N.jpg","img/neutralC/CFD-IM-696-001-N.jpg","img/neutralC/CFD-BF-044-034-N.jpg","1","1","1","1","0","0","0.37104829999862","0.560401399999137","0.546665699998812","1","1","1","1","1","1","1","1","1"
"250012","img/neutralC/CFD-BF-044-034-N.jpg","img/neutralC/CFD-LF-204-133-N.jpg","img/neutralC/CFD-IM-726-248-N.jpg","1","1","1","0","1","0","0.546665699998812","0.37104829999862","0.51441049999903","1","1","1","1","1","1","1","1","1"
"250012","img/neutralC/CFD-IM-726-248-N.jpg","img/neutralC/CFD-BF-044-034-N.jpg","img/neutralC/CFD-WM-248-036-N.jpg","1","1","1","0","0","1","0.51441049999903","0.546665699998812","0.521512800000892","1","1","1","1","1","1","1","1","1"
"250012","img/neutralC/CFD-WM-248-036-N.jpg","img/neutralC/CFD-IM-726-248-N.jpg","img/neutralC/CFD-WF-029-002-N.jpg","1","1","1","1","0","0","0.521512800000892","0.51441049999903","0.506317099999251","1","1","1","1","1","1","1","1","1"
"250012","img/neutralC/CFD-WF-029-002-N.jpg","img/neutralC/CFD-WM-248-036-N.jpg","img/neutralC/CFD-BF-236-177-N.jpg","1","1","1","0","1","0","0.506317099999251","0.521512800000892","0.564753199999359","1","1","1","1","1","1","1","1","1"
"250012","img/neutralC/CFD-BF-236-177-N.jpg","img/neutralC/CFD-WF-029-002-N.jpg","img/neutralC/CFD-IF-729-393-N.jpg","1","1","1","0","0","0","0.564753199999359","0.506317099999251","0.5198649999993","1","1","1","1","1","1","1","1","1"
"250012","img/neutralC/CFD-IF-729-393-N.jpg","img/neutralC/CFD-BF-236-177-N.jpg","img/neutralC/CFD-IF-742-103-N.jpg","1","1","1","0","0","1","0.5198649999993","0.564753199999359","0.530616699998973","1","1","1","1","1","1","1","1","1"
"250012","img/neutralC/CFD-IF-742-103-N.jpg","img/neutralC/CFD-IF-729-393-N.jpg","img/neutralC/CFD-BF-006-017-N.jpg","1","1","1","1","0","0","0.530616699998973","0.5198649999993","0.509957699999177","1","1","1","1","1","1","1","1","1"
"250012","img/neutralC/CFD-BF-006-017-N.jpg","img/neutralC/CFD-IF-742-103-N.jpg","img/neutralC/CFD-BM-207-024-N.jpg","1","1","1","0","1","1","0.509957699999177","0.530616699998973","0.574777000000722","1","1","1","1","1","1","1","1","1"
"250012","img/neutralC/CFD-BM-207-024-N.jpg","img/neutralC/CFD-BF-006-017-N.jpg","img/neutralC/CFD-LM-213-061-N.jpg","1","1","1","1","0","0","0.574777000000722","0.509957699999177","0.528532400000586","1","1","1","1","1","1","1","1","1"
"250012","img/neutralC/CFD-LM-213-061-N.jpg","img/neutralC/CFD-BM-207-024-N.jpg","img/neutralC/CFD-IM-707-105-N.jpg","1","1","1","0","1","1","0.528532400000586","0.574777000000722","0.421668199999658","1","1","1","1","1","1","1","1","1"
"250012","img/neutralC/CFD-IM-707-105-N.jpg","img/neutralC/CFD-LM-213-061-N.jpg","img/neutralC/CFD-BF-207-004-N.jpg","1","1","1","1","0","1","0.421668199999658","0.528532400000586","0.361260399999992","1","1","1","1","1","1","1","1","1"
"250012","img/neutralC/CFD-BF-207-004-N.jpg","img/neutralC/CFD-IM-707-105-N.jpg","img/neutralC/CFD-BM-238-242-N.jpg","1","1","1","1","1","0","0.361260399999992","0.421668199999658","0.499506099999962","1","1","1","1","1","1","1","1","1"
"250012","img/neutralC/CFD-BM-238-242-N.jpg","img/neutralC/CFD-BF-207-004-N.jpg","img/neutralC/CFD-WM-034-030-N.jpg","1","1","1","0","1","1","0.499506099999962","0.361260399999992","0.415332199999284","1","1","1","1","1","1","1","1","1"
"250012","img/neutralC/CFD-WM-034-030-N.jpg","img/neutralC/CFD-BM-238-242-N.jpg","img/neutralC/CFD-BM-241-235-N.jpg","1","1","1","1","0","0","0.415332199999284","0.499506099999962","0.617643200000202","1","1","1","1","1","1","1","1","1"
"250012","img/neutralC/CFD-BM-241-235-N.jpg","img/neutralC/CFD-WM-034-030-N.jpg","img/neutralC/CFD-WF-208-068-N.jpg","1","1","1","0","1","1","0.617643200000202","0.415332199999284","0.517331099998955","1","1","1","1","1","1","1","1","1"
"250012","img/neutralC/CFD-WF-208-068-N.jpg","img/neutralC/CFD-BM-241-235-N.jpg","img/neutralC/CFD-WF-233-112-N.jpg","1","1","1","1","0","1","0.517331099998955","0.617643200000202","0.458355699999629","1","1","1","1","1","1","1","1","1"
"250012","img/neutralC/CFD-WF-233-112-N.jpg","img/neutralC/CFD-WF-208-068-N.jpg","img/neutralC/CFD-BF-214-308-N.jpg","1","1","1","1","1","1","0.458355699999629","0.517331099998955","0.470311399999446","1","1","1","1","1","1","1","1","1"
"250012","img/neutralC/CFD-BF-214-308-N.jpg","img/neutralC/CFD-WF-233-112-N.jpg","img/neutralC/CFD-AM-230-150-N.jpg","1","1","1","1","1","0","0.470311399999446","0.458355699999629","0.570949799998743","1","1","1","1","1","1","1","1","1"
"250012","img/neutralC/CFD-AM-230-150-N.jpg","img/neutralC/CFD-BF-214-308-N.jpg","img/neutralC/CFD-IM-721-341-N.jpg","1","1","1","0","1","1","0.570949799998743","0.470311399999446","0.463083999999981","1","1","1","1","1","1","1","1","1"
"250012","img/neutralC/CFD-IM-721-341-N.jpg","img/neutralC/CFD-AM-230-150-N.jpg","img/neutralC/CFD-WF-234-086-N.jpg","1","1","1","1","0","1","0.463083999999981","0.570949799998743","0.435416299999815","1","1","1","1","1","1","1","1","1"
"250012","img/neutralC/CFD-WF-234-086-N.jpg","img/neutralC/CFD-IM-721-341-N.jpg",NA,"1","1",NA,"1","1",NA,"0.435416299999815","0.463083999999981",NA,"1","1",NA,"1","1",NA,"1","1",NA
"250012","img/neutralC/CFD-LF-247-051-N.jpg",NA,"img/neutralC/CFD-IM-657-308-N.jpg","1",NA,"1","1",NA,"0","0.612537599999087",NA,"0.523075599999174","1",NA,"1","1",NA,"1","1",NA,"1"
"250012","img/neutralC/CFD-IM-657-308-N.jpg","img/neutralC/CFD-LF-247-051-N.jpg","img/neutralC/CFD-BF-238-190-N.jpg","1","1","1","0","1","1","0.523075599999174","0.612537599999087","0.496823800001039","1","1","1","1","1","1","1","1","1"
"250012","img/neutralC/CFD-BF-238-190-N.jpg","img/neutralC/CFD-IM-657-308-N.jpg","img/neutralC/CFD-MF-313-002-N.jpg","1","1","1","1","0","0","0.496823800001039","0.523075599999174","0.542779799999153","1","1","1","1","1","1","1","1","1"
"250012","img/neutralC/CFD-MF-313-002-N.jpg","img/neutralC/CFD-BF-238-190-N.jpg","img/neutralC/CFD-LF-250-169-N.jpg","1","1","1","0","1","1","0.542779799999153","0.496823800001039","0.437720299999455","1","1","1","1","1","1","1","1","1"
"250012","img/neutralC/CFD-LF-250-169-N.jpg","img/neutralC/CFD-MF-313-002-N.jpg","img/neutralC/CFD-BM-212-117-N.jpg","1","1","1","1","0","0","0.437720299999455","0.542779799999153","0.608672499999557","1","1","1","1","1","1","1","1","1"
"250012","img/neutralC/CFD-BM-212-117-N.jpg","img/neutralC/CFD-LF-250-169-N.jpg","img/neutralC/CFD-BM-026-002-N.jpg","1","1","1","0","1","0","0.608672499999557","0.437720299999455","0.55920629999946","1","1","1","1","1","1","1","1","1"
"250012","img/neutralC/CFD-BM-026-002-N.jpg","img/neutralC/CFD-BM-212-117-N.jpg","img/neutralC/CFD-WM-242-011-N.jpg","1","1","1","0","0","0","0.55920629999946","0.608672499999557","0.564004700000623","1","1","1","1","1","1","1","1","1"
"250012","img/neutralC/CFD-WM-242-011-N.jpg","img/neutralC/CFD-BM-026-002-N.jpg","img/neutralC/CFD-LM-219-295-N.jpg","1","1","0","0","0","1","0.564004700000623","0.55920629999946","0.594933899998978","1","1","1","1","1","1","1","1","2"
"250012","img/neutralC/CFD-LM-219-295-N.jpg","img/neutralC/CFD-WM-242-011-N.jpg","img/neutralC/CFD-BM-005-003-N.jpg","0","1","1","1","0","1","0.594933899998978","0.564004700000623","0.53746079999928","1","1","1","1","1","1","2","1","1"
"250012","img/neutralC/CFD-BM-005-003-N.jpg","img/neutralC/CFD-LM-219-295-N.jpg","img/neutralC/CFD-LF-242-121-N.jpg","1","0","1","1","1","0","0.53746079999928","0.594933899998978","0.51355760000024","1","1","1","1","1","1","1","2","1"
"250012","img/neutralC/CFD-LF-242-121-N.jpg","img/neutralC/CFD-BM-005-003-N.jpg","img/neutralC/CFD-LM-233-171-N.jpg","1","1","1","0","1","0","0.51355760000024","0.53746079999928","0.52539329999945","1","1","1","1","1","1","1","1","1"
"250012","img/neutralC/CFD-LM-233-171-N.jpg","img/neutralC/CFD-LF-242-121-N.jpg","img/neutralC/CFD-IM-686-097-N.jpg","1","1","1","0","0","0","0.52539329999945","0.51355760000024","0.595988899999611","1","1","1","1","1","1","1","1","1"
"250012","img/neutralC/CFD-IM-686-097-N.jpg","img/neutralC/CFD-LM-233-171-N.jpg","img/neutralC/CFD-AF-241-141-N.jpg","1","1","1","0","0","1","0.595988899999611","0.52539329999945","0.531344899999567","1","1","1","1","1","1","1","1","1"
"250012","img/neutralC/CFD-AF-241-141-N.jpg","img/neutralC/CFD-IM-686-097-N.jpg","img/neutralC/CFD-IM-617-174-N.jpg","1","1","1","1","0","0","0.531344899999567","0.595988899999611","0.651593999999932","1","1","1","1","1","1","1","1","1"
"250012","img/neutralC/CFD-IM-617-174-N.jpg","img/neutralC/CFD-AF-241-141-N.jpg","img/neutralC/CFD-IM-727-195-N.jpg","1","1","1","0","1","1","0.651593999999932","0.531344899999567","0.456316000000697","1","1","1","1","1","1","1","1","1"
"250012","img/neutralC/CFD-IM-727-195-N.jpg","img/neutralC/CFD-IM-617-174-N.jpg","img/neutralC/CFD-LM-226-175-N.jpg","1","1","1","1","0","0","0.456316000000697","0.651593999999932","0.606047799999033","1","1","1","1","1","1","1","1","1"
"250012","img/neutralC/CFD-LM-226-175-N.jpg","img/neutralC/CFD-IM-727-195-N.jpg","img/neutralC/CFD-BF-033-028-N.jpg","1","1","1","0","1","0","0.606047799999033","0.456316000000697","0.595579899999393","1","1","1","1","1","1","1","1","1"
"250012","img/neutralC/CFD-BF-033-028-N.jpg","img/neutralC/CFD-LM-226-175-N.jpg","img/neutralC/CFD-WM-227-099-N.jpg","1","1","1","0","0","1","0.595579899999393","0.606047799999033","0.416263199999776","1","1","1","1","1","1","1","1","1"
"250012","img/neutralC/CFD-WM-227-099-N.jpg","img/neutralC/CFD-BF-033-028-N.jpg","img/neutralC/CFD-IF-620-218-N.jpg","1","1","1","1","0","0","0.416263199999776","0.595579899999393","0.548242699999719","1","1","1","1","1","1","1","1","1"
"250012","img/neutralC/CFD-IF-620-218-N.jpg","img/neutralC/CFD-WM-227-099-N.jpg","img/neutralC/CFD-BF-010-001-N.jpg","1","1","1","0","1","1","0.548242699999719","0.416263199999776","0.991815500000484","1","1","1","1","1","1","1","1","1"
"250012","img/neutralC/CFD-BF-010-001-N.jpg","img/neutralC/CFD-IF-620-218-N.jpg","img/neutralC/CFD-LF-245-166-N.jpg","1","1","1","1","0","1","0.991815500000484","0.548242699999719","0.606345199998941","1","1","1","1","1","1","1","1","1"
"250012","img/neutralC/CFD-LF-245-166-N.jpg","img/neutralC/CFD-BF-010-001-N.jpg","img/neutralC/CFD-IM-638-250-1-N.jpg","1","1","1","1","1","1","0.606345199998941","0.991815500000484","0.620089500001086","1","1","1","1","1","1","1","1","1"
"250012","img/neutralC/CFD-IM-638-250-1-N.jpg","img/neutralC/CFD-LF-245-166-N.jpg","img/neutralC/CFD-AF-206-079-N.jpg","1","1","1","1","1","1","0.620089500001086","0.606345199998941","0.48455820000072","1","1","1","1","1","1","1","1","1"
"250012","img/neutralC/CFD-AF-206-079-N.jpg","img/neutralC/CFD-IM-638-250-1-N.jpg","img/neutralC/CFD-AF-202-122-N.jpg","1","1","1","1","1","1","0.48455820000072","0.620089500001086","0.492416500000218","1","1","1","1","1","1","1","1","1"
"250012","img/neutralC/CFD-AF-202-122-N.jpg","img/neutralC/CFD-AF-206-079-N.jpg","img/neutralC/CFD-WM-258-125-N.jpg","1","1","1","1","1","0","0.492416500000218","0.48455820000072","0.537720599998465","1","1","1","1","1","1","1","1","1"
"250012","img/neutralC/CFD-WM-258-125-N.jpg","img/neutralC/CFD-AF-202-122-N.jpg","img/neutralC/CFD-WM-017-002-N.jpg","1","1","1","0","1","0","0.537720599998465","0.492416500000218","0.55347829999937","1","1","1","1","1","1","1","1","1"
"250012","img/neutralC/CFD-WM-017-002-N.jpg","img/neutralC/CFD-WM-258-125-N.jpg","img/neutralC/CFD-IF-665-015-N.jpg","1","1","1","0","0","0","0.55347829999937","0.537720599998465","0.463900400000966","1","1","1","1","1","1","1","1","1"
"250012","img/neutralC/CFD-IF-665-015-N.jpg","img/neutralC/CFD-WM-017-002-N.jpg","img/neutralC/CFD-BM-018-001-N.jpg","1","1","1","0","0","1","0.463900400000966","0.55347829999937","0.570899299999837","1","1","1","1","1","1","1","1","1"
"250012","img/neutralC/CFD-BM-018-001-N.jpg","img/neutralC/CFD-IF-665-015-N.jpg","img/neutralC/CFD-WF-209-052-N.jpg","1","1","1","1","0","1","0.570899299999837","0.463900400000966","0.483076800000163","1","1","1","1","1","1","1","1","1"
"250012","img/neutralC/CFD-WF-209-052-N.jpg","img/neutralC/CFD-BM-018-001-N.jpg","img/neutralC/CFD-IM-653-008-N.jpg","1","1","1","1","1","0","0.483076800000163","0.570899299999837","0.591669299999012","1","1","1","1","1","1","1","1","1"
"250012","img/neutralC/CFD-IM-653-008-N.jpg","img/neutralC/CFD-WF-209-052-N.jpg","img/neutralC/CFD-BM-231-155-N.jpg","1","1","1","0","1","1","0.591669299999012","0.483076800000163","0.690046800001255","1","1","1","1","1","1","1","1","1"
"250012","img/neutralC/CFD-BM-231-155-N.jpg","img/neutralC/CFD-IM-653-008-N.jpg",NA,"1","1",NA,"1","0",NA,"0.690046800001255","0.591669299999012",NA,"1","1",NA,"1","1",NA,"1","1",NA
"250012","img/neutralC/CFD-WM-033-025-N.jpg",NA,"img/neutralC/CFD-WM-219-008-N.jpg","1",NA,"1","1",NA,"0","0.676342200001272",NA,"0.704205099999854","1",NA,"1","1",NA,"1","1",NA,"1"
"250012","img/neutralC/CFD-WM-219-008-N.jpg","img/neutralC/CFD-WM-033-025-N.jpg","img/neutralC/CFD-WM-235-147-N.jpg","1","1","1","0","1","0","0.704205099999854","0.676342200001272","0.514073299999836","1","1","1","1","1","1","1","1","1"
"250012","img/neutralC/CFD-WM-235-147-N.jpg","img/neutralC/CFD-WM-219-008-N.jpg","img/neutralC/CFD-MF-359-019-N.jpg","1","1","1","0","0","0","0.514073299999836","0.704205099999854","0.609063200000492","1","1","1","1","1","1","1","1","1"
"250012","img/neutralC/CFD-MF-359-019-N.jpg","img/neutralC/CFD-WM-235-147-N.jpg","img/neutralC/CFD-WF-036-023-N.jpg","1","1","1","0","0","0","0.609063200000492","0.514073299999836","0.591993900000489","1","1","1","1","1","1","1","1","1"
"250012","img/neutralC/CFD-WF-036-023-N.jpg","img/neutralC/CFD-MF-359-019-N.jpg","img/neutralC/CFD-IM-703-182-N.jpg","1","1","1","0","0","1","0.591993900000489","0.609063200000492","0.579765600000428","1","1","1","1","1","1","1","1","1"
"250012","img/neutralC/CFD-IM-703-182-N.jpg","img/neutralC/CFD-WF-036-023-N.jpg","img/neutralC/CFD-IM-671-601-N.jpg","1","1","0","1","0","0","0.579765600000428","0.591993900000489","0.494766299999355","1","1","1","1","1","1","1","1","1"
"250012","img/neutralC/CFD-IM-671-601-N.jpg","img/neutralC/CFD-IM-703-182-N.jpg","img/neutralC/CFD-LM-228-188-N.jpg","0","1","1","0","1","1","0.494766299999355","0.579765600000428","0.736214300000029","1","1","1","1","1","1","1","1","1"
"250012","img/neutralC/CFD-LM-228-188-N.jpg","img/neutralC/CFD-IM-671-601-N.jpg","img/neutralC/CFD-BF-226-119-N.jpg","1","0","1","1","0","1","0.736214300000029","0.494766299999355","0.452222700000675","1","1","1","1","1","1","1","1","1"
"250012","img/neutralC/CFD-BF-226-119-N.jpg","img/neutralC/CFD-LM-228-188-N.jpg","img/neutralC/CFD-WM-004-010-N.jpg","1","1","1","1","1","0","0.452222700000675","0.736214300000029","0.539842099999987","1","1","1","1","1","1","1","1","1"
"250012","img/neutralC/CFD-WM-004-010-N.jpg","img/neutralC/CFD-BF-226-119-N.jpg","img/neutralC/CFD-IM-645-001-N.jpg","1","1","1","0","1","0","0.539842099999987","0.452222700000675","0.518022699999165","1","1","1","1","1","1","1","1","1"
"250012","img/neutralC/CFD-IM-645-001-N.jpg","img/neutralC/CFD-WM-004-010-N.jpg","img/neutralC/CFD-LF-218-072-N.jpg","1","1","1","0","0","0","0.518022699999165","0.539842099999987","0.613699200000156","1","1","1","1","1","1","1","1","1"
"250012","img/neutralC/CFD-LF-218-072-N.jpg","img/neutralC/CFD-IM-645-001-N.jpg","img/neutralC/CFD-AM-242-176-N.jpg","1","1","1","0","0","1","0.613699200000156","0.518022699999165","0.576368200000616","1","1","1","1","1","1","1","1","1"
"250012","img/neutralC/CFD-AM-242-176-N.jpg","img/neutralC/CFD-LF-218-072-N.jpg","img/neutralC/CFD-WF-200-099-N.jpg","1","1","1","1","0","0","0.576368200000616","0.613699200000156","0.494591099998615","1","1","1","1","1","1","1","1","1"
"250012","img/neutralC/CFD-WF-200-099-N.jpg","img/neutralC/CFD-AM-242-176-N.jpg","img/neutralC/CFD-IM-743-006-N.jpg","1","1","1","0","1","1","0.494591099998615","0.576368200000616","0.474185800000669","1","1","1","1","1","1","1","1","1"
"250012","img/neutralC/CFD-IM-743-006-N.jpg","img/neutralC/CFD-WF-200-099-N.jpg","img/neutralC/CFD-LM-237-264-N.jpg","1","1","1","1","0","0","0.474185800000669","0.494591099998615","0.671949900000072","1","1","1","1","1","1","1","1","1"
"250012","img/neutralC/CFD-LM-237-264-N.jpg","img/neutralC/CFD-IM-743-006-N.jpg","img/neutralC/CFD-AM-211-052-N.jpg","1","1","1","0","1","1","0.671949900000072","0.474185800000669","0.500490799998261","1","1","1","1","1","1","1","1","1"
"250012","img/neutralC/CFD-AM-211-052-N.jpg","img/neutralC/CFD-LM-237-264-N.jpg","img/neutralC/CFD-WM-020-001-N.jpg","1","1","1","1","0","1","0.500490799998261","0.671949900000072","0.826533099999324","1","1","1","1","1","1","1","1","1"
"250012","img/neutralC/CFD-WM-020-001-N.jpg","img/neutralC/CFD-AM-211-052-N.jpg","img/neutralC/CFD-IF-623-129-N.jpg","1","1","1","1","1","1","0.826533099999324","0.500490799998261","0.456476599999405","1","1","1","1","1","1","1","1","1"
"250012","img/neutralC/CFD-IF-623-129-N.jpg","img/neutralC/CFD-WM-020-001-N.jpg","img/neutralC/CFD-WF-001-003-N.jpg","1","1","1","1","1","1","0.456476599999405","0.826533099999324","0.502998400000251","1","1","1","1","1","1","1","1","1"
"250012","img/neutralC/CFD-WF-001-003-N.jpg","img/neutralC/CFD-IF-623-129-N.jpg","img/neutralC/CFD-AM-251-124-N.jpg","1","1","1","1","1","0","0.502998400000251","0.456476599999405","0.5441794999997","1","1","1","1","1","1","1","1","1"
"250012","img/neutralC/CFD-AM-251-124-N.jpg","img/neutralC/CFD-WF-001-003-N.jpg","img/neutralC/CFD-LF-220-120-N.jpg","1","1","1","0","1","1","0.5441794999997","0.502998400000251","0.524501599999894","1","1","1","1","1","1","1","1","1"
"250012","img/neutralC/CFD-LF-220-120-N.jpg","img/neutralC/CFD-AM-251-124-N.jpg","img/neutralC/CFD-IM-616-214-N.jpg","1","1","1","1","0","0","0.524501599999894","0.5441794999997","0.515620399998625","1","1","1","1","1","1","1","1","1"
"250012","img/neutralC/CFD-IM-616-214-N.jpg","img/neutralC/CFD-LF-220-120-N.jpg","img/neutralC/CFD-IF-650-315-N.jpg","1","1","1","0","1","0","0.515620399998625","0.524501599999894","0.587045199999011","1","1","1","1","1","1","1","1","1"
"250012","img/neutralC/CFD-IF-650-315-N.jpg","img/neutralC/CFD-IM-616-214-N.jpg","img/neutralC/CFD-MF-333-012-N.jpg","1","1","1","0","0","0","0.587045199999011","0.515620399998625","0.560265700000855","1","1","1","1","1","1","1","1","1"
"250012","img/neutralC/CFD-MF-333-012-N.jpg","img/neutralC/CFD-IF-650-315-N.jpg","img/neutralC/CFD-BM-225-154-N.jpg","1","1","1","0","0","1","0.560265700000855","0.587045199999011","0.398992299999918","1","1","1","1","1","1","1","1","1"
"250012","img/neutralC/CFD-BM-225-154-N.jpg","img/neutralC/CFD-MF-333-012-N.jpg","img/neutralC/CFD-MF-352-054-N.jpg","1","1","1","1","0","0","0.398992299999918","0.560265700000855","0.656557299999804","1","1","1","1","1","1","1","1","1"
"250012","img/neutralC/CFD-MF-352-054-N.jpg","img/neutralC/CFD-BM-225-154-N.jpg","img/neutralC/CFD-BF-229-179-N.jpg","1","1","1","0","1","0","0.656557299999804","0.398992299999918","0.513320499999281","1","1","1","1","1","1","1","1","1"
"250012","img/neutralC/CFD-BF-229-179-N.jpg","img/neutralC/CFD-MF-352-054-N.jpg","img/neutralC/CFD-WF-214-122-N.jpg","1","1","1","0","0","1","0.513320499999281","0.656557299999804","0.648740599998746","1","1","1","1","1","1","1","1","1"
"250012","img/neutralC/CFD-WF-214-122-N.jpg","img/neutralC/CFD-BF-229-179-N.jpg","img/neutralC/CFD-BM-253-004-N.jpg","1","1","1","1","0","1","0.648740599998746","0.513320499999281","0.582105600001341","1","1","1","1","1","1","1","1","1"
"250012","img/neutralC/CFD-BM-253-004-N.jpg","img/neutralC/CFD-WF-214-122-N.jpg","img/neutralC/CFD-BF-232-187-N.jpg","1","1","1","1","1","1","0.582105600001341","0.648740599998746","0.603764700000283","1","1","1","1","1","1","1","1","1"
"250012","img/neutralC/CFD-BF-232-187-N.jpg","img/neutralC/CFD-BM-253-004-N.jpg","img/neutralC/CFD-BF-038-037-N.jpg","1","1","1","1","1","1","0.603764700000283","0.582105600001341","0.496819899998627","1","1","1","1","1","1","1","1","1"
"250012","img/neutralC/CFD-BF-038-037-N.jpg","img/neutralC/CFD-BF-232-187-N.jpg",NA,"1","1",NA,"1","1",NA,"0.496819899998627","0.603764700000283",NA,"1","1",NA,"1","1",NA,"1","1",NA
"250012","img/neutralC/CFD-WM-215-041-N.jpg",NA,"img/neutralC/CFD-BF-041-001-N.jpg","0",NA,"1","0",NA,"1","0.86390080000001",NA,"0.504647099999602","1",NA,"1","1",NA,"1","1",NA,"1"
"250012","img/neutralC/CFD-BF-041-001-N.jpg","img/neutralC/CFD-WM-215-041-N.jpg","img/neutralC/CFD-LM-243-075-N.jpg","1","0","1","1","0","0","0.504647099999602","0.86390080000001","0.55451660000017","1","1","1","1","1","1","1","1","1"
"250012","img/neutralC/CFD-LM-243-075-N.jpg","img/neutralC/CFD-BF-041-001-N.jpg","img/neutralC/CFD-MM-317-061-N.jpg","1","1","1","0","1","1","0.55451660000017","0.504647099999602","0.537158100000852","1","1","1","1","1","1","1","1","1"
"250012","img/neutralC/CFD-MM-317-061-N.jpg","img/neutralC/CFD-LM-243-075-N.jpg","img/neutralC/CFD-MF-309-002-N.jpg","1","1","1","1","0","0","0.537158100000852","0.55451660000017","0.633308499999657","1","1","1","1","1","1","1","1","1"
"250012","img/neutralC/CFD-MF-309-002-N.jpg","img/neutralC/CFD-MM-317-061-N.jpg","img/neutralC/CFD-WM-249-239-N.jpg","1","1","1","0","1","1","0.633308499999657","0.537158100000852","0.538718800001334","1","1","1","1","1","1","1","1","1"
"250012","img/neutralC/CFD-WM-249-239-N.jpg","img/neutralC/CFD-MF-309-002-N.jpg","img/neutralC/CFD-IF-642-295-N.jpg","1","1","1","1","0","1","0.538718800001334","0.633308499999657","0.497152200000528","1","1","1","1","1","1","1","1","1"
"250012","img/neutralC/CFD-IF-642-295-N.jpg","img/neutralC/CFD-WM-249-239-N.jpg","img/neutralC/CFD-BM-251-013-N.jpg","1","1","1","1","1","1","0.497152200000528","0.538718800001334","0.469628199999534","1","1","1","1","1","1","1","1","1"
"250012","img/neutralC/CFD-BM-251-013-N.jpg","img/neutralC/CFD-IF-642-295-N.jpg","img/neutralC/CFD-MF-335-002-N.jpg","1","1","1","1","1","0","0.469628199999534","0.497152200000528","0.584687099998519","1","1","1","1","1","1","1","1","1"
"250012","img/neutralC/CFD-MF-335-002-N.jpg","img/neutralC/CFD-BM-251-013-N.jpg","img/neutralC/CFD-WM-006-002-N.jpg","1","1","1","0","1","0","0.584687099998519","0.469628199999534","0.66993900000034","1","1","1","1","1","1","1","1","1"
"250012","img/neutralC/CFD-WM-006-002-N.jpg","img/neutralC/CFD-MF-335-002-N.jpg","img/neutralC/CFD-WF-017-003-N.jpg","1","1","1","0","0","1","0.66993900000034","0.584687099998519","0.552384499999789","1","1","1","1","1","1","1","1","1"
"250012","img/neutralC/CFD-WF-017-003-N.jpg","img/neutralC/CFD-WM-006-002-N.jpg","img/neutralC/CFD-AF-240-206-N.jpg","1","1","1","1","0","0","0.552384499999789","0.66993900000034","0.533453999999438","1","1","1","1","1","1","1","1","1"
"250012","img/neutralC/CFD-AF-240-206-N.jpg","img/neutralC/CFD-WF-017-003-N.jpg","img/neutralC/CFD-LM-216-082-N.jpg","1","1","1","0","1","0","0.533453999999438","0.552384499999789","0.486957399999483","1","1","1","1","1","1","1","1","1"
"250012","img/neutralC/CFD-LM-216-082-N.jpg","img/neutralC/CFD-AF-240-206-N.jpg","img/neutralC/CFD-IM-646-023-N.jpg","1","1","1","0","0","1","0.486957399999483","0.533453999999438","0.481836099998873","1","1","1","1","1","1","1","1","1"
"250012","img/neutralC/CFD-IM-646-023-N.jpg","img/neutralC/CFD-LM-216-082-N.jpg","img/neutralC/CFD-LM-201-057-N.jpg","1","1","1","1","0","1","0.481836099998873","0.486957399999483","0.559339099999306","1","1","1","1","1","1","1","1","1"
"250012","img/neutralC/CFD-LM-201-057-N.jpg","img/neutralC/CFD-IM-646-023-N.jpg","img/neutralC/CFD-WM-019-003-N.jpg","1","1","1","1","1","1","0.559339099999306","0.481836099998873","0.695474999999533","1","1","1","1","1","1","1","1","1"
"250012","img/neutralC/CFD-WM-019-003-N.jpg","img/neutralC/CFD-LM-201-057-N.jpg","img/neutralC/CFD-AM-247-165-N.jpg","1","1","1","1","1","1","0.695474999999533","0.559339099999306","0.567735499999799","1","1","1","1","1","1","1","1","1"
"250012","img/neutralC/CFD-AM-247-165-N.jpg","img/neutralC/CFD-WM-019-003-N.jpg","img/neutralC/CFD-BM-248-128-N.jpg","1","1","1","1","1","0","0.567735499999799","0.695474999999533","0.519856199999595","1","1","1","1","1","1","1","1","1"
"250012","img/neutralC/CFD-BM-248-128-N.jpg","img/neutralC/CFD-AM-247-165-N.jpg","img/neutralC/CFD-BF-212-315-N.jpg","1","1","1","0","1","1","0.519856199999595","0.567735499999799","0.638007900000048","1","1","1","1","1","1","1","1","1"
"250012","img/neutralC/CFD-BF-212-315-N.jpg","img/neutralC/CFD-BM-248-128-N.jpg","img/neutralC/CFD-IM-648-337-N.jpg","1","1","1","1","0","0","0.638007900000048","0.519856199999595","0.661618900000576","1","1","1","1","1","1","1","1","1"
"250012","img/neutralC/CFD-IM-648-337-N.jpg","img/neutralC/CFD-BF-212-315-N.jpg","img/neutralC/CFD-BM-205-001-N.jpg","1","1","1","0","1","0","0.661618900000576","0.638007900000048","0.615112499998759","1","1","1","1","1","1","1","1","1"
"250012","img/neutralC/CFD-BM-205-001-N.jpg","img/neutralC/CFD-IM-648-337-N.jpg","img/neutralC/CFD-WF-240-083-N.jpg","1","1","1","0","0","0","0.615112499998759","0.661618900000576","0.58504449999873","1","1","1","1","1","1","1","1","1"
"250012","img/neutralC/CFD-WF-240-083-N.jpg","img/neutralC/CFD-BM-205-001-N.jpg","img/neutralC/CFD-WM-026-001-N.jpg","1","1","1","0","0","1","0.58504449999873","0.615112499998759","0.519354799999746","1","1","1","1","1","1","1","1","1"
"250012","img/neutralC/CFD-WM-026-001-N.jpg","img/neutralC/CFD-WF-240-083-N.jpg","img/neutralC/CFD-BF-025-002-N.jpg","1","1","1","1","0","0","0.519354799999746","0.58504449999873","0.619707299999391","1","1","1","1","1","1","1","1","1"
"250012","img/neutralC/CFD-BF-025-002-N.jpg","img/neutralC/CFD-WM-026-001-N.jpg","img/neutralC/CFD-WM-212-097-N.jpg","1","1","1","0","1","0","0.619707299999391","0.519354799999746","0.611973399999442","1","1","1","1","1","1","1","1","1"
"250012","img/neutralC/CFD-WM-212-097-N.jpg","img/neutralC/CFD-BF-025-002-N.jpg","img/neutralC/CFD-WM-012-001-N.jpg","1","1","1","0","0","1","0.611973399999442","0.619707299999391","0.413232899999457","1","1","1","1","1","1","1","1","1"
"250012","img/neutralC/CFD-WM-012-001-N.jpg","img/neutralC/CFD-WM-212-097-N.jpg","img/neutralC/CFD-LM-244-068-N.jpg","1","1","1","1","0","1","0.413232899999457","0.611973399999442","0.44273560000056","1","1","1","1","1","1","1","1","1"
"250012","img/neutralC/CFD-LM-244-068-N.jpg","img/neutralC/CFD-WM-012-001-N.jpg","img/neutralC/CFD-WF-228-196-N.jpg","1","1","1","1","1","0","0.44273560000056","0.413232899999457","0.507345799999712","1","1","1","1","1","1","1","1","1"
"250012","img/neutralC/CFD-WF-228-196-N.jpg","img/neutralC/CFD-LM-244-068-N.jpg","img/neutralC/CFD-BF-228-212-N.jpg","1","1","1","0","1","0","0.507345799999712","0.44273560000056","0.608050899999398","1","1","1","1","1","1","1","1","1"
"250012","img/neutralC/CFD-BF-228-212-N.jpg","img/neutralC/CFD-WF-228-196-N.jpg","img/neutralC/CFD-LM-214-165-N.jpg","1","1","1","0","0","1","0.608050899999398","0.507345799999712","0.565121399999953","1","1","1","1","1","1","1","1","1"
"250012","img/neutralC/CFD-LM-214-165-N.jpg","img/neutralC/CFD-BF-228-212-N.jpg","img/neutralC/CFD-BF-202-109-N.jpg","1","1","1","1","0","1","0.565121399999953","0.608050899999398","0.895913400000609","1","1","1","1","1","1","1","1","1"
"250012","img/neutralC/CFD-BF-202-109-N.jpg","img/neutralC/CFD-LM-214-165-N.jpg","img/neutralC/CFD-WF-005-010-N.jpg","1","1","1","1","1","0","0.895913400000609","0.565121399999953","0.600842400000147","1","1","1","1","1","1","1","1","1"
"250012","img/neutralC/CFD-WF-005-010-N.jpg","img/neutralC/CFD-BF-202-109-N.jpg",NA,"1","1",NA,"0","1",NA,"0.600842400000147","0.895913400000609",NA,"1","1",NA,"1","1",NA,"1","1",NA
"250012","img/neutralC/CFD-WM-257-161-N.jpg",NA,"img/neutralC/CFD-BF-208-266-N.jpg","1",NA,"1","1",NA,"0","0.587400499999603",NA,"0.684310700001333","1",NA,"1","1",NA,"1","1",NA,"1"
"250012","img/neutralC/CFD-BF-208-266-N.jpg","img/neutralC/CFD-WM-257-161-N.jpg","img/neutralC/CFD-LM-252-076-N.jpg","1","1","1","0","1","1","0.684310700001333","0.587400499999603","0.565293399999973","1","1","1","1","1","1","1","1","1"
"250012","img/neutralC/CFD-LM-252-076-N.jpg","img/neutralC/CFD-BF-208-266-N.jpg","img/neutralC/CFD-WM-038-003-N.jpg","1","1","1","1","0","0","0.565293399999973","0.684310700001333","0.587200799999664","1","1","1","1","1","1","1","1","1"
"250012","img/neutralC/CFD-WM-038-003-N.jpg","img/neutralC/CFD-LM-252-076-N.jpg","img/neutralC/CFD-IM-639-263-N.jpg","1","1","1","0","1","1","0.587200799999664","0.565293399999973","0.490553499998896","1","1","1","1","1","1","1","1","1"
"250012","img/neutralC/CFD-IM-639-263-N.jpg","img/neutralC/CFD-WM-038-003-N.jpg","img/neutralC/CFD-WM-002-009-N.jpg","1","1","1","1","0","0","0.490553499998896","0.587200799999664","0.616069500000776","1","1","1","1","1","1","1","1","1"
"250012","img/neutralC/CFD-WM-002-009-N.jpg","img/neutralC/CFD-IM-639-263-N.jpg","img/neutralC/CFD-LF-236-221-N.jpg","1","1","1","0","1","1","0.616069500000776","0.490553499998896","0.419837899999948","1","1","1","1","1","1","1","1","1"
"250012","img/neutralC/CFD-LF-236-221-N.jpg","img/neutralC/CFD-WM-002-009-N.jpg","img/neutralC/CFD-WM-225-127-N.jpg","1","1","1","1","0","0","0.419837899999948","0.616069500000776","0.665360199999668","1","1","1","1","1","1","1","1","1"
"250012","img/neutralC/CFD-WM-225-127-N.jpg","img/neutralC/CFD-LF-236-221-N.jpg","img/neutralC/CFD-IM-674-281-N.jpg","1","1","1","0","1","1","0.665360199999668","0.419837899999948","0.759211100000357","1","1","1","1","1","1","1","1","1"
"250012","img/neutralC/CFD-IM-674-281-N.jpg","img/neutralC/CFD-WM-225-127-N.jpg","img/neutralC/CFD-WM-040-022-N.jpg","1","1","1","1","0","0","0.759211100000357","0.665360199999668","0.804263099999844","1","1","1","1","1","1","1","1","1"
"250012","img/neutralC/CFD-WM-040-022-N.jpg","img/neutralC/CFD-IM-674-281-N.jpg","img/neutralC/CFD-WF-022-017-N.jpg","1","1","1","0","1","0","0.804263099999844","0.759211100000357","0.684036999999989","1","1","1","1","1","1","1","1","1"
"250012","img/neutralC/CFD-WF-022-017-N.jpg","img/neutralC/CFD-WM-040-022-N.jpg","img/neutralC/CFD-BF-023-010-N.jpg","1","1","1","0","0","1","0.684036999999989","0.804263099999844","0.418350500000997","1","1","1","1","1","1","1","1","1"
"250012","img/neutralC/CFD-BF-023-010-N.jpg","img/neutralC/CFD-WF-022-017-N.jpg","img/neutralC/CFD-LF-216-121-N.jpg","1","1","1","1","0","1","0.418350500000997","0.684036999999989","0.451117599998724","1","1","1","1","1","1","1","1","1"
"250012","img/neutralC/CFD-LF-216-121-N.jpg","img/neutralC/CFD-BF-023-010-N.jpg","img/neutralC/CFD-BM-247-240-N.jpg","1","1","1","1","1","0","0.451117599998724","0.418350500000997","0.543125299999701","1","1","1","1","1","1","1","1","1"
"250012","img/neutralC/CFD-BM-247-240-N.jpg","img/neutralC/CFD-LF-216-121-N.jpg","img/neutralC/CFD-WF-026-002-N.jpg","1","1","1","0","1","1","0.543125299999701","0.451117599998724","0.640620099999978","1","1","1","1","1","1","1","1","1"
"250012","img/neutralC/CFD-WF-026-002-N.jpg","img/neutralC/CFD-BM-247-240-N.jpg","img/neutralC/CFD-WF-002-004-N.jpg","1","1","1","1","0","0","0.640620099999978","0.543125299999701","0.585196799999721","1","1","1","1","1","1","1","1","1"
"250012","img/neutralC/CFD-WF-002-004-N.jpg","img/neutralC/CFD-WF-026-002-N.jpg","img/neutralC/CFD-BF-003-003-N.jpg","1","1","1","0","1","0","0.585196799999721","0.640620099999978","0.591126700000132","1","1","1","1","1","1","1","1","1"
"250012","img/neutralC/CFD-BF-003-003-N.jpg","img/neutralC/CFD-WF-002-004-N.jpg","img/neutralC/CFD-BF-204-189-N.jpg","1","1","1","0","0","1","0.591126700000132","0.585196799999721","0.43762340000012","1","1","1","1","1","1","1","1","1"
"250012","img/neutralC/CFD-BF-204-189-N.jpg","img/neutralC/CFD-BF-003-003-N.jpg","img/neutralC/CFD-BF-201-080-N.jpg","1","1","1","1","0","1","0.43762340000012","0.591126700000132","0.434196999999585","1","1","1","1","1","1","1","1","1"
"250012","img/neutralC/CFD-BF-201-080-N.jpg","img/neutralC/CFD-BF-204-189-N.jpg","img/neutralC/CFD-AM-235-241-N.jpg","1","1","1","1","1","0","0.434196999999585","0.43762340000012","0.523599899998771","1","1","1","1","1","1","1","1","1"
"250012","img/neutralC/CFD-AM-235-241-N.jpg","img/neutralC/CFD-BF-201-080-N.jpg","img/neutralC/CFD-BM-029-024-N.jpg","1","1","1","0","1","1","0.523599899998771","0.434196999999585","0.641701999999896","1","1","1","1","1","1","1","1","1"
"250012","img/neutralC/CFD-BM-029-024-N.jpg","img/neutralC/CFD-AM-235-241-N.jpg","img/neutralC/CFD-MM-319-052-N.jpg","1","1","1","1","0","1","0.641701999999896","0.523599899998771","0.561017799999718","1","1","1","1","1","1","1","1","1"
"250012","img/neutralC/CFD-MM-319-052-N.jpg","img/neutralC/CFD-BM-029-024-N.jpg","img/neutralC/CFD-IF-718-001-N.jpg","1","1","1","1","1","1","0.561017799999718","0.641701999999896","0.446700700001202","1","1","1","1","1","1","1","1","1"
"250012","img/neutralC/CFD-IF-718-001-N.jpg","img/neutralC/CFD-MM-319-052-N.jpg","img/neutralC/CFD-BM-211-174-N.jpg","1","1","1","1","1","0","0.446700700001202","0.561017799999718","0.683857400000306","1","1","1","1","1","1","1","1","1"
"250012","img/neutralC/CFD-BM-211-174-N.jpg","img/neutralC/CFD-IF-718-001-N.jpg","img/neutralC/CFD-BF-028-001-N.jpg","1","1","1","0","1","1","0.683857400000306","0.446700700001202","0.587237400000049","1","1","1","1","1","1","1","1","1"
"250012","img/neutralC/CFD-BF-028-001-N.jpg","img/neutralC/CFD-BM-211-174-N.jpg","img/neutralC/CFD-BF-255-140-N.jpg","1","1","1","1","0","1","0.587237400000049","0.683857400000306","0.571743899999092","1","1","1","1","1","1","1","1","1"
"250012","img/neutralC/CFD-BF-255-140-N.jpg","img/neutralC/CFD-BF-028-001-N.jpg","img/neutralC/CFD-AM-217-085-N.jpg","1","1","1","1","1","0","0.571743899999092","0.587237400000049","0.63330169999881","1","1","1","1","1","1","1","1","1"
"250012","img/neutralC/CFD-AM-217-085-N.jpg","img/neutralC/CFD-BF-255-140-N.jpg","img/neutralC/CFD-AM-215-120-N.jpg","1","1","1","0","1","1","0.63330169999881","0.571743899999092","0.427699200000461","1","1","1","1","1","1","1","1","1"
"250012","img/neutralC/CFD-AM-215-120-N.jpg","img/neutralC/CFD-AM-217-085-N.jpg","img/neutralC/CFD-IF-672-305-N.jpg","1","1","1","1","0","0","0.427699200000461","0.63330169999881","0.526621199999681","1","1","1","1","1","1","1","1","1"
"250012","img/neutralC/CFD-IF-672-305-N.jpg","img/neutralC/CFD-AM-215-120-N.jpg","img/neutralC/CFD-BM-015-015-N.jpg","1","1","1","0","1","0","0.526621199999681","0.427699200000461","0.611334700000043","1","1","1","1","1","1","1","1","1"
"250012","img/neutralC/CFD-BM-015-015-N.jpg","img/neutralC/CFD-IF-672-305-N.jpg","img/neutralC/CFD-IM-728-041-N.jpg","1","1","1","0","0","0","0.611334700000043","0.526621199999681","0.62363649999952","1","1","1","1","1","1","1","1","1"
"250012","img/neutralC/CFD-IM-728-041-N.jpg","img/neutralC/CFD-BM-015-015-N.jpg","img/neutralC/CFD-BM-027-001-N.jpg","1","1","1","0","0","0","0.62363649999952","0.611334700000043","0.681355200001235","1","1","1","1","1","1","1","1","1"
"250012","img/neutralC/CFD-BM-027-001-N.jpg","img/neutralC/CFD-IM-728-041-N.jpg",NA,"1","1",NA,"0","0",NA,"0.681355200001235","0.62363649999952",NA,"1","1",NA,"1","1",NA,"1","1",NA
"250012","img/neutralC/CFD-LF-212-066-N.jpg",NA,"img/neutralC/CFD-IM-606-008-N.jpg","1",NA,"1","1",NA,"0","0.61729380000088",NA,"0.615166099999442","1",NA,"1","1",NA,"1","1",NA,"1"
"250012","img/neutralC/CFD-IM-606-008-N.jpg","img/neutralC/CFD-LF-212-066-N.jpg","img/neutralC/CFD-LF-238-154-N.jpg","1","1","1","0","1","1","0.615166099999442","0.61729380000088","0.404981099999532","1","1","1","1","1","1","1","1","1"
"250012","img/neutralC/CFD-LF-238-154-N.jpg","img/neutralC/CFD-IM-606-008-N.jpg","img/neutralC/CFD-MF-328-020-N.jpg","1","1","1","1","0","0","0.404981099999532","0.615166099999442","0.5325845999987","1","1","1","1","1","1","1","1","1"
"250012","img/neutralC/CFD-MF-328-020-N.jpg","img/neutralC/CFD-LF-238-154-N.jpg","img/neutralC/CFD-WM-025-002-N.jpg","1","1","1","0","1","0","0.5325845999987","0.404981099999532","0.544024300000274","1","1","1","1","1","1","1","1","1"
"250012","img/neutralC/CFD-WM-025-002-N.jpg","img/neutralC/CFD-MF-328-020-N.jpg","img/neutralC/CFD-BM-030-003-N.jpg","1","1","1","0","0","0","0.544024300000274","0.5325845999987","0.491712600000938","1","1","1","1","1","1","1","1","1"
"250012","img/neutralC/CFD-BM-030-003-N.jpg","img/neutralC/CFD-WM-025-002-N.jpg","img/neutralC/CFD-BF-244-231-N.jpg","1","1","1","0","0","1","0.491712600000938","0.544024300000274","0.429097299999739","1","1","1","1","1","1","1","1","1"
"250012","img/neutralC/CFD-BF-244-231-N.jpg","img/neutralC/CFD-BM-030-003-N.jpg","img/neutralC/CFD-BM-227-191-N.jpg","1","1","1","1","0","1","0.429097299999739","0.491712600000938","0.71304820000023","1","1","1","1","1","1","1","1","1"
"250012","img/neutralC/CFD-BM-227-191-N.jpg","img/neutralC/CFD-BF-244-231-N.jpg","img/neutralC/CFD-AF-237-223-N.jpg","1","1","1","1","1","0","0.71304820000023","0.429097299999739","0.544633399999839","1","1","1","1","1","1","1","1","1"
"250012","img/neutralC/CFD-AF-237-223-N.jpg","img/neutralC/CFD-BM-227-191-N.jpg","img/neutralC/CFD-WF-241-210-N.jpg","1","1","1","0","1","0","0.544633399999839","0.71304820000023","0.48098200000004","1","1","1","1","1","1","1","1","1"
"250012","img/neutralC/CFD-WF-241-210-N.jpg","img/neutralC/CFD-AF-237-223-N.jpg","img/neutralC/CFD-WF-009-001-N.jpg","1","1","1","0","0","1","0.48098200000004","0.544633399999839","0.501552500000798","1","1","1","1","1","1","1","1","1"
"250012","img/neutralC/CFD-WF-009-001-N.jpg","img/neutralC/CFD-WF-241-210-N.jpg","img/neutralC/CFD-BM-009-002-N.jpg","1","1","1","1","0","1","0.501552500000798","0.48098200000004","0.528736799999933","1","1","1","1","1","1","1","1","1"
"250012","img/neutralC/CFD-BM-009-002-N.jpg","img/neutralC/CFD-WF-009-001-N.jpg","img/neutralC/CFD-WF-221-005-N.jpg","1","1","1","1","1","0","0.528736799999933","0.501552500000798","0.516651200000524","1","1","1","1","1","1","1","1","1"
"250012","img/neutralC/CFD-WF-221-005-N.jpg","img/neutralC/CFD-BM-009-002-N.jpg","img/neutralC/CFD-AM-205-153-N.jpg","1","1","1","0","1","1","0.516651200000524","0.528736799999933","0.439273300001332","1","1","1","1","1","1","1","1","1"
"250012","img/neutralC/CFD-AM-205-153-N.jpg","img/neutralC/CFD-WF-221-005-N.jpg","img/neutralC/CFD-LF-222-147-N.jpg","1","1","1","1","0","0","0.439273300001332","0.516651200000524","0.500460000000203","1","1","1","1","1","1","1","1","1"
"250012","img/neutralC/CFD-LF-222-147-N.jpg","img/neutralC/CFD-AM-205-153-N.jpg","img/neutralC/CFD-IM-689-263-N.jpg","1","1","1","0","1","1","0.500460000000203","0.439273300001332","0.471376999998938","1","1","1","1","1","1","1","1","1"
"250012","img/neutralC/CFD-IM-689-263-N.jpg","img/neutralC/CFD-LF-222-147-N.jpg","img/neutralC/CFD-AM-249-163-N.jpg","1","1","1","1","0","1","0.471376999998938","0.500460000000203","0.86265579999872","1","1","1","1","1","1","1","1","1"
"250012","img/neutralC/CFD-AM-249-163-N.jpg","img/neutralC/CFD-IM-689-263-N.jpg","img/neutralC/CFD-WF-207-014-N.jpg","1","1","1","1","1","1","0.86265579999872","0.471376999998938","0.545068099999298","1","1","1","1","1","1","1","1","1"
"250012","img/neutralC/CFD-WF-207-014-N.jpg","img/neutralC/CFD-AM-249-163-N.jpg","img/neutralC/CFD-BM-043-071-N.jpg","1","1","1","1","1","0","0.545068099999298","0.86265579999872","0.518791800000145","1","1","1","1","1","1","1","1","1"
"250012","img/neutralC/CFD-BM-043-071-N.jpg","img/neutralC/CFD-WF-207-014-N.jpg","img/neutralC/CFD-IM-615-167-N.jpg","1","1","1","0","1","0","0.518791800000145","0.545068099999298","0.714743899999121","1","1","1","1","1","1","1","1","1"
"250012","img/neutralC/CFD-IM-615-167-N.jpg","img/neutralC/CFD-BM-043-071-N.jpg","img/neutralC/CFD-WM-028-003-N.jpg","1","1","1","0","0","1","0.714743899999121","0.518791800000145","0.568849599999339","1","1","1","1","1","1","1","1","1"
"250012","img/neutralC/CFD-WM-028-003-N.jpg","img/neutralC/CFD-IM-615-167-N.jpg","img/neutralC/CFD-MM-306-010-N.jpg","1","1","1","1","0","0","0.568849599999339","0.714743899999121","0.987863499999548","1","1","1","1","1","1","1","1","1"
"250012","img/neutralC/CFD-MM-306-010-N.jpg","img/neutralC/CFD-WM-028-003-N.jpg","img/neutralC/CFD-WM-023-001-N.jpg","1","1","1","0","1","0","0.987863499999548","0.568849599999339","0.575632199998836","1","1","1","1","1","1","1","1","1"
"250012","img/neutralC/CFD-WM-023-001-N.jpg","img/neutralC/CFD-MM-306-010-N.jpg","img/neutralC/CFD-AM-243-212-N.jpg","1","1","1","0","0","1","0.575632199998836","0.987863499999548","0.418749099998422","1","1","1","1","1","1","1","1","1"
"250012","img/neutralC/CFD-AM-243-212-N.jpg","img/neutralC/CFD-WM-023-001-N.jpg","img/neutralC/CFD-LM-240-013-N.jpg","1","1","1","1","0","1","0.418749099998422","0.575632199998836","0.483592300000055","1","1","1","1","1","1","1","1","1"
"250012","img/neutralC/CFD-LM-240-013-N.jpg","img/neutralC/CFD-AM-243-212-N.jpg","img/neutralC/CFD-AM-219-101-N.jpg","1","1","1","1","1","0","0.483592300000055","0.418749099998422","0.534173400000327","1","1","1","1","1","1","1","1","1"
"250012","img/neutralC/CFD-AM-219-101-N.jpg","img/neutralC/CFD-LM-240-013-N.jpg","img/neutralC/CFD-IF-676-017-N.jpg","1","1","1","0","1","1","0.534173400000327","0.483592300000055","0.596699400000034","1","1","1","1","1","1","1","1","1"
"250012","img/neutralC/CFD-IF-676-017-N.jpg","img/neutralC/CFD-AM-219-101-N.jpg","img/neutralC/CFD-WF-243-148-N.jpg","1","1","1","1","0","0","0.596699400000034","0.534173400000327","0.68921169999976","1","1","1","1","1","1","1","1","1"
"250012","img/neutralC/CFD-WF-243-148-N.jpg","img/neutralC/CFD-IF-676-017-N.jpg","img/neutralC/CFD-BM-021-021-N.jpg","1","1","1","0","1","1","0.68921169999976","0.596699400000034","0.636958899999627","1","1","1","1","1","1","1","1","1"
"250012","img/neutralC/CFD-BM-021-021-N.jpg","img/neutralC/CFD-WF-243-148-N.jpg","img/neutralC/CFD-BF-012-001-N.jpg","1","1","0","1","0","0","0.636958899999627","0.68921169999976","1.0549073000011","1","1","1","1","1","1","1","1","1"
"250012","img/neutralC/CFD-BF-012-001-N.jpg","img/neutralC/CFD-BM-021-021-N.jpg","img/neutralC/CFD-IM-697-015-N.jpg","0","1","1","0","1","1","1.0549073000011","0.636958899999627","0.770720999999867","1","1","1","1","1","1","1","1","1"
"250012","img/neutralC/CFD-IM-697-015-N.jpg","img/neutralC/CFD-BF-012-001-N.jpg","img/neutralC/CFD-BM-020-001-N.jpg","1","0","1","1","0","0","0.770720999999867","1.0549073000011","0.507657999999537","1","1","1","1","1","1","1","1","1"
"250012","img/neutralC/CFD-BM-020-001-N.jpg","img/neutralC/CFD-IM-697-015-N.jpg",NA,"1","1",NA,"0","1",NA,"0.507657999999537","0.770720999999867",NA,"1","1",NA,"1","1",NA,"1","1",NA
"250012","img/neutralC/CFD-AM-244-222-N.jpg",NA,"img/neutralC/CFD-BM-023-029-N.jpg","1",NA,"1","0",NA,"1","0.992035800000849",NA,"0.590274499999396","1",NA,"1","1",NA,"1","1",NA,"1"
"250012","img/neutralC/CFD-BM-023-029-N.jpg","img/neutralC/CFD-AM-244-222-N.jpg","img/neutralC/CFD-LM-253-075-N.jpg","1","1","1","1","0","0","0.590274499999396","0.992035800000849","0.50123480000093","1","1","1","1","1","1","1","1","1"
"250012","img/neutralC/CFD-LM-253-075-N.jpg","img/neutralC/CFD-BM-023-029-N.jpg","img/neutralC/CFD-WF-018-017-N.jpg","1","1","1","0","1","1","0.50123480000093","0.590274499999396","0.521159599999919","1","1","1","1","1","1","1","1","1"
"250012","img/neutralC/CFD-WF-018-017-N.jpg","img/neutralC/CFD-LM-253-075-N.jpg","img/neutralC/CFD-MM-321-021-N.jpg","1","1","1","1","0","0","0.521159599999919","0.50123480000093","0.552578499999981","1","1","1","1","1","1","1","1","1"
"250012","img/neutralC/CFD-MM-321-021-N.jpg","img/neutralC/CFD-WF-018-017-N.jpg","img/neutralC/CFD-IM-627-178-N.jpg","1","1","1","0","1","1","0.552578499999981","0.521159599999919","0.563022799999999","1","1","1","1","1","1","1","1","1"
"250012","img/neutralC/CFD-IM-627-178-N.jpg","img/neutralC/CFD-MM-321-021-N.jpg","img/neutralC/CFD-IF-629-234-N.jpg","1","1","1","1","0","0","0.563022799999999","0.552578499999981","0.600511099998585","1","1","1","1","1","1","1","1","1"
"250012","img/neutralC/CFD-IF-629-234-N.jpg","img/neutralC/CFD-IM-627-178-N.jpg","img/neutralC/CFD-WF-226-095-N.jpg","1","1","1","0","1","1","0.600511099998585","0.563022799999999","0.582641199999671","1","1","1","1","1","1","1","1","1"
"250012","img/neutralC/CFD-WF-226-095-N.jpg","img/neutralC/CFD-IF-629-234-N.jpg","img/neutralC/CFD-WM-013-001-N.jpg","1","1","1","1","0","1","0.582641199999671","0.600511099998585","0.602521599998909","1","1","1","1","1","1","1","1","1"
"250012","img/neutralC/CFD-WM-013-001-N.jpg","img/neutralC/CFD-WF-226-095-N.jpg","img/neutralC/CFD-MF-321-003-N.jpg","1","1","1","1","1","0","0.602521599998909","0.582641199999671","0.664270600001146","1","1","1","1","1","1","1","1","1"
"250012","img/neutralC/CFD-MF-321-003-N.jpg","img/neutralC/CFD-WM-013-001-N.jpg","img/neutralC/CFD-BM-200-046-N.jpg","1","1","1","0","1","0","0.664270600001146","0.602521599998909","0.763078899998618","1","1","1","1","1","1","1","1","1"
"250012","img/neutralC/CFD-BM-200-046-N.jpg","img/neutralC/CFD-MF-321-003-N.jpg","img/neutralC/CFD-MF-342-022-N.jpg","1","1","1","0","0","1","0.763078899998618","0.664270600001146","0.674172899999576","1","1","1","1","1","1","1","1","1"
"250012","img/neutralC/CFD-MF-342-022-N.jpg","img/neutralC/CFD-BM-200-046-N.jpg","img/neutralC/CFD-LF-215-157-N.jpg","1","1","1","1","0","0","0.674172899999576","0.763078899998618","0.514020600000549","1","1","1","1","1","1","1","1","1"
"250012","img/neutralC/CFD-LF-215-157-N.jpg","img/neutralC/CFD-MF-342-022-N.jpg","img/neutralC/CFD-AF-221-147-N.jpg","1","1","1","0","1","0","0.514020600000549","0.674172899999576","0.583464500000446","1","1","1","1","1","1","1","1","1"
"250012","img/neutralC/CFD-AF-221-147-N.jpg","img/neutralC/CFD-LF-215-157-N.jpg","img/neutralC/CFD-WM-255-219-N.jpg","1","1","1","0","0","0","0.583464500000446","0.514020600000549","0.804438799998934","1","1","1","1","1","1","1","1","1"
"250012","img/neutralC/CFD-WM-255-219-N.jpg","img/neutralC/CFD-AF-221-147-N.jpg","img/neutralC/CFD-IM-719-221-N.jpg","1","1","1","0","0","0","0.804438799998934","0.583464500000446","0.549307799999042","1","1","1","1","1","1","1","1","1"
"250012","img/neutralC/CFD-IM-719-221-N.jpg","img/neutralC/CFD-WM-255-219-N.jpg","img/neutralC/CFD-WF-245-084-N.jpg","1","1","1","0","0","1","0.549307799999042","0.804438799998934","0.794003899999552","1","1","1","1","1","1","1","1","1"
"250012","img/neutralC/CFD-WF-245-084-N.jpg","img/neutralC/CFD-IM-719-221-N.jpg","img/neutralC/CFD-WM-009-002-N.jpg","1","1","1","1","0","0","0.794003899999552","0.549307799999042","0.677378499999577","1","1","1","1","1","1","1","1","1"
"250012","img/neutralC/CFD-WM-009-002-N.jpg","img/neutralC/CFD-WF-245-084-N.jpg","img/neutralC/CFD-BF-254-201-N.jpg","1","1","1","0","1","0","0.677378499999577","0.794003899999552","0.565051399999902","1","1","1","1","1","1","1","1","1"
"250012","img/neutralC/CFD-BF-254-201-N.jpg","img/neutralC/CFD-WM-009-002-N.jpg","img/neutralC/CFD-BM-204-003-N.jpg","1","1","0","0","0","0","0.565051399999902","0.677378499999577","0.82367080000131","1","1","1","1","1","1","1","1","1"
"250012","img/neutralC/CFD-BM-204-003-N.jpg","img/neutralC/CFD-BF-254-201-N.jpg","img/neutralC/CFD-LF-211-003-N.jpg","0","1","1","0","0","0","0.82367080000131","0.565051399999902","0.513569400000961","1","1","1","1","1","1","1","1","1"
"250012","img/neutralC/CFD-LF-211-003-N.jpg","img/neutralC/CFD-BM-204-003-N.jpg","img/neutralC/CFD-WF-023-003-N.jpg","1","0","1","0","0","1","0.513569400000961","0.82367080000131","0.423389200000202","1","1","1","1","1","1","1","1","1"
"250012","img/neutralC/CFD-WF-023-003-N.jpg","img/neutralC/CFD-LF-211-003-N.jpg","img/neutralC/CFD-WF-027-003-N.jpg","1","1","1","1","0","1","0.423389200000202","0.513569400000961","0.379575699999805","1","1","1","1","1","1","1","1","1"
"250012","img/neutralC/CFD-WF-027-003-N.jpg","img/neutralC/CFD-WF-023-003-N.jpg","img/neutralC/CFD-WM-201-063-N.jpg","1","1","1","1","1","1","0.379575699999805","0.423389200000202","0.473883699999533","1","1","1","1","1","1","1","1","1"
"250012","img/neutralC/CFD-WM-201-063-N.jpg","img/neutralC/CFD-WF-027-003-N.jpg","img/neutralC/CFD-WM-237-052-N.jpg","1","1","1","1","1","1","0.473883699999533","0.379575699999805","0.475357399999666","1","1","1","1","1","1","1","1","1"
"250012","img/neutralC/CFD-WM-237-052-N.jpg","img/neutralC/CFD-WM-201-063-N.jpg","img/neutralC/CFD-WF-238-023-N.jpg","1","1","1","1","1","0","0.475357399999666","0.473883699999533","0.560561100000086","1","1","1","1","1","1","1","1","1"
"250012","img/neutralC/CFD-WF-238-023-N.jpg","img/neutralC/CFD-WM-237-052-N.jpg","img/neutralC/CFD-BF-018-039-N.jpg","1","1","1","0","1","1","0.560561100000086","0.475357399999666","0.524753799999417","1","1","1","1","1","1","1","1","1"
"250012","img/neutralC/CFD-BF-018-039-N.jpg","img/neutralC/CFD-WF-238-023-N.jpg","img/neutralC/CFD-WM-221-091-N.jpg","1","1","1","1","0","0","0.524753799999417","0.560561100000086","0.585150400001112","1","1","1","1","1","1","1","1","1"
"250012","img/neutralC/CFD-WM-221-091-N.jpg","img/neutralC/CFD-BF-018-039-N.jpg","img/neutralC/CFD-AF-232-078-N.jpg","1","1","1","0","1","1","0.585150400001112","0.524753799999417","0.45389829999931","1","1","1","1","1","1","1","1","1"
"250012","img/neutralC/CFD-AF-232-078-N.jpg","img/neutralC/CFD-WM-221-091-N.jpg","img/neutralC/CFD-IM-700-009-N.jpg","1","1","1","1","0","1","0.45389829999931","0.585150400001112","0.426377700000558","1","1","1","1","1","1","1","1","1"
"250012","img/neutralC/CFD-IM-700-009-N.jpg","img/neutralC/CFD-AF-232-078-N.jpg","img/neutralC/CFD-MF-318-022-N.jpg","1","1","1","1","1","1","0.426377700000558","0.45389829999931","0.408929300000636","1","1","1","1","1","1","1","1","1"
"250012","img/neutralC/CFD-MF-318-022-N.jpg","img/neutralC/CFD-IM-700-009-N.jpg","img/neutralC/CFD-BF-218-207-N.jpg","1","1","1","1","1","1","0.408929300000636","0.426377700000558","0.872436499998912","1","1","1","1","1","1","1","1","1"
"250012","img/neutralC/CFD-BF-218-207-N.jpg","img/neutralC/CFD-MF-318-022-N.jpg",NA,"1","1",NA,"1","1",NA,"0.872436499998912","0.408929300000636",NA,"1","1",NA,"1","1",NA,"1","1",NA
"250012","img/neutralC/CFD-AF-244-168-N.jpg",NA,"img/neutralC/CFD-AM-233-236-N.jpg","1",NA,"1","0",NA,"1","0.681727199999841",NA,"0.751132399999733","1",NA,"1","1",NA,"1","1",NA,"1"
"250012","img/neutralC/CFD-AM-233-236-N.jpg","img/neutralC/CFD-AF-244-168-N.jpg","img/neutralC/CFD-IM-669-111-N.jpg","1","1","1","1","0","1","0.751132399999733","0.681727199999841","0.464603600000373","1","1","1","1","1","1","1","1","1"
"250012","img/neutralC/CFD-IM-669-111-N.jpg","img/neutralC/CFD-AM-233-236-N.jpg","img/neutralC/CFD-BF-040-003-N.jpg","1","1","1","1","1","1","0.464603600000373","0.751132399999733","0.48580949999905","1","1","1","1","1","1","1","1","1"
"250012","img/neutralC/CFD-BF-040-003-N.jpg","img/neutralC/CFD-IM-669-111-N.jpg","img/neutralC/CFD-WF-210-086-N.jpg","1","1","1","1","1","0","0.48580949999905","0.464603600000373","0.574356199999784","1","1","1","1","1","1","1","1","1"
"250012","img/neutralC/CFD-WF-210-086-N.jpg","img/neutralC/CFD-BF-040-003-N.jpg","img/neutralC/CFD-AF-234-208-N.jpg","1","1","1","0","1","1","0.574356199999784","0.48580949999905","0.65532020000046","1","1","1","1","1","1","1","1","1"
"250012","img/neutralC/CFD-AF-234-208-N.jpg","img/neutralC/CFD-WF-210-086-N.jpg","img/neutralC/CFD-AF-213-126-N.jpg","1","1","1","1","0","1","0.65532020000046","0.574356199999784","0.543078300000161","1","1","1","1","1","1","1","1","1"
"250012","img/neutralC/CFD-AF-213-126-N.jpg","img/neutralC/CFD-AF-234-208-N.jpg","img/neutralC/CFD-IM-635-010-N.jpg","1","1","1","1","1","1","0.543078300000161","0.65532020000046","0.549949799998103","1","1","1","1","1","1","1","1","1"
"250012","img/neutralC/CFD-IM-635-010-N.jpg","img/neutralC/CFD-AF-213-126-N.jpg","img/neutralC/CFD-IF-636-011-N.jpg","1","1","1","1","1","1","0.549949799998103","0.543078300000161","0.424084899998888","1","1","1","1","1","1","1","1","1"
"250012","img/neutralC/CFD-IF-636-011-N.jpg","img/neutralC/CFD-IM-635-010-N.jpg","img/neutralC/CFD-LM-204-001-N.jpg","1","1","1","1","1","0","0.424084899998888","0.549949799998103","0.818736000000172","1","1","1","1","1","1","1","1","1"
"250012","img/neutralC/CFD-LM-204-001-N.jpg","img/neutralC/CFD-IF-636-011-N.jpg","img/neutralC/CFD-WM-018-002-N.jpg","1","1","1","0","1","0","0.818736000000172","0.424084899998888","0.510126199999831","1","1","1","1","1","1","1","1","1"
"250012","img/neutralC/CFD-WM-018-002-N.jpg","img/neutralC/CFD-LM-204-001-N.jpg","img/neutralC/CFD-LF-239-148-N.jpg","1","1","1","0","0","0","0.510126199999831","0.818736000000172","0.516025100000661","1","1","1","1","1","1","1","1","1"
"250012","img/neutralC/CFD-LF-239-148-N.jpg","img/neutralC/CFD-WM-018-002-N.jpg","img/neutralC/CFD-AF-205-155-N.jpg","1","1","1","0","0","0","0.516025100000661","0.510126199999831","0.539654900000642","1","1","1","1","1","1","1","1","1"
"250012","img/neutralC/CFD-AF-205-155-N.jpg","img/neutralC/CFD-LF-239-148-N.jpg","img/neutralC/CFD-AM-245-111-N.jpg","1","1","1","0","0","1","0.539654900000642","0.516025100000661","0.450244100001328","1","1","1","1","1","1","1","1","1"
"250012","img/neutralC/CFD-AM-245-111-N.jpg","img/neutralC/CFD-AF-205-155-N.jpg","img/neutralC/CFD-MF-307-002-N.jpg","1","1","1","1","0","1","0.450244100001328","0.539654900000642","0.41118920000099","1","1","1","1","1","1","1","1","1"
"250012","img/neutralC/CFD-MF-307-002-N.jpg","img/neutralC/CFD-AM-245-111-N.jpg","img/neutralC/CFD-IF-732-260-N.jpg","1","1","1","1","1","0","0.41118920000099","0.450244100001328","1.07181229999969","1","1","1","1","1","1","1","1","1"
"250012","img/neutralC/CFD-IF-732-260-N.jpg","img/neutralC/CFD-MF-307-002-N.jpg","img/neutralC/CFD-IM-632-097-N.jpg","1","1","1","0","1","0","1.07181229999969","0.41118920000099","0.668758000000707","1","1","1","1","1","1","1","1","1"
"250012","img/neutralC/CFD-IM-632-097-N.jpg","img/neutralC/CFD-IF-732-260-N.jpg","img/neutralC/CFD-IM-678-482-N.jpg","1","1","1","0","0","0","0.668758000000707","1.07181229999969","0.693723699999282","1","1","1","1","1","1","1","1","1"
"250012","img/neutralC/CFD-IM-678-482-N.jpg","img/neutralC/CFD-IM-632-097-N.jpg","img/neutralC/CFD-BM-215-155-N.jpg","1","1","1","0","0","0","0.693723699999282","0.668758000000707","0.5370410000005","1","1","1","1","1","1","1","1","1"
"250012","img/neutralC/CFD-BM-215-155-N.jpg","img/neutralC/CFD-IM-678-482-N.jpg","img/neutralC/CFD-AF-246-242-N.jpg","1","1","1","0","0","0","0.5370410000005","0.693723699999282","0.631384999999682","1","1","1","1","1","1","1","1","1"
"250012","img/neutralC/CFD-AF-246-242-N.jpg","img/neutralC/CFD-BM-215-155-N.jpg","img/neutralC/CFD-BF-020-002-N.jpg","1","1","1","0","0","1","0.631384999999682","0.5370410000005","0.565303099999255","1","1","1","1","1","1","1","1","1"
"250012","img/neutralC/CFD-BF-020-002-N.jpg","img/neutralC/CFD-AF-246-242-N.jpg","img/neutralC/CFD-MF-302-027-N.jpg","1","1","1","1","0","0","0.565303099999255","0.631384999999682","0.728133399999024","1","1","1","1","1","1","1","1","1"
"250012","img/neutralC/CFD-MF-302-027-N.jpg","img/neutralC/CFD-BF-020-002-N.jpg","img/neutralC/CFD-BF-206-143-N.jpg","1","1","1","0","1","1","0.728133399999024","0.565303099999255","0.57781469999918","1","1","1","1","1","1","1","1","1"
"250012","img/neutralC/CFD-BF-206-143-N.jpg","img/neutralC/CFD-MF-302-027-N.jpg","img/neutralC/CFD-AM-225-102-N.jpg","1","1","1","1","0","0","0.57781469999918","0.728133399999024","0.593323999998574","1","1","1","1","1","1","1","1","1"
"250012","img/neutralC/CFD-AM-225-102-N.jpg","img/neutralC/CFD-BF-206-143-N.jpg","img/neutralC/CFD-WF-235-121-N.jpg","1","1","1","0","1","0","0.593323999998574","0.57781469999918","0.570665399999598","1","1","1","1","1","1","1","1","1"
"250012","img/neutralC/CFD-WF-235-121-N.jpg","img/neutralC/CFD-AM-225-102-N.jpg","img/neutralC/CFD-BM-004-002-N.jpg","1","1","1","0","0","0","0.570665399999598","0.593323999998574","0.541999199999736","1","1","1","1","1","1","1","1","1"
"250012","img/neutralC/CFD-BM-004-002-N.jpg","img/neutralC/CFD-WF-235-121-N.jpg","img/neutralC/CFD-LM-241-125-N.jpg","1","1","1","0","0","1","0.541999199999736","0.570665399999598","0.669188999999278","1","1","1","1","1","1","1","1","1"
"250012","img/neutralC/CFD-LM-241-125-N.jpg","img/neutralC/CFD-BM-004-002-N.jpg","img/neutralC/CFD-BF-217-189-N.jpg","1","1","0","1","0","0","0.669188999999278","0.541999199999736","1.43710600000031","1","1","1","1","1","1","1","1","1"
"250012","img/neutralC/CFD-BF-217-189-N.jpg","img/neutralC/CFD-LM-241-125-N.jpg","img/neutralC/CFD-WM-253-119-N.jpg","0","1","1","0","1","1","1.43710600000031","0.669188999999278","0.748586999999134","1","1","1","1","1","1","1","1","1"
"250012","img/neutralC/CFD-WM-253-119-N.jpg","img/neutralC/CFD-BF-217-189-N.jpg","img/neutralC/CFD-AF-250-200-N.jpg","1","0","1","1","0","1","0.748586999999134","1.43710600000031","0.459012899999834","1","1","1","1","1","1","1","1","1"
"250012","img/neutralC/CFD-AF-250-200-N.jpg","img/neutralC/CFD-WM-253-119-N.jpg","img/neutralC/CFD-BF-042-026-N.jpg","1","1","1","1","1","1","0.459012899999834","0.748586999999134","0.728859800000464","1","1","1","1","1","1","1","1","1"
"250012","img/neutralC/CFD-BF-042-026-N.jpg","img/neutralC/CFD-AF-250-200-N.jpg","img/neutralC/CFD-BF-235-168-N.jpg","1","1","1","1","1","1","0.728859800000464","0.459012899999834","0.559545799999796","1","1","1","1","1","1","1","1","1"
"250012","img/neutralC/CFD-BF-235-168-N.jpg","img/neutralC/CFD-BF-042-026-N.jpg",NA,"1","1",NA,"1","1",NA,"0.559545799999796","0.728859800000464",NA,"1","1",NA,"1","1",NA,"1","1",NA
"250012","img/neutralC/CFD-IF-744-114-N.jpg",NA,"img/neutralC/CFD-WF-006-002-N.jpg","0",NA,"1","0",NA,"0","1.03183529999933",NA,"0.636013499998626","1",NA,"1","1",NA,"1","1",NA,"1"
"250012","img/neutralC/CFD-WF-006-002-N.jpg","img/neutralC/CFD-IF-744-114-N.jpg","img/neutralC/CFD-MF-312-002-N.jpg","1","0","1","0","0","1","0.636013499998626","1.03183529999933","0.461717600000156","1","1","1","1","1","1","1","1","1"
"250012","img/neutralC/CFD-MF-312-002-N.jpg","img/neutralC/CFD-WF-006-002-N.jpg","img/neutralC/CFD-BM-213-134-N.jpg","1","1","1","1","0","1","0.461717600000156","0.636013499998626","0.604842400000962","1","1","1","1","1","1","1","1","1"
"250012","img/neutralC/CFD-BM-213-134-N.jpg","img/neutralC/CFD-MF-312-002-N.jpg","img/neutralC/CFD-LM-238-129-N.jpg","1","1","1","1","1","1","0.604842400000962","0.461717600000156","0.486568299999817","1","1","1","1","1","1","1","1","1"
"250012","img/neutralC/CFD-LM-238-129-N.jpg","img/neutralC/CFD-BM-213-134-N.jpg","img/neutralC/CFD-LM-247-095-N.jpg","1","1","1","1","1","0","0.486568299999817","0.604842400000962","0.625340600000527","1","1","1","1","1","1","1","1","1"
"250012","img/neutralC/CFD-LM-247-095-N.jpg","img/neutralC/CFD-LM-238-129-N.jpg","img/neutralC/CFD-IM-701-312-N.jpg","1","1","1","0","1","0","0.625340600000527","0.486568299999817","0.572064900000441","1","1","1","1","1","1","1","1","1"
"250012","img/neutralC/CFD-IM-701-312-N.jpg","img/neutralC/CFD-LM-247-095-N.jpg","img/neutralC/CFD-IM-659-359-N.jpg","1","1","1","0","0","0","0.572064900000441","0.625340600000527","0.606802400000561","1","1","1","1","1","1","1","1","1"
"250012","img/neutralC/CFD-IM-659-359-N.jpg","img/neutralC/CFD-IM-701-312-N.jpg","img/neutralC/CFD-WM-202-107-N.jpg","1","1","1","0","0","1","0.606802400000561","0.572064900000441","0.392248799999834","1","1","1","1","1","1","1","1","1"
"250012","img/neutralC/CFD-WM-202-107-N.jpg","img/neutralC/CFD-IM-659-359-N.jpg","img/neutralC/CFD-LF-210-220-N.jpg","1","1","1","1","0","1","0.392248799999834","0.606802400000561","0.458108599998923","1","1","1","1","1","1","1","1","1"
"250012","img/neutralC/CFD-LF-210-220-N.jpg","img/neutralC/CFD-WM-202-107-N.jpg","img/neutralC/CFD-WF-223-133-N.jpg","1","1","0","1","1","0","0.458108599998923","0.392248799999834","0.379853600000388","1","1","1","1","1","1","1","1","1"
"250012","img/neutralC/CFD-WF-223-133-N.jpg","img/neutralC/CFD-LF-210-220-N.jpg","img/neutralC/CFD-WF-033-002-N.jpg","0","1","1","0","1","1","0.379853600000388","0.458108599998923","0.899024900000768","1","1","1","1","1","1","1","1","1"
"250012","img/neutralC/CFD-WF-033-002-N.jpg","img/neutralC/CFD-WF-223-133-N.jpg","img/neutralC/CFD-BM-028-002-N.jpg","1","0","1","1","0","1","0.899024900000768","0.379853600000388","0.579532399998243","1","1","1","1","1","1","1","1","1"
"250012","img/neutralC/CFD-BM-028-002-N.jpg","img/neutralC/CFD-WF-033-002-N.jpg","img/neutralC/CFD-BM-013-002-N.jpg","1","1","1","1","1","1","0.579532399998243","0.899024900000768","0.419150500000796","1","1","1","1","1","1","1","1","1"
"250012","img/neutralC/CFD-BM-013-002-N.jpg","img/neutralC/CFD-BM-028-002-N.jpg","img/neutralC/CFD-MF-336-016-N.jpg","1","1","1","1","1","1","0.419150500000796","0.579532399998243","0.660009199999877","1","1","1","1","1","1","1","1","1"
"250012","img/neutralC/CFD-MF-336-016-N.jpg","img/neutralC/CFD-BM-013-002-N.jpg","img/neutralC/CFD-BF-222-240-N.jpg","1","1","1","1","1","0","0.660009199999877","0.419150500000796","0.623152499999378","1","1","1","1","1","1","1","1","1"
"250012","img/neutralC/CFD-BF-222-240-N.jpg","img/neutralC/CFD-MF-336-016-N.jpg","img/neutralC/CFD-BF-004-014-N.jpg","1","1","1","0","1","1","0.623152499999378","0.660009199999877","0.562593499999821","1","1","1","1","1","1","1","1","1"
"250012","img/neutralC/CFD-BF-004-014-N.jpg","img/neutralC/CFD-BF-222-240-N.jpg","img/neutralC/CFD-AF-227-207-N.jpg","1","1","1","1","0","1","0.562593499999821","0.623152499999378","0.537430700001096","1","1","1","1","1","1","1","1","1"
"250012","img/neutralC/CFD-AF-227-207-N.jpg","img/neutralC/CFD-BF-004-014-N.jpg","img/neutralC/CFD-AF-239-171-N.jpg","1","1","1","1","1","1","0.537430700001096","0.562593499999821","0.796889799999008","1","1","1","1","1","1","1","1","1"
"250012","img/neutralC/CFD-AF-239-171-N.jpg","img/neutralC/CFD-AF-227-207-N.jpg","img/neutralC/CFD-WM-228-065-N.jpg","1","1","1","1","1","0","0.796889799999008","0.537430700001096","0.722943499999928","1","1","1","1","1","1","1","1","1"
"250012","img/neutralC/CFD-WM-228-065-N.jpg","img/neutralC/CFD-AF-239-171-N.jpg","img/neutralC/CFD-WM-254-152-N.jpg","1","1","1","0","1","1","0.722943499999928","0.796889799999008","0.781321800000114","1","1","1","1","1","1","1","1","1"
"250012","img/neutralC/CFD-WM-254-152-N.jpg","img/neutralC/CFD-WM-228-065-N.jpg","img/neutralC/CFD-LF-241-188-N.jpg","1","1","1","1","0","0","0.781321800000114","0.722943499999928","0.647871299998769","1","1","1","1","1","1","1","1","1"
"250012","img/neutralC/CFD-LF-241-188-N.jpg","img/neutralC/CFD-WM-254-152-N.jpg","img/neutralC/CFD-LF-225-164-N.jpg","1","1","1","0","1","1","0.647871299998769","0.781321800000114","0.760202599999502","1","1","1","1","1","1","1","1","1"
"250012","img/neutralC/CFD-LF-225-164-N.jpg","img/neutralC/CFD-LF-241-188-N.jpg","img/neutralC/CFD-AM-221-184-N.jpg","1","1","1","1","0","1","0.760202599999502","0.647871299998769","0.498599400000785","1","1","1","1","1","1","1","1","1"
"250012","img/neutralC/CFD-AM-221-184-N.jpg","img/neutralC/CFD-LF-225-164-N.jpg","img/neutralC/CFD-AF-210-050-N.jpg","1","1","1","1","1","1","0.498599400000785","0.760202599999502","0.41809639999974","1","1","1","1","1","1","1","1","1"
"250012","img/neutralC/CFD-AF-210-050-N.jpg","img/neutralC/CFD-AM-221-184-N.jpg","img/neutralC/CFD-IF-625-225-N.jpg","1","1","1","1","1","0","0.41809639999974","0.498599400000785","0.470809100000224","1","1","1","1","1","1","1","1","1"
"250012","img/neutralC/CFD-IF-625-225-N.jpg","img/neutralC/CFD-AF-210-050-N.jpg","img/neutralC/CFD-BM-003-003-N.jpg","1","1","0","0","1","0","0.470809100000224","0.41809639999974","0.481057899999541","1","1","1","1","1","1","1","1","1"
"250012","img/neutralC/CFD-BM-003-003-N.jpg","img/neutralC/CFD-IF-625-225-N.jpg","img/neutralC/CFD-BM-010-003-N.jpg","0","1","1","0","0","0","0.481057899999541","0.470809100000224","0.680432800000744","1","1","1","1","1","1","1","1","1"
"250012","img/neutralC/CFD-BM-010-003-N.jpg","img/neutralC/CFD-BM-003-003-N.jpg","img/neutralC/CFD-IF-673-389-N.jpg","1","0","1","0","0","0","0.680432800000744","0.481057899999541","0.701531399999112","1","1","1","1","1","1","1","1","1"
"250012","img/neutralC/CFD-IF-673-389-N.jpg","img/neutralC/CFD-BM-010-003-N.jpg","img/neutralC/CFD-LF-208-127-N.jpg","1","1","1","0","0","0","0.701531399999112","0.680432800000744","0.515009499999906","1","1","1","1","1","1","1","1","1"
"250012","img/neutralC/CFD-LF-208-127-N.jpg","img/neutralC/CFD-IF-673-389-N.jpg","img/neutralC/CFD-IM-738-191-N.jpg","1","1","1","0","0","0","0.515009499999906","0.701531399999112","0.653615500000342","1","1","1","1","1","1","1","1","1"
"250012","img/neutralC/CFD-IM-738-191-N.jpg","img/neutralC/CFD-LF-208-127-N.jpg","img/neutralC/CFD-BF-045-003-N.jpg","1","1","1","0","0","0","0.653615500000342","0.515009499999906","0.742433899999924","1","1","1","1","1","1","1","1","1"
"250012","img/neutralC/CFD-BF-045-003-N.jpg","img/neutralC/CFD-IM-738-191-N.jpg",NA,"1","1",NA,"0","0",NA,"0.742433899999924","0.653615500000342",NA,"1","1",NA,"1","1",NA,"1","1",NA
"250012","img/neutralC/CFD-MF-300-002-N.jpg",NA,"img/neutralC/CFD-IM-685-004-N.jpg","0",NA,"1","0",NA,"1","1.08663689999867",NA,"1.09784839999975","1",NA,"1","1",NA,"1","1",NA,"1"
"250012","img/neutralC/CFD-IM-685-004-N.jpg","img/neutralC/CFD-MF-300-002-N.jpg","img/neutralC/CFD-WF-212-050-N.jpg","1","0","1","1","0","0","1.09784839999975","1.08663689999867","0.58599840000079","1","1","1","1","1","1","1","1","1"
"250012","img/neutralC/CFD-WF-212-050-N.jpg","img/neutralC/CFD-IM-685-004-N.jpg","img/neutralC/CFD-MF-329-001-N.jpg","1","1","1","0","1","0","0.58599840000079","1.09784839999975","0.643689300000005","1","1","1","1","1","1","1","1","1"
"250012","img/neutralC/CFD-MF-329-001-N.jpg","img/neutralC/CFD-WF-212-050-N.jpg","img/neutralC/CFD-MF-327-002-N.jpg","1","1","1","0","0","0","0.643689300000005","0.58599840000079","0.627446799998324","1","1","1","1","1","1","1","1","1"
"250012","img/neutralC/CFD-MF-327-002-N.jpg","img/neutralC/CFD-MF-329-001-N.jpg","img/neutralC/CFD-BM-243-218-N.jpg","1","1","1","0","0","1","0.627446799998324","0.643689300000005","0.886891899998773","1","1","1","1","1","1","1","1","1"
"250012","img/neutralC/CFD-BM-243-218-N.jpg","img/neutralC/CFD-MF-327-002-N.jpg","img/neutralC/CFD-IM-604-014-N.jpg","1","1","1","1","0","0","0.886891899998773","0.627446799998324","0.628080100000261","1","1","1","1","1","1","1","1","1"
"250012","img/neutralC/CFD-IM-604-014-N.jpg","img/neutralC/CFD-BM-243-218-N.jpg","img/neutralC/CFD-WM-024-015-N.jpg","1","1","1","0","1","1","0.628080100000261","0.886891899998773","0.654916299999059","1","1","1","1","1","1","1","1","1"
"250012","img/neutralC/CFD-WM-024-015-N.jpg","img/neutralC/CFD-IM-604-014-N.jpg","img/neutralC/CFD-BM-039-029-N.jpg","1","1","1","1","0","1","0.654916299999059","0.628080100000261","0.523757299998579","1","1","1","1","1","1","1","1","1"
"250012","img/neutralC/CFD-BM-039-029-N.jpg","img/neutralC/CFD-WM-024-015-N.jpg","img/neutralC/CFD-LF-201-035-N.jpg","1","1","1","1","1","1","0.523757299998579","0.654916299999059","0.499503399999412","1","1","1","1","1","1","1","1","1"
"250012","img/neutralC/CFD-LF-201-035-N.jpg","img/neutralC/CFD-BM-039-029-N.jpg","img/neutralC/CFD-MF-340-026-N.jpg","1","1","1","1","1","1","0.499503399999412","0.523757299998579","0.437054000000899","1","1","1","1","1","1","1","1","1"
"250012","img/neutralC/CFD-MF-340-026-N.jpg","img/neutralC/CFD-LF-201-035-N.jpg","img/neutralC/CFD-BF-051-035-N.jpg","1","1","1","1","1","0","0.437054000000899","0.499503399999412","0.612730300000294","1","1","1","1","1","1","1","1","1"
"250012","img/neutralC/CFD-BF-051-035-N.jpg","img/neutralC/CFD-MF-340-026-N.jpg","img/neutralC/CFD-AM-236-090-N.jpg","1","1","1","0","1","1","0.612730300000294","0.437054000000899","0.653693499999463","1","1","1","1","1","1","1","1","1"
"250012","img/neutralC/CFD-AM-236-090-N.jpg","img/neutralC/CFD-BF-051-035-N.jpg","img/neutralC/CFD-LM-217-162-N.jpg","1","1","1","1","0","0","0.653693499999463","0.612730300000294","0.642494299999271","1","1","1","1","1","1","1","1","1"
"250012","img/neutralC/CFD-LM-217-162-N.jpg","img/neutralC/CFD-AM-236-090-N.jpg","img/neutralC/CFD-WF-012-002-N.jpg","1","1","1","0","1","1","0.642494299999271","0.653693499999463","0.618246299999555","1","1","1","1","1","1","1","1","1"
"250012","img/neutralC/CFD-WF-012-002-N.jpg","img/neutralC/CFD-LM-217-162-N.jpg","img/neutralC/CFD-WM-232-070-N.jpg","1","1","1","1","0","0","0.618246299999555","0.642494299999271","0.744288099999721","1","1","1","1","1","1","1","1","1"
"250012","img/neutralC/CFD-WM-232-070-N.jpg","img/neutralC/CFD-WF-012-002-N.jpg","img/neutralC/CFD-AF-229-160-N.jpg","1","1","1","0","1","0","0.744288099999721","0.618246299999555","0.711768600001051","1","1","1","1","1","1","1","1","1"
"250012","img/neutralC/CFD-AF-229-160-N.jpg","img/neutralC/CFD-WM-232-070-N.jpg","img/neutralC/CFD-WF-008-002-N.jpg","1","1","1","0","0","1","0.711768600001051","0.744288099999721","0.738141199998608","1","1","1","1","1","1","1","1","1"
"250012","img/neutralC/CFD-WF-008-002-N.jpg","img/neutralC/CFD-AF-229-160-N.jpg","img/neutralC/CFD-MM-304-002-N.jpg","1","1","1","1","0","1","0.738141199998608","0.711768600001051","0.474730499999168","1","1","1","1","1","1","1","1","1"
"250012","img/neutralC/CFD-MM-304-002-N.jpg","img/neutralC/CFD-WF-008-002-N.jpg","img/neutralC/CFD-WM-213-076-N.jpg","1","1","1","1","1","1","0.474730499999168","0.738141199998608","0.751961900000424","1","1","1","1","1","1","1","1","1"
"250012","img/neutralC/CFD-WM-213-076-N.jpg","img/neutralC/CFD-MM-304-002-N.jpg","img/neutralC/CFD-IM-675-015-N.jpg","1","1","1","1","1","1","0.751961900000424","0.474730499999168","0.743251099999725","1","1","1","1","1","1","1","1","1"
"250012","img/neutralC/CFD-IM-675-015-N.jpg","img/neutralC/CFD-WM-213-076-N.jpg","img/neutralC/CFD-WF-248-129-N.jpg","1","1","0","1","1","0","0.743251099999725","0.751961900000424","0.839861100000235","1","1","1","1","1","1","1","1","1"
"250012","img/neutralC/CFD-WF-248-129-N.jpg","img/neutralC/CFD-IM-675-015-N.jpg","img/neutralC/CFD-AF-215-70-N.jpg","0","1","1","0","1","0","0.839861100000235","0.743251099999725","0.716933000000608","1","1","1","1","1","1","1","1","1"
"250012","img/neutralC/CFD-AF-215-70-N.jpg","img/neutralC/CFD-WF-248-129-N.jpg","img/neutralC/CFD-AF-254-167-N.jpg","1","0","1","0","0","1","0.716933000000608","0.839861100000235","0.694953299999725","1","1","1","1","1","1","1","1","1"
"250012","img/neutralC/CFD-AF-254-167-N.jpg","img/neutralC/CFD-AF-215-70-N.jpg","img/neutralC/CFD-IM-637-007-N.jpg","1","1","1","1","0","0","0.694953299999725","0.716933000000608","0.628583599999729","1","1","1","1","1","1","1","1","1"
"250012","img/neutralC/CFD-IM-637-007-N.jpg","img/neutralC/CFD-AF-254-167-N.jpg","img/neutralC/CFD-IF-619-197-N.jpg","1","1","1","0","1","0","0.628583599999729","0.694953299999725","0.695848199998181","1","1","1","1","1","1","1","1","1"
"250012","img/neutralC/CFD-IF-619-197-N.jpg","img/neutralC/CFD-IM-637-007-N.jpg","img/neutralC/CFD-BF-224-002-N.jpg","1","1","1","0","0","1","0.695848199998181","0.628583599999729","0.609599200000048","1","1","1","1","1","1","1","1","1"
"250012","img/neutralC/CFD-BF-224-002-N.jpg","img/neutralC/CFD-IF-619-197-N.jpg","img/neutralC/CFD-LF-226-174-N.jpg","1","1","1","1","0","0","0.609599200000048","0.695848199998181","0.489735299998756","1","1","1","1","1","1","1","1","1"
"250012","img/neutralC/CFD-LF-226-174-N.jpg","img/neutralC/CFD-BF-224-002-N.jpg","img/neutralC/CFD-IF-608-390-N.jpg","1","1","1","0","1","1","0.489735299998756","0.609599200000048","0.496049000000312","1","1","1","1","1","1","1","1","1"
"250012","img/neutralC/CFD-IF-608-390-N.jpg","img/neutralC/CFD-LF-226-174-N.jpg","img/neutralC/CFD-BF-043-003-N.jpg","1","1","1","1","0","0","0.496049000000312","0.489735299998756","0.543633899999804","1","1","1","1","1","1","1","1","1"
"250012","img/neutralC/CFD-BF-043-003-N.jpg","img/neutralC/CFD-IF-608-390-N.jpg","img/neutralC/CFD-WF-217-085-N.jpg","1","1","1","0","1","1","0.543633899999804","0.496049000000312","0.715095599999586","1","1","1","1","1","1","1","1","1"
"250012","img/neutralC/CFD-WF-217-085-N.jpg","img/neutralC/CFD-BF-043-003-N.jpg","img/neutralC/CFD-IM-709-103-N.jpg","1","1","1","1","0","0","0.715095599999586","0.543633899999804","0.619289499999468","1","1","1","1","1","1","1","1","1"
"250012","img/neutralC/CFD-IM-709-103-N.jpg","img/neutralC/CFD-WF-217-085-N.jpg",NA,"1","1",NA,"0","1",NA,"0.619289499999468","0.715095599999586",NA,"1","1",NA,"1","1",NA,"1","1",NA
