"participant_id","current_trial_face","pre_trial_face","post_trial_face","current_trial_accuracy","pre_trial_accuracy","post_trial_accuracy","current_trial_congruency","pre_trial_congruency","post_trial_congruency","current_trial_rt","pre_trial_rt","post_trial_rt","current_trial_responded","pre_trial_responded","post_trial_responded","current_trial_legitResponse","pre_trial_legitResponse","post_trial_legitResponse","current_trial_resp_nums","pre_trial_resp_nums","post_trial_resp_nums"
"250042","img/neutralC/CFD-AM-249-163-N.jpg",NA,"img/neutralC/CFD-IM-697-015-N.jpg","1",NA,"1","1",NA,"1","0.694256399990991",NA,"0.399705499876291","1",NA,"1","1",NA,"1","1",NA,"1"
"250042","img/neutralC/CFD-IM-697-015-N.jpg","img/neutralC/CFD-AM-249-163-N.jpg","img/neutralC/CFD-BM-030-003-N.jpg","1","1","1","1","1","0","0.399705499876291","0.694256399990991","0.404678299790248","1","1","1","1","1","1","1","1","1"
"250042","img/neutralC/CFD-BM-030-003-N.jpg","img/neutralC/CFD-IM-697-015-N.jpg","img/neutralC/CFD-IM-615-167-N.jpg","1","1","0","0","1","0","0.404678299790248","0.399705499876291","0.309811299666762","1","1","1","1","1","1","1","1","1"
"250042","img/neutralC/CFD-IM-615-167-N.jpg","img/neutralC/CFD-BM-030-003-N.jpg","img/neutralC/CFD-IM-606-008-N.jpg","0","1","1","0","0","0","0.309811299666762","0.404678299790248","0.693169999867678","1","1","1","1","1","1","1","1","1"
"250042","img/neutralC/CFD-IM-606-008-N.jpg","img/neutralC/CFD-IM-615-167-N.jpg","img/neutralC/CFD-WF-221-005-N.jpg","1","0","1","0","0","0","0.693169999867678","0.309811299666762","0.67186709982343","1","1","1","1","1","1","1","1","1"
"250042","img/neutralC/CFD-WF-221-005-N.jpg","img/neutralC/CFD-IM-606-008-N.jpg","img/neutralC/CFD-LM-240-013-N.jpg","1","1","1","0","0","1","0.67186709982343","0.693169999867678","0.54342019977048","1","1","1","1","1","1","1","1","1"
"250042","img/neutralC/CFD-LM-240-013-N.jpg","img/neutralC/CFD-WF-221-005-N.jpg","img/neutralC/CFD-BF-244-231-N.jpg","1","1","1","1","0","1","0.54342019977048","0.67186709982343","0.506487299920991","1","1","1","1","1","1","1","1","1"
"250042","img/neutralC/CFD-BF-244-231-N.jpg","img/neutralC/CFD-LM-240-013-N.jpg","img/neutralC/CFD-IM-689-263-N.jpg","1","1","1","1","1","1","0.506487299920991","0.54342019977048","0.654380599968135","1","1","1","1","1","1","1","1","1"
"250042","img/neutralC/CFD-IM-689-263-N.jpg","img/neutralC/CFD-BF-244-231-N.jpg","img/neutralC/CFD-AM-243-212-N.jpg","1","1","1","1","1","1","0.654380599968135","0.506487299920991","0.517775499960408","1","1","1","1","1","1","1","1","1"
"250042","img/neutralC/CFD-AM-243-212-N.jpg","img/neutralC/CFD-IM-689-263-N.jpg","img/neutralC/CFD-WM-023-001-N.jpg","1","1","1","1","1","0","0.517775499960408","0.654380599968135","0.774853999726474","1","1","1","1","1","1","1","1","1"
"250042","img/neutralC/CFD-WM-023-001-N.jpg","img/neutralC/CFD-AM-243-212-N.jpg","img/neutralC/CFD-WF-241-210-N.jpg","1","1","1","0","1","0","0.774853999726474","0.517775499960408","0.699409599881619","1","1","1","1","1","1","1","1","1"
"250042","img/neutralC/CFD-WF-241-210-N.jpg","img/neutralC/CFD-WM-023-001-N.jpg","img/neutralC/CFD-AF-237-223-N.jpg","1","1","1","0","0","0","0.699409599881619","0.774853999726474","0.662478599697351","1","1","1","1","1","1","1","1","1"
"250042","img/neutralC/CFD-AF-237-223-N.jpg","img/neutralC/CFD-WF-241-210-N.jpg","img/neutralC/CFD-LF-238-154-N.jpg","1","1","1","0","0","1","0.662478599697351","0.699409599881619","1.0504483000841","1","1","1","1","1","1","1","1","1"
"250042","img/neutralC/CFD-LF-238-154-N.jpg","img/neutralC/CFD-AF-237-223-N.jpg","img/neutralC/CFD-IF-676-017-N.jpg","1","1","1","1","0","1","1.0504483000841","0.662478599697351","0.662185599794611","1","1","1","1","1","1","1","1","1"
"250042","img/neutralC/CFD-IF-676-017-N.jpg","img/neutralC/CFD-LF-238-154-N.jpg","img/neutralC/CFD-BM-020-001-N.jpg","1","1","1","1","1","0","0.662185599794611","1.0504483000841","0.869136599823833","1","1","1","1","1","1","1","1","1"
"250042","img/neutralC/CFD-BM-020-001-N.jpg","img/neutralC/CFD-IF-676-017-N.jpg","img/neutralC/CFD-WF-009-001-N.jpg","1","1","1","0","1","1","0.869136599823833","0.662185599794611","0.744644999969751","1","1","1","1","1","1","1","1","1"
"250042","img/neutralC/CFD-WF-009-001-N.jpg","img/neutralC/CFD-BM-020-001-N.jpg","img/neutralC/CFD-WF-207-014-N.jpg","1","1","1","1","0","1","0.744644999969751","0.869136599823833","0.556451999815181","1","1","1","1","1","1","1","1","1"
"250042","img/neutralC/CFD-WF-207-014-N.jpg","img/neutralC/CFD-WF-009-001-N.jpg","img/neutralC/CFD-WM-028-003-N.jpg","1","1","1","1","1","1","0.556451999815181","0.744644999969751","0.50415419973433","1","1","1","1","1","1","1","1","1"
"250042","img/neutralC/CFD-WM-028-003-N.jpg","img/neutralC/CFD-WF-207-014-N.jpg","img/neutralC/CFD-MM-306-010-N.jpg","1","1","1","1","1","0","0.50415419973433","0.556451999815181","0.563076199963689","1","1","1","1","1","1","1","1","1"
"250042","img/neutralC/CFD-MM-306-010-N.jpg","img/neutralC/CFD-WM-028-003-N.jpg","img/neutralC/CFD-WM-025-002-N.jpg","1","1","1","0","1","0","0.563076199963689","0.50415419973433","0.58324239985086","1","1","1","1","1","1","1","1","1"
"250042","img/neutralC/CFD-WM-025-002-N.jpg","img/neutralC/CFD-MM-306-010-N.jpg","img/neutralC/CFD-BM-043-071-N.jpg","1","1","1","0","0","0","0.58324239985086","0.563076199963689","0.630894199945033","1","1","1","1","1","1","1","1","1"
"250042","img/neutralC/CFD-BM-043-071-N.jpg","img/neutralC/CFD-WM-025-002-N.jpg","img/neutralC/CFD-LF-212-066-N.jpg","1","1","1","0","0","1","0.630894199945033","0.58324239985086","0.580035699764267","1","1","1","1","1","1","1","1","1"
"250042","img/neutralC/CFD-LF-212-066-N.jpg","img/neutralC/CFD-BM-043-071-N.jpg","img/neutralC/CFD-BM-021-021-N.jpg","1","1","1","1","0","1","0.580035699764267","0.630894199945033","0.612357199890539","1","1","1","1","1","1","1","1","1"
"250042","img/neutralC/CFD-BM-021-021-N.jpg","img/neutralC/CFD-LF-212-066-N.jpg","img/neutralC/CFD-BM-227-191-N.jpg","1","1","1","1","1","1","0.612357199890539","0.580035699764267","0.546115499688312","1","1","1","1","1","1","1","1","1"
"250042","img/neutralC/CFD-BM-227-191-N.jpg","img/neutralC/CFD-BM-021-021-N.jpg","img/neutralC/CFD-WF-243-148-N.jpg","1","1","1","1","1","0","0.546115499688312","0.612357199890539","0.616522199939936","1","1","1","1","1","1","1","1","1"
"250042","img/neutralC/CFD-WF-243-148-N.jpg","img/neutralC/CFD-BM-227-191-N.jpg","img/neutralC/CFD-MF-328-020-N.jpg","1","1","1","0","1","0","0.616522199939936","0.546115499688312","0.490460899891332","1","1","1","1","1","1","1","1","1"
"250042","img/neutralC/CFD-MF-328-020-N.jpg","img/neutralC/CFD-WF-243-148-N.jpg","img/neutralC/CFD-BF-012-001-N.jpg","1","1","1","0","0","0","0.490460899891332","0.616522199939936","0.669914499856532","1","1","1","1","1","1","1","1","1"
"250042","img/neutralC/CFD-BF-012-001-N.jpg","img/neutralC/CFD-MF-328-020-N.jpg","img/neutralC/CFD-AM-219-101-N.jpg","1","1","1","0","0","0","0.669914499856532","0.490460899891332","0.736912199761719","1","1","1","1","1","1","1","1","1"
"250042","img/neutralC/CFD-AM-219-101-N.jpg","img/neutralC/CFD-BF-012-001-N.jpg","img/neutralC/CFD-AM-205-153-N.jpg","1","1","1","0","0","1","0.736912199761719","0.669914499856532","0.519565899856389","1","1","1","1","1","1","1","1","1"
"250042","img/neutralC/CFD-AM-205-153-N.jpg","img/neutralC/CFD-AM-219-101-N.jpg","img/neutralC/CFD-BM-009-002-N.jpg","1","1","1","1","0","1","0.519565899856389","0.736912199761719","1.309097699821","1","1","1","1","1","1","1","1","1"
"250042","img/neutralC/CFD-BM-009-002-N.jpg","img/neutralC/CFD-AM-205-153-N.jpg","img/neutralC/CFD-LF-222-147-N.jpg","1","1","1","1","1","0","1.309097699821","0.519565899856389","0.584488499909639","1","1","1","1","1","1","1","1","1"
"250042","img/neutralC/CFD-LF-222-147-N.jpg","img/neutralC/CFD-BM-009-002-N.jpg",NA,"1","1",NA,"0","1",NA,"0.584488499909639","1.309097699821",NA,"1","1",NA,"1","1",NA,"1","1",NA
"250042","img/neutralC/CFD-BM-013-002-N.jpg",NA,"img/neutralC/CFD-BM-010-003-N.jpg","1",NA,"1","1",NA,"0","0.625246199779212",NA,"0.683513599913567","1",NA,"1","1",NA,"1","1",NA,"1"
"250042","img/neutralC/CFD-BM-010-003-N.jpg","img/neutralC/CFD-BM-013-002-N.jpg","img/neutralC/CFD-IM-738-191-N.jpg","1","1","1","0","1","0","0.683513599913567","0.625246199779212","0.453875799896196","1","1","1","1","1","1","1","1","1"
"250042","img/neutralC/CFD-IM-738-191-N.jpg","img/neutralC/CFD-BM-010-003-N.jpg","img/neutralC/CFD-BM-028-002-N.jpg","1","1","1","0","0","1","0.453875799896196","0.683513599913567","0.42023149994202","1","1","1","1","1","1","1","1","1"
"250042","img/neutralC/CFD-BM-028-002-N.jpg","img/neutralC/CFD-IM-738-191-N.jpg","img/neutralC/CFD-BF-222-240-N.jpg","1","1","1","1","0","0","0.42023149994202","0.453875799896196","0.396310499869287","1","1","1","1","1","1","1","1","1"
"250042","img/neutralC/CFD-BF-222-240-N.jpg","img/neutralC/CFD-BM-028-002-N.jpg","img/neutralC/CFD-LM-247-095-N.jpg","1","1","1","0","1","0","0.396310499869287","0.42023149994202","0.508589099859819","1","1","1","1","1","1","1","1","1"
"250042","img/neutralC/CFD-LM-247-095-N.jpg","img/neutralC/CFD-BF-222-240-N.jpg","img/neutralC/CFD-IF-744-114-N.jpg","1","1","1","0","0","0","0.508589099859819","0.396310499869287","0.490452399943024","1","1","1","1","1","1","1","1","1"
"250042","img/neutralC/CFD-IF-744-114-N.jpg","img/neutralC/CFD-LM-247-095-N.jpg","img/neutralC/CFD-LM-238-129-N.jpg","1","1","1","0","0","1","0.490452399943024","0.508589099859819","0.578318400075659","1","1","1","1","1","1","1","1","1"
"250042","img/neutralC/CFD-LM-238-129-N.jpg","img/neutralC/CFD-IF-744-114-N.jpg","img/neutralC/CFD-AF-239-171-N.jpg","1","1","1","1","0","1","0.578318400075659","0.490452399943024","0.582249599741772","1","1","1","1","1","1","1","1","1"
"250042","img/neutralC/CFD-AF-239-171-N.jpg","img/neutralC/CFD-LM-238-129-N.jpg","img/neutralC/CFD-LF-241-188-N.jpg","1","1","1","1","1","0","0.582249599741772","0.578318400075659","0.349117100005969","1","1","1","1","1","1","1","1","1"
"250042","img/neutralC/CFD-LF-241-188-N.jpg","img/neutralC/CFD-AF-239-171-N.jpg","img/neutralC/CFD-IF-625-225-N.jpg","1","1","1","0","1","0","0.349117100005969","0.582249599741772","0.559079799801111","1","1","1","1","1","1","1","1","1"
"250042","img/neutralC/CFD-IF-625-225-N.jpg","img/neutralC/CFD-LF-241-188-N.jpg","img/neutralC/CFD-IF-673-389-N.jpg","1","1","1","0","0","0","0.559079799801111","0.349117100005969","0.519083199789748","1","1","1","1","1","1","1","1","1"
"250042","img/neutralC/CFD-IF-673-389-N.jpg","img/neutralC/CFD-IF-625-225-N.jpg","img/neutralC/CFD-BM-003-003-N.jpg","1","1","0","0","0","0","0.519083199789748","0.559079799801111","0.434855700004846","1","1","1","1","1","1","1","1","1"
"250042","img/neutralC/CFD-BM-003-003-N.jpg","img/neutralC/CFD-IF-673-389-N.jpg","img/neutralC/CFD-WF-006-002-N.jpg","0","1","1","0","0","0","0.434855700004846","0.519083199789748","0.573794599855319","1","1","1","1","1","1","1","1","1"
"250042","img/neutralC/CFD-WF-006-002-N.jpg","img/neutralC/CFD-BM-003-003-N.jpg","img/neutralC/CFD-IM-659-359-N.jpg","1","0","1","0","0","0","0.573794599855319","0.434855700004846","0.579375999979675","1","1","1","1","1","1","1","1","1"
"250042","img/neutralC/CFD-IM-659-359-N.jpg","img/neutralC/CFD-WF-006-002-N.jpg","img/neutralC/CFD-MF-312-002-N.jpg","1","1","1","0","0","1","0.579375999979675","0.573794599855319","0.719620199874043","1","1","1","1","1","1","1","1","1"
"250042","img/neutralC/CFD-MF-312-002-N.jpg","img/neutralC/CFD-IM-659-359-N.jpg","img/neutralC/CFD-BF-004-014-N.jpg","1","1","1","1","0","1","0.719620199874043","0.579375999979675","0.499316999688744","1","1","1","1","1","1","1","1","1"
"250042","img/neutralC/CFD-BF-004-014-N.jpg","img/neutralC/CFD-MF-312-002-N.jpg","img/neutralC/CFD-AF-210-050-N.jpg","1","1","0","1","1","1","0.499316999688744","0.719620199874043","0.337693899869919","1","1","1","1","1","1","1","1","2"
"250042","img/neutralC/CFD-AF-210-050-N.jpg","img/neutralC/CFD-BF-004-014-N.jpg","img/neutralC/CFD-LF-225-164-N.jpg","0","1","1","1","1","1","0.337693899869919","0.499316999688744","1.04074239986949","1","1","1","1","1","1","2","1","1"
"250042","img/neutralC/CFD-LF-225-164-N.jpg","img/neutralC/CFD-AF-210-050-N.jpg","img/neutralC/CFD-WF-033-002-N.jpg","1","0","1","1","1","1","1.04074239986949","0.337693899869919","0.586998299928382","1","1","1","1","1","1","1","2","1"
"250042","img/neutralC/CFD-WF-033-002-N.jpg","img/neutralC/CFD-LF-225-164-N.jpg","img/neutralC/CFD-LF-208-127-N.jpg","1","1","1","1","1","0","0.586998299928382","1.04074239986949","0.618155400035903","1","1","1","1","1","1","1","1","1"
"250042","img/neutralC/CFD-LF-208-127-N.jpg","img/neutralC/CFD-WF-033-002-N.jpg","img/neutralC/CFD-WM-228-065-N.jpg","1","1","1","0","1","0","0.618155400035903","0.586998299928382","0.97199589991942","1","1","1","1","1","1","1","1","1"
"250042","img/neutralC/CFD-WM-228-065-N.jpg","img/neutralC/CFD-LF-208-127-N.jpg","img/neutralC/CFD-LF-210-220-N.jpg","1","1","1","0","0","1","0.97199589991942","0.618155400035903","0.676112399902195","1","1","1","1","1","1","1","1","1"
"250042","img/neutralC/CFD-LF-210-220-N.jpg","img/neutralC/CFD-WM-228-065-N.jpg","img/neutralC/CFD-WM-202-107-N.jpg","1","1","1","1","0","1","0.676112399902195","0.97199589991942","0.555942199891433","1","1","1","1","1","1","1","1","1"
"250042","img/neutralC/CFD-WM-202-107-N.jpg","img/neutralC/CFD-LF-210-220-N.jpg","img/neutralC/CFD-WM-254-152-N.jpg","1","1","1","1","1","1","0.555942199891433","0.676112399902195","0.602549199946225","1","1","1","1","1","1","1","1","1"
"250042","img/neutralC/CFD-WM-254-152-N.jpg","img/neutralC/CFD-WM-202-107-N.jpg","img/neutralC/CFD-BM-213-134-N.jpg","1","1","1","1","1","1","0.602549199946225","0.555942199891433","0.61790409986861","1","1","1","1","1","1","1","1","1"
"250042","img/neutralC/CFD-BM-213-134-N.jpg","img/neutralC/CFD-WM-254-152-N.jpg","img/neutralC/CFD-BF-045-003-N.jpg","1","1","0","1","1","0","0.61790409986861","0.602549199946225","0.494028399931267","1","1","1","1","1","1","1","1","1"
"250042","img/neutralC/CFD-BF-045-003-N.jpg","img/neutralC/CFD-BM-213-134-N.jpg","img/neutralC/CFD-IM-701-312-N.jpg","0","1","1","0","1","0","0.494028399931267","0.61790409986861","0.850646399892867","1","1","1","1","1","1","1","1","1"
"250042","img/neutralC/CFD-IM-701-312-N.jpg","img/neutralC/CFD-BF-045-003-N.jpg","img/neutralC/CFD-MF-336-016-N.jpg","1","0","1","0","0","1","0.850646399892867","0.494028399931267","0.527979699894786","1","1","1","1","1","1","1","1","1"
"250042","img/neutralC/CFD-MF-336-016-N.jpg","img/neutralC/CFD-IM-701-312-N.jpg","img/neutralC/CFD-WF-223-133-N.jpg","1","1","1","1","0","0","0.527979699894786","0.850646399892867","0.489113299874589","1","1","1","1","1","1","1","1","1"
"250042","img/neutralC/CFD-WF-223-133-N.jpg","img/neutralC/CFD-MF-336-016-N.jpg","img/neutralC/CFD-AF-227-207-N.jpg","1","1","1","0","1","1","0.489113299874589","0.527979699894786","0.64927119994536","1","1","1","1","1","1","1","1","1"
"250042","img/neutralC/CFD-AF-227-207-N.jpg","img/neutralC/CFD-WF-223-133-N.jpg","img/neutralC/CFD-AM-221-184-N.jpg","1","1","1","1","0","1","0.64927119994536","0.489113299874589","0.484111699741334","1","1","1","1","1","1","1","1","1"
"250042","img/neutralC/CFD-AM-221-184-N.jpg","img/neutralC/CFD-AF-227-207-N.jpg",NA,"1","1",NA,"1","1",NA,"0.484111699741334","0.64927119994536",NA,"1","1",NA,"1","1",NA,"1","1",NA
"250042","img/neutralC/CFD-LM-252-076-N.jpg",NA,"img/neutralC/CFD-WF-002-004-N.jpg","1",NA,"1","1",NA,"0","0.693972299806774",NA,"0.643895099870861","1",NA,"1","1",NA,"1","1",NA,"1"
"250042","img/neutralC/CFD-WF-002-004-N.jpg","img/neutralC/CFD-LM-252-076-N.jpg","img/neutralC/CFD-AM-217-085-N.jpg","1","1","0","0","1","0","0.643895099870861","0.693972299806774","0.432684900006279","1","1","1","1","1","1","1","1","1"
"250042","img/neutralC/CFD-AM-217-085-N.jpg","img/neutralC/CFD-WF-002-004-N.jpg","img/neutralC/CFD-BM-247-240-N.jpg","0","1","1","0","0","0","0.432684900006279","0.643895099870861","0.604333200026304","1","1","1","1","1","1","1","1","1"
"250042","img/neutralC/CFD-BM-247-240-N.jpg","img/neutralC/CFD-AM-217-085-N.jpg","img/neutralC/CFD-WM-038-003-N.jpg","1","0","1","0","0","0","0.604333200026304","0.432684900006279","0.587609200039878","1","1","1","1","1","1","1","1","1"
"250042","img/neutralC/CFD-WM-038-003-N.jpg","img/neutralC/CFD-BM-247-240-N.jpg","img/neutralC/CFD-IF-718-001-N.jpg","1","1","1","0","0","1","0.587609200039878","0.604333200026304","0.51056639989838","1","1","1","1","1","1","1","1","1"
"250042","img/neutralC/CFD-IF-718-001-N.jpg","img/neutralC/CFD-WM-038-003-N.jpg","img/neutralC/CFD-WM-002-009-N.jpg","1","1","1","1","0","0","0.51056639989838","0.587609200039878","0.585253499913961","1","1","1","1","1","1","1","1","1"
"250042","img/neutralC/CFD-WM-002-009-N.jpg","img/neutralC/CFD-IF-718-001-N.jpg","img/neutralC/CFD-IM-728-041-N.jpg","1","1","1","0","1","0","0.585253499913961","0.51056639989838","0.652035299921408","1","1","1","1","1","1","1","1","1"
"250042","img/neutralC/CFD-IM-728-041-N.jpg","img/neutralC/CFD-WM-002-009-N.jpg","img/neutralC/CFD-BM-211-174-N.jpg","1","1","1","0","0","0","0.652035299921408","0.585253499913961","0.514144399901852","1","1","1","1","1","1","1","1","1"
"250042","img/neutralC/CFD-BM-211-174-N.jpg","img/neutralC/CFD-IM-728-041-N.jpg","img/neutralC/CFD-LF-216-121-N.jpg","1","1","1","0","0","1","0.514144399901852","0.652035299921408","0.607481699902564","1","1","1","1","1","1","1","1","1"
"250042","img/neutralC/CFD-LF-216-121-N.jpg","img/neutralC/CFD-BM-211-174-N.jpg","img/neutralC/CFD-WM-225-127-N.jpg","1","1","1","1","0","0","0.607481699902564","0.514144399901852","0.475720999762416","1","1","1","1","1","1","1","1","1"
"250042","img/neutralC/CFD-WM-225-127-N.jpg","img/neutralC/CFD-LF-216-121-N.jpg","img/neutralC/CFD-WM-040-022-N.jpg","1","1","1","0","1","0","0.475720999762416","0.607481699902564","0.524054299807176","1","1","1","1","1","1","1","1","1"
"250042","img/neutralC/CFD-WM-040-022-N.jpg","img/neutralC/CFD-WM-225-127-N.jpg","img/neutralC/CFD-IF-672-305-N.jpg","1","1","1","0","0","0","0.524054299807176","0.475720999762416","0.529611199861392","1","1","1","1","1","1","1","1","1"
"250042","img/neutralC/CFD-IF-672-305-N.jpg","img/neutralC/CFD-WM-040-022-N.jpg","img/neutralC/CFD-BF-023-010-N.jpg","1","1","1","0","0","1","0.529611199861392","0.524054299807176","0.509043999714777","1","1","1","1","1","1","1","1","1"
"250042","img/neutralC/CFD-BF-023-010-N.jpg","img/neutralC/CFD-IF-672-305-N.jpg","img/neutralC/CFD-BF-028-001-N.jpg","1","1","1","1","0","1","0.509043999714777","0.529611199861392","0.567834599874914","1","1","1","1","1","1","1","1","1"
"250042","img/neutralC/CFD-BF-028-001-N.jpg","img/neutralC/CFD-BF-023-010-N.jpg","img/neutralC/CFD-IM-639-263-N.jpg","1","1","1","1","1","1","0.567834599874914","0.509043999714777","0.470794199733064","1","1","1","1","1","1","1","1","1"
"250042","img/neutralC/CFD-IM-639-263-N.jpg","img/neutralC/CFD-BF-028-001-N.jpg","img/neutralC/CFD-AM-215-120-N.jpg","1","1","1","1","1","1","0.470794199733064","0.567834599874914","0.482006099773571","1","1","1","1","1","1","1","1","1"
"250042","img/neutralC/CFD-AM-215-120-N.jpg","img/neutralC/CFD-IM-639-263-N.jpg","img/neutralC/CFD-WF-022-017-N.jpg","1","1","1","1","1","0","0.482006099773571","0.470794199733064","0.575424500042573","1","1","1","1","1","1","1","1","1"
"250042","img/neutralC/CFD-WF-022-017-N.jpg","img/neutralC/CFD-AM-215-120-N.jpg","img/neutralC/CFD-BF-255-140-N.jpg","1","1","1","0","1","1","0.575424500042573","0.482006099773571","0.661699899937958","1","1","1","1","1","1","1","1","1"
"250042","img/neutralC/CFD-BF-255-140-N.jpg","img/neutralC/CFD-WF-022-017-N.jpg","img/neutralC/CFD-BF-003-003-N.jpg","1","1","1","1","0","0","0.661699899937958","0.575424500042573","0.547014999901876","1","1","1","1","1","1","1","1","1"
"250042","img/neutralC/CFD-BF-003-003-N.jpg","img/neutralC/CFD-BF-255-140-N.jpg","img/neutralC/CFD-BM-029-024-N.jpg","1","1","1","0","1","1","0.547014999901876","0.661699899937958","0.646670599933714","1","1","1","1","1","1","1","1","1"
"250042","img/neutralC/CFD-BM-029-024-N.jpg","img/neutralC/CFD-BF-003-003-N.jpg","img/neutralC/CFD-LF-236-221-N.jpg","1","1","1","1","0","1","0.646670599933714","0.547014999901876","0.543619099771604","1","1","1","1","1","1","1","1","1"
"250042","img/neutralC/CFD-LF-236-221-N.jpg","img/neutralC/CFD-BM-029-024-N.jpg","img/neutralC/CFD-BF-204-189-N.jpg","1","1","1","1","1","1","0.543619099771604","0.646670599933714","0.576329299947247","1","1","1","1","1","1","1","1","1"
"250042","img/neutralC/CFD-BF-204-189-N.jpg","img/neutralC/CFD-LF-236-221-N.jpg","img/neutralC/CFD-BF-201-080-N.jpg","1","1","1","1","1","1","0.576329299947247","0.543619099771604","0.52642529970035","1","1","1","1","1","1","1","1","1"
"250042","img/neutralC/CFD-BF-201-080-N.jpg","img/neutralC/CFD-BF-204-189-N.jpg","img/neutralC/CFD-WF-026-002-N.jpg","1","1","1","1","1","1","0.52642529970035","0.576329299947247","0.568276199977845","1","1","1","1","1","1","1","1","1"
"250042","img/neutralC/CFD-WF-026-002-N.jpg","img/neutralC/CFD-BF-201-080-N.jpg","img/neutralC/CFD-AM-235-241-N.jpg","1","1","1","1","1","0","0.568276199977845","0.52642529970035","0.473301299847663","1","1","1","1","1","1","1","1","1"
"250042","img/neutralC/CFD-AM-235-241-N.jpg","img/neutralC/CFD-WF-026-002-N.jpg","img/neutralC/CFD-WM-257-161-N.jpg","1","1","1","0","1","1","0.473301299847663","0.568276199977845","0.71810539974831","1","1","1","1","1","1","1","1","1"
"250042","img/neutralC/CFD-WM-257-161-N.jpg","img/neutralC/CFD-AM-235-241-N.jpg","img/neutralC/CFD-BM-015-015-N.jpg","1","1","1","1","0","0","0.71810539974831","0.473301299847663","0.42386329988949","1","1","1","1","1","1","1","1","1"
"250042","img/neutralC/CFD-BM-015-015-N.jpg","img/neutralC/CFD-WM-257-161-N.jpg","img/neutralC/CFD-BM-027-001-N.jpg","1","1","1","0","1","0","0.42386329988949","0.71810539974831","0.541974099818617","1","1","1","1","1","1","1","1","1"
"250042","img/neutralC/CFD-BM-027-001-N.jpg","img/neutralC/CFD-BM-015-015-N.jpg","img/neutralC/CFD-IM-674-281-N.jpg","1","1","1","0","0","1","0.541974099818617","0.42386329988949","0.694971399847418","1","1","1","1","1","1","1","1","1"
"250042","img/neutralC/CFD-IM-674-281-N.jpg","img/neutralC/CFD-BM-027-001-N.jpg","img/neutralC/CFD-BF-208-266-N.jpg","1","1","1","1","0","0","0.694971399847418","0.541974099818617","0.464104800019413","1","1","1","1","1","1","1","1","1"
"250042","img/neutralC/CFD-BF-208-266-N.jpg","img/neutralC/CFD-IM-674-281-N.jpg","img/neutralC/CFD-MM-319-052-N.jpg","1","1","1","0","1","1","0.464104800019413","0.694971399847418","0.557426000013947","1","1","1","1","1","1","1","1","1"
"250042","img/neutralC/CFD-MM-319-052-N.jpg","img/neutralC/CFD-BF-208-266-N.jpg",NA,"1","1",NA,"1","0",NA,"0.557426000013947","0.464104800019413",NA,"1","1",NA,"1","1",NA,"1","1",NA
"250042","img/neutralC/CFD-AM-212-050-N.jpg",NA,"img/neutralC/CFD-LM-215-247-N.jpg","1",NA,"1","1",NA,"0","0.541533599840477",NA,"0.659636399941519","1",NA,"1","1",NA,"1","1",NA,"1"
"250042","img/neutralC/CFD-LM-215-247-N.jpg","img/neutralC/CFD-AM-212-050-N.jpg","img/neutralC/CFD-IF-634-382-N.jpg","1","1","1","0","1","1","0.659636399941519","0.541533599840477","0.470837199827656","1","1","1","1","1","1","1","1","1"
"250042","img/neutralC/CFD-IF-634-382-N.jpg","img/neutralC/CFD-LM-215-247-N.jpg","img/neutralC/CFD-BF-205-141-N.jpg","1","1","1","1","0","0","0.470837199827656","0.659636399941519","0.65162709983997","1","1","1","1","1","1","1","1","1"
"250042","img/neutralC/CFD-BF-205-141-N.jpg","img/neutralC/CFD-IF-634-382-N.jpg","img/neutralC/CFD-WF-213-031-N.jpg","1","1","1","0","1","1","0.65162709983997","0.470837199827656","0.520304299890995","1","1","1","1","1","1","1","1","1"
"250042","img/neutralC/CFD-WF-213-031-N.jpg","img/neutralC/CFD-BF-205-141-N.jpg","img/neutralC/CFD-WF-224-099-N.jpg","1","1","1","1","0","0","0.520304299890995","0.65162709983997","0.605214999988675","1","1","1","1","1","1","1","1","1"
"250042","img/neutralC/CFD-WF-224-099-N.jpg","img/neutralC/CFD-WF-213-031-N.jpg","img/neutralC/CFD-LF-205-100-N.jpg","1","1","1","0","1","1","0.605214999988675","0.520304299890995","0.55274449987337","1","1","1","1","1","1","1","1","1"
"250042","img/neutralC/CFD-LF-205-100-N.jpg","img/neutralC/CFD-WF-224-099-N.jpg","img/neutralC/CFD-LF-230-203-N.jpg","1","1","1","1","0","0","0.55274449987337","0.605214999988675","0.608753399923444","1","1","1","1","1","1","1","1","1"
"250042","img/neutralC/CFD-LF-230-203-N.jpg","img/neutralC/CFD-LF-205-100-N.jpg","img/neutralC/CFD-AF-231-357-N.jpg","1","1","1","0","1","1","0.608753399923444","0.55274449987337","0.652939999941736","1","1","1","1","1","1","1","1","1"
"250042","img/neutralC/CFD-AF-231-357-N.jpg","img/neutralC/CFD-LF-230-203-N.jpg","img/neutralC/CFD-BM-019-002-N.jpg","1","1","1","1","0","0","0.652939999941736","0.608753399923444","0.562130899867043","1","1","1","1","1","1","1","1","1"
"250042","img/neutralC/CFD-BM-019-002-N.jpg","img/neutralC/CFD-AF-231-357-N.jpg","img/neutralC/CFD-IM-684-008-N.jpg","1","1","1","0","1","1","0.562130899867043","0.652939999941736","0.45667009986937","1","1","1","1","1","1","1","1","1"
"250042","img/neutralC/CFD-IM-684-008-N.jpg","img/neutralC/CFD-BM-019-002-N.jpg","img/neutralC/CFD-LM-218-183-N.jpg","1","1","1","1","0","1","0.45667009986937","0.562130899867043","0.439845799701288","1","1","1","1","1","1","1","1","1"
"250042","img/neutralC/CFD-LM-218-183-N.jpg","img/neutralC/CFD-IM-684-008-N.jpg","img/neutralC/CFD-IF-710-016-N.jpg","1","1","1","1","1","0","0.439845799701288","0.45667009986937","0.699182799784467","1","1","1","1","1","1","1","1","1"
"250042","img/neutralC/CFD-IF-710-016-N.jpg","img/neutralC/CFD-LM-218-183-N.jpg","img/neutralC/CFD-LF-224-176-N.jpg","1","1","1","0","1","0","0.699182799784467","0.439845799701288","0.613659099908546","1","1","1","1","1","1","1","1","1"
"250042","img/neutralC/CFD-LF-224-176-N.jpg","img/neutralC/CFD-IF-710-016-N.jpg","img/neutralC/CFD-BM-033-003-N.jpg","1","1","1","0","0","0","0.613659099908546","0.699182799784467","0.654904600000009","1","1","1","1","1","1","1","1","1"
"250042","img/neutralC/CFD-BM-033-003-N.jpg","img/neutralC/CFD-LF-224-176-N.jpg","img/neutralC/CFD-BF-029-031-N.jpg","1","1","1","0","0","1","0.654904600000009","0.613659099908546","0.443877799902111","1","1","1","1","1","1","1","1","1"
"250042","img/neutralC/CFD-BF-029-031-N.jpg","img/neutralC/CFD-BM-033-003-N.jpg","img/neutralC/CFD-BF-253-202-N.jpg","1","1","1","1","0","0","0.443877799902111","0.654904600000009","0.699426799779758","1","1","1","1","1","1","1","1","1"
"250042","img/neutralC/CFD-BF-253-202-N.jpg","img/neutralC/CFD-BF-029-031-N.jpg","img/neutralC/CFD-WM-021-001-N.jpg","1","1","1","0","1","1","0.699426799779758","0.443877799902111","0.618581799790263","1","1","1","1","1","1","1","1","1"
"250042","img/neutralC/CFD-WM-021-001-N.jpg","img/neutralC/CFD-BF-253-202-N.jpg","img/neutralC/CFD-LF-203-066-N.jpg","1","1","1","1","0","0","0.618581799790263","0.699426799779758","0.576216199900955","1","1","1","1","1","1","1","1","1"
"250042","img/neutralC/CFD-LF-203-066-N.jpg","img/neutralC/CFD-WM-021-001-N.jpg","img/neutralC/CFD-BM-041-035-N.jpg","1","1","1","0","1","0","0.576216199900955","0.618581799790263","0.578243599971756","1","1","1","1","1","1","1","1","1"
"250042","img/neutralC/CFD-BM-041-035-N.jpg","img/neutralC/CFD-LF-203-066-N.jpg","img/neutralC/CFD-IM-651-308-N.jpg","1","1","1","0","0","0","0.578243599971756","0.576216199900955","0.495182499755174","1","1","1","1","1","1","1","1","1"
"250042","img/neutralC/CFD-IM-651-308-N.jpg","img/neutralC/CFD-BM-041-035-N.jpg","img/neutralC/CFD-MF-337-026-N.jpg","1","1","1","0","0","1","0.495182499755174","0.578243599971756","0.481238199863583","1","1","1","1","1","1","1","1","1"
"250042","img/neutralC/CFD-MF-337-026-N.jpg","img/neutralC/CFD-IM-651-308-N.jpg","img/neutralC/CFD-BM-239-136-N.jpg","1","1","1","1","0","1","0.481238199863583","0.495182499755174","0.688077499857172","1","1","1","1","1","1","1","1","1"
"250042","img/neutralC/CFD-BM-239-136-N.jpg","img/neutralC/CFD-MF-337-026-N.jpg","img/neutralC/CFD-BF-039-031-N.jpg","1","1","1","1","1","1","0.688077499857172","0.481238199863583","0.561689999885857","1","1","1","1","1","1","1","1","1"
"250042","img/neutralC/CFD-BF-039-031-N.jpg","img/neutralC/CFD-BM-239-136-N.jpg","img/neutralC/CFD-WM-041-021-N.jpg","1","1","1","1","1","0","0.561689999885857","0.688077499857172","0.713351199869066","1","1","1","1","1","1","1","1","1"
"250042","img/neutralC/CFD-WM-041-021-N.jpg","img/neutralC/CFD-BF-039-031-N.jpg","img/neutralC/CFD-MM-316-156-N.jpg","1","1","1","0","1","1","0.713351199869066","0.561689999885857","0.677152199903503","1","1","1","1","1","1","1","1","1"
"250042","img/neutralC/CFD-MM-316-156-N.jpg","img/neutralC/CFD-WM-041-021-N.jpg","img/neutralC/CFD-AM-201-076-N.jpg","1","1","1","1","0","1","0.677152199903503","0.713351199869066","0.666065899888054","1","1","1","1","1","1","1","1","1"
"250042","img/neutralC/CFD-AM-201-076-N.jpg","img/neutralC/CFD-MM-316-156-N.jpg","img/neutralC/CFD-BF-213-188-N.jpg","1","1","1","1","1","1","0.666065899888054","0.677152199903503","1.00190620007925","1","1","1","1","1","1","1","1","1"
"250042","img/neutralC/CFD-BF-213-188-N.jpg","img/neutralC/CFD-AM-201-076-N.jpg","img/neutralC/CFD-WF-250-167-N.jpg","1","1","1","1","1","1","1.00190620007925","0.666065899888054","0.522290899883956","1","1","1","1","1","1","1","1","1"
"250042","img/neutralC/CFD-WF-250-167-N.jpg","img/neutralC/CFD-BF-213-188-N.jpg","img/neutralC/CFD-IF-693-172-N.jpg","1","1","0","1","1","0","0.522290899883956","1.00190620007925","0.477698999922723","1","1","1","1","1","1","1","1","1"
"250042","img/neutralC/CFD-IF-693-172-N.jpg","img/neutralC/CFD-WF-250-167-N.jpg","img/neutralC/CFD-WM-011-002-N.jpg","0","1","1","0","1","0","0.477698999922723","0.522290899883956","0.613618799950927","1","1","1","1","1","1","1","1","1"
"250042","img/neutralC/CFD-WM-011-002-N.jpg","img/neutralC/CFD-IF-693-172-N.jpg","img/neutralC/CFD-LF-214-090-N.jpg","1","0","1","0","0","0","0.613618799950927","0.477698999922723","0.672973500099033","1","1","1","1","1","1","1","1","1"
"250042","img/neutralC/CFD-LF-214-090-N.jpg","img/neutralC/CFD-WM-011-002-N.jpg",NA,"1","1",NA,"0","0",NA,"0.672973500099033","0.613618799950927",NA,"1","1",NA,"1","1",NA,"1","1",NA
"250042","img/neutralC/CFD-MF-313-002-N.jpg",NA,"img/neutralC/CFD-IM-617-174-N.jpg","1",NA,"0","0",NA,"0","0.43490509991534",NA,"0.539197399746627","1",NA,"1","1",NA,"1","1",NA,"1"
"250042","img/neutralC/CFD-IM-617-174-N.jpg","img/neutralC/CFD-MF-313-002-N.jpg","img/neutralC/CFD-AF-241-141-N.jpg","0","1","1","0","0","1","0.539197399746627","0.43490509991534","0.619729999918491","1","1","1","1","1","1","1","1","1"
"250042","img/neutralC/CFD-AF-241-141-N.jpg","img/neutralC/CFD-IM-617-174-N.jpg","img/neutralC/CFD-LF-242-121-N.jpg","1","0","1","1","0","0","0.619729999918491","0.539197399746627","0.659609999740496","1","1","1","1","1","1","1","1","1"
"250042","img/neutralC/CFD-LF-242-121-N.jpg","img/neutralC/CFD-AF-241-141-N.jpg","img/neutralC/CFD-WM-242-011-N.jpg","1","1","1","0","1","0","0.659609999740496","0.619729999918491","0.652392499847338","1","1","1","1","1","1","1","1","1"
"250042","img/neutralC/CFD-WM-242-011-N.jpg","img/neutralC/CFD-LF-242-121-N.jpg","img/neutralC/CFD-WM-258-125-N.jpg","1","1","1","0","0","0","0.652392499847338","0.659609999740496","0.626218799734488","1","1","1","1","1","1","1","1","1"
"250042","img/neutralC/CFD-WM-258-125-N.jpg","img/neutralC/CFD-WM-242-011-N.jpg","img/neutralC/CFD-IM-686-097-N.jpg","1","1","1","0","0","0","0.626218799734488","0.652392499847338","0.587878699880093","1","1","1","1","1","1","1","1","1"
"250042","img/neutralC/CFD-IM-686-097-N.jpg","img/neutralC/CFD-WM-258-125-N.jpg","img/neutralC/CFD-IM-653-008-N.jpg","1","1","1","0","0","0","0.587878699880093","0.626218799734488","0.531868699938059","1","1","1","1","1","1","1","1","1"
"250042","img/neutralC/CFD-IM-653-008-N.jpg","img/neutralC/CFD-IM-686-097-N.jpg","img/neutralC/CFD-BF-238-190-N.jpg","1","1","1","0","0","1","0.531868699938059","0.587878699880093","0.432528199860826","1","1","1","1","1","1","1","1","1"
"250042","img/neutralC/CFD-BF-238-190-N.jpg","img/neutralC/CFD-IM-653-008-N.jpg","img/neutralC/CFD-BM-212-117-N.jpg","1","1","1","1","0","0","0.432528199860826","0.531868699938059","0.499592300038785","1","1","1","1","1","1","1","1","1"
"250042","img/neutralC/CFD-BM-212-117-N.jpg","img/neutralC/CFD-BF-238-190-N.jpg","img/neutralC/CFD-IM-727-195-N.jpg","1","1","1","0","1","1","0.499592300038785","0.432528199860826","0.52595269982703","1","1","1","1","1","1","1","1","1"
"250042","img/neutralC/CFD-IM-727-195-N.jpg","img/neutralC/CFD-BM-212-117-N.jpg","img/neutralC/CFD-WM-227-099-N.jpg","1","1","1","1","0","1","0.52595269982703","0.499592300038785","0.497905999887735","1","1","1","1","1","1","1","1","1"
"250042","img/neutralC/CFD-WM-227-099-N.jpg","img/neutralC/CFD-IM-727-195-N.jpg","img/neutralC/CFD-AF-202-122-N.jpg","1","1","1","1","1","1","0.497905999887735","0.52595269982703","0.580811399733648","1","1","1","1","1","1","1","1","1"
"250042","img/neutralC/CFD-AF-202-122-N.jpg","img/neutralC/CFD-WM-227-099-N.jpg","img/neutralC/CFD-LF-245-166-N.jpg","1","1","1","1","1","1","0.580811399733648","0.497905999887735","0.552579299779609","1","1","1","1","1","1","1","1","1"
"250042","img/neutralC/CFD-LF-245-166-N.jpg","img/neutralC/CFD-AF-202-122-N.jpg","img/neutralC/CFD-BF-033-028-N.jpg","1","1","1","1","1","0","0.552579299779609","0.580811399733648","0.7947937999852","1","1","1","1","1","1","1","1","1"
"250042","img/neutralC/CFD-BF-033-028-N.jpg","img/neutralC/CFD-LF-245-166-N.jpg","img/neutralC/CFD-LM-219-295-N.jpg","1","1","1","0","1","1","0.7947937999852","0.552579299779609","0.530218799831346","1","1","1","1","1","1","1","1","1"
"250042","img/neutralC/CFD-LM-219-295-N.jpg","img/neutralC/CFD-BF-033-028-N.jpg","img/neutralC/CFD-BM-005-003-N.jpg","1","1","1","1","0","1","0.530218799831346","0.7947937999852","0.600692699896172","1","1","1","1","1","1","1","1","1"
"250042","img/neutralC/CFD-BM-005-003-N.jpg","img/neutralC/CFD-LM-219-295-N.jpg","img/neutralC/CFD-LM-226-175-N.jpg","1","1","0","1","1","0","0.600692699896172","0.530218799831346","0.509339499985799","1","1","1","1","1","1","1","1","1"
"250042","img/neutralC/CFD-LM-226-175-N.jpg","img/neutralC/CFD-BM-005-003-N.jpg","img/neutralC/CFD-IM-638-250-1-N.jpg","0","1","1","0","1","1","0.509339499985799","0.600692699896172","0.469499499769881","1","1","1","1","1","1","1","1","1"
"250042","img/neutralC/CFD-IM-638-250-1-N.jpg","img/neutralC/CFD-LM-226-175-N.jpg","img/neutralC/CFD-BM-231-155-N.jpg","1","0","1","1","0","1","0.469499499769881","0.509339499985799","0.477196199819446","1","1","1","1","1","1","1","1","1"
"250042","img/neutralC/CFD-BM-231-155-N.jpg","img/neutralC/CFD-IM-638-250-1-N.jpg","img/neutralC/CFD-BM-018-001-N.jpg","1","1","1","1","1","1","0.477196199819446","0.469499499769881","0.59237189986743","1","1","1","1","1","1","1","1","1"
"250042","img/neutralC/CFD-BM-018-001-N.jpg","img/neutralC/CFD-BM-231-155-N.jpg","img/neutralC/CFD-BM-026-002-N.jpg","1","1","1","1","1","0","0.59237189986743","0.477196199819446","0.536465399898589","1","1","1","1","1","1","1","1","1"
"250042","img/neutralC/CFD-BM-026-002-N.jpg","img/neutralC/CFD-BM-018-001-N.jpg","img/neutralC/CFD-LF-250-169-N.jpg","1","1","1","0","1","1","0.536465399898589","0.59237189986743","0.52428949996829","1","1","1","1","1","1","1","1","1"
"250042","img/neutralC/CFD-LF-250-169-N.jpg","img/neutralC/CFD-BM-026-002-N.jpg","img/neutralC/CFD-IF-620-218-N.jpg","1","1","1","1","0","0","0.52428949996829","0.536465399898589","0.413484999909997","1","1","1","1","1","1","1","1","1"
"250042","img/neutralC/CFD-IF-620-218-N.jpg","img/neutralC/CFD-LF-250-169-N.jpg","img/neutralC/CFD-WF-209-052-N.jpg","1","1","1","0","1","1","0.413484999909997","0.52428949996829","0.484227899927646","1","1","1","1","1","1","1","1","1"
"250042","img/neutralC/CFD-WF-209-052-N.jpg","img/neutralC/CFD-IF-620-218-N.jpg","img/neutralC/CFD-WM-017-002-N.jpg","1","1","1","1","0","0","0.484227899927646","0.413484999909997","0.52343890001066","1","1","1","1","1","1","1","1","1"
"250042","img/neutralC/CFD-WM-017-002-N.jpg","img/neutralC/CFD-WF-209-052-N.jpg","img/neutralC/CFD-BF-010-001-N.jpg","1","1","1","0","1","1","0.52343890001066","0.484227899927646","0.432346499757841","1","1","1","1","1","1","1","1","1"
"250042","img/neutralC/CFD-BF-010-001-N.jpg","img/neutralC/CFD-WM-017-002-N.jpg","img/neutralC/CFD-LF-247-051-N.jpg","1","1","1","1","0","1","0.432346499757841","0.52343890001066","0.596802099840716","1","1","1","1","1","1","1","1","1"
"250042","img/neutralC/CFD-LF-247-051-N.jpg","img/neutralC/CFD-BF-010-001-N.jpg","img/neutralC/CFD-AF-206-079-N.jpg","1","1","1","1","1","1","0.596802099840716","0.432346499757841","0.606405999977142","1","1","1","1","1","1","1","1","1"
"250042","img/neutralC/CFD-AF-206-079-N.jpg","img/neutralC/CFD-LF-247-051-N.jpg","img/neutralC/CFD-IF-665-015-N.jpg","1","1","1","1","1","0","0.606405999977142","0.596802099840716","0.533967199968174","1","1","1","1","1","1","1","1","1"
"250042","img/neutralC/CFD-IF-665-015-N.jpg","img/neutralC/CFD-AF-206-079-N.jpg","img/neutralC/CFD-IM-657-308-N.jpg","1","1","1","0","1","0","0.533967199968174","0.606405999977142","0.516094799851999","1","1","1","1","1","1","1","1","1"
"250042","img/neutralC/CFD-IM-657-308-N.jpg","img/neutralC/CFD-IF-665-015-N.jpg","img/neutralC/CFD-LM-233-171-N.jpg","1","1","1","0","0","0","0.516094799851999","0.533967199968174","0.801923099672422","1","1","1","1","1","1","1","1","1"
"250042","img/neutralC/CFD-LM-233-171-N.jpg","img/neutralC/CFD-IM-657-308-N.jpg",NA,"1","1",NA,"0","0",NA,"0.801923099672422","0.516094799851999",NA,"1","1",NA,"1","1",NA,"1","1",NA
"250042","img/neutralC/CFD-WM-026-001-N.jpg",NA,"img/neutralC/CFD-BF-202-109-N.jpg","1",NA,"1","1",NA,"1","0.599210099782795",NA,"0.594722300069407","1",NA,"1","1",NA,"1","1",NA,"1"
"250042","img/neutralC/CFD-BF-202-109-N.jpg","img/neutralC/CFD-WM-026-001-N.jpg","img/neutralC/CFD-IM-648-337-N.jpg","1","1","1","1","1","0","0.594722300069407","0.599210099782795","0.637622799957171","1","1","1","1","1","1","1","1","1"
"250042","img/neutralC/CFD-IM-648-337-N.jpg","img/neutralC/CFD-BF-202-109-N.jpg","img/neutralC/CFD-MM-317-061-N.jpg","1","1","1","0","1","1","0.637622799957171","0.594722300069407","0.546083600027487","1","1","1","1","1","1","1","1","1"
"250042","img/neutralC/CFD-MM-317-061-N.jpg","img/neutralC/CFD-IM-648-337-N.jpg","img/neutralC/CFD-IM-646-023-N.jpg","1","1","1","1","0","1","0.546083600027487","0.637622799957171","0.621384999714792","1","1","1","1","1","1","1","1","1"
"250042","img/neutralC/CFD-IM-646-023-N.jpg","img/neutralC/CFD-MM-317-061-N.jpg","img/neutralC/CFD-BM-251-013-N.jpg","1","1","1","1","1","1","0.621384999714792","0.546083600027487","0.398247399833053","1","1","1","1","1","1","1","1","1"
"250042","img/neutralC/CFD-BM-251-013-N.jpg","img/neutralC/CFD-IM-646-023-N.jpg","img/neutralC/CFD-AF-240-206-N.jpg","1","1","1","1","1","0","0.398247399833053","0.621384999714792","0.480346499942243","1","1","1","1","1","1","1","1","1"
"250042","img/neutralC/CFD-AF-240-206-N.jpg","img/neutralC/CFD-BM-251-013-N.jpg","img/neutralC/CFD-AM-247-165-N.jpg","1","1","1","0","1","1","0.480346499942243","0.398247399833053","0.563358099665493","1","1","1","1","1","1","1","1","1"
"250042","img/neutralC/CFD-AM-247-165-N.jpg","img/neutralC/CFD-AF-240-206-N.jpg","img/neutralC/CFD-LM-244-068-N.jpg","1","1","1","1","0","1","0.563358099665493","0.480346499942243","0.486689299810678","1","1","1","1","1","1","1","1","1"
"250042","img/neutralC/CFD-LM-244-068-N.jpg","img/neutralC/CFD-AM-247-165-N.jpg","img/neutralC/CFD-LM-201-057-N.jpg","1","1","1","1","1","1","0.486689299810678","0.563358099665493","0.685074099805206","1","1","1","1","1","1","1","1","1"
"250042","img/neutralC/CFD-LM-201-057-N.jpg","img/neutralC/CFD-LM-244-068-N.jpg","img/neutralC/CFD-LM-216-082-N.jpg","1","1","1","1","1","0","0.685074099805206","0.486689299810678","0.588414500001818","1","1","1","1","1","1","1","1","1"
"250042","img/neutralC/CFD-LM-216-082-N.jpg","img/neutralC/CFD-LM-201-057-N.jpg","img/neutralC/CFD-WM-249-239-N.jpg","1","1","1","0","1","1","0.588414500001818","0.685074099805206","0.670691499952227","1","1","1","1","1","1","1","1","1"
"250042","img/neutralC/CFD-WM-249-239-N.jpg","img/neutralC/CFD-LM-216-082-N.jpg","img/neutralC/CFD-MF-309-002-N.jpg","1","1","1","1","0","0","0.670691499952227","0.588414500001818","0.59493779973127","1","1","1","1","1","1","1","1","1"
"250042","img/neutralC/CFD-MF-309-002-N.jpg","img/neutralC/CFD-WM-249-239-N.jpg","img/neutralC/CFD-WM-212-097-N.jpg","1","1","1","0","1","0","0.59493779973127","0.670691499952227","0.458347300067544","1","1","1","1","1","1","1","1","1"
"250042","img/neutralC/CFD-WM-212-097-N.jpg","img/neutralC/CFD-MF-309-002-N.jpg","img/neutralC/CFD-BF-228-212-N.jpg","1","1","1","0","0","0","0.458347300067544","0.59493779973127","0.661605299916118","1","1","1","1","1","1","1","1","1"
"250042","img/neutralC/CFD-BF-228-212-N.jpg","img/neutralC/CFD-WM-212-097-N.jpg","img/neutralC/CFD-WM-019-003-N.jpg","1","1","1","0","0","1","0.661605299916118","0.458347300067544","0.568517399718985","1","1","1","1","1","1","1","1","1"
"250042","img/neutralC/CFD-WM-019-003-N.jpg","img/neutralC/CFD-BF-228-212-N.jpg","img/neutralC/CFD-BF-025-002-N.jpg","1","1","1","1","0","0","0.568517399718985","0.661605299916118","0.543360099894926","1","1","1","1","1","1","1","1","1"
"250042","img/neutralC/CFD-BF-025-002-N.jpg","img/neutralC/CFD-WM-019-003-N.jpg","img/neutralC/CFD-LM-243-075-N.jpg","1","1","1","0","1","0","0.543360099894926","0.568517399718985","0.66868449980393","1","1","1","1","1","1","1","1","1"
"250042","img/neutralC/CFD-LM-243-075-N.jpg","img/neutralC/CFD-BF-025-002-N.jpg","img/neutralC/CFD-BF-212-315-N.jpg","1","1","1","0","0","1","0.66868449980393","0.543360099894926","0.558287200052291","1","1","1","1","1","1","1","1","1"
"250042","img/neutralC/CFD-BF-212-315-N.jpg","img/neutralC/CFD-LM-243-075-N.jpg","img/neutralC/CFD-BM-248-128-N.jpg","1","1","0","1","0","0","0.558287200052291","0.66868449980393","0.710596899967641","1","1","1","1","1","1","1","1","1"
"250042","img/neutralC/CFD-BM-248-128-N.jpg","img/neutralC/CFD-BF-212-315-N.jpg","img/neutralC/CFD-MF-335-002-N.jpg","0","1","1","0","1","0","0.710596899967641","0.558287200052291","0.54099759995006","1","1","1","1","1","1","1","1","1"
"250042","img/neutralC/CFD-MF-335-002-N.jpg","img/neutralC/CFD-BM-248-128-N.jpg","img/neutralC/CFD-WF-017-003-N.jpg","1","0","1","0","0","1","0.54099759995006","0.710596899967641","0.69805429992266","1","1","1","1","1","1","1","1","1"
"250042","img/neutralC/CFD-WF-017-003-N.jpg","img/neutralC/CFD-MF-335-002-N.jpg","img/neutralC/CFD-WF-228-196-N.jpg","1","1","1","1","0","0","0.69805429992266","0.54099759995006","0.605705299880356","1","1","1","1","1","1","1","1","1"
"250042","img/neutralC/CFD-WF-228-196-N.jpg","img/neutralC/CFD-WF-017-003-N.jpg","img/neutralC/CFD-LM-214-165-N.jpg","1","1","1","0","1","1","0.605705299880356","0.69805429992266","0.514143899781629","1","1","1","1","1","1","1","1","1"
"250042","img/neutralC/CFD-LM-214-165-N.jpg","img/neutralC/CFD-WF-228-196-N.jpg","img/neutralC/CFD-WM-006-002-N.jpg","1","1","1","1","0","0","0.514143899781629","0.605705299880356","0.537018199916929","1","1","1","1","1","1","1","1","1"
"250042","img/neutralC/CFD-WM-006-002-N.jpg","img/neutralC/CFD-LM-214-165-N.jpg","img/neutralC/CFD-WM-215-041-N.jpg","1","1","1","0","1","0","0.537018199916929","0.514143899781629","0.522965099895373","1","1","1","1","1","1","1","1","1"
"250042","img/neutralC/CFD-WM-215-041-N.jpg","img/neutralC/CFD-WM-006-002-N.jpg","img/neutralC/CFD-BM-205-001-N.jpg","1","1","0","0","0","0","0.522965099895373","0.537018199916929","0.341961199883372","1","1","1","1","1","1","1","1","1"
"250042","img/neutralC/CFD-BM-205-001-N.jpg","img/neutralC/CFD-WM-215-041-N.jpg","img/neutralC/CFD-WF-005-010-N.jpg","0","1","1","0","0","0","0.341961199883372","0.522965099895373","0.548724899766967","1","1","1","1","1","1","1","1","1"
"250042","img/neutralC/CFD-WF-005-010-N.jpg","img/neutralC/CFD-BM-205-001-N.jpg","img/neutralC/CFD-WF-240-083-N.jpg","1","0","1","0","0","0","0.548724899766967","0.341961199883372","0.663826300064102","1","1","1","1","1","1","1","1","1"
"250042","img/neutralC/CFD-WF-240-083-N.jpg","img/neutralC/CFD-WF-005-010-N.jpg","img/neutralC/CFD-WM-012-001-N.jpg","1","1","1","0","0","1","0.663826300064102","0.548724899766967","0.688624399947003","1","1","1","1","1","1","1","1","1"
"250042","img/neutralC/CFD-WM-012-001-N.jpg","img/neutralC/CFD-WF-240-083-N.jpg","img/neutralC/CFD-IF-642-295-N.jpg","1","1","1","1","0","1","0.688624399947003","0.663826300064102","0.574570399941877","1","1","1","1","1","1","1","1","1"
"250042","img/neutralC/CFD-IF-642-295-N.jpg","img/neutralC/CFD-WM-012-001-N.jpg","img/neutralC/CFD-BF-041-001-N.jpg","1","1","1","1","1","1","0.574570399941877","0.688624399947003","0.520332999993116","1","1","1","1","1","1","1","1","1"
"250042","img/neutralC/CFD-BF-041-001-N.jpg","img/neutralC/CFD-IF-642-295-N.jpg",NA,"1","1",NA,"1","1",NA,"0.520332999993116","0.574570399941877",NA,"1","1",NA,"1","1",NA,"1","1",NA
"250042","img/neutralC/CFD-BF-027-002-N.jpg",NA,"img/neutralC/CFD-BM-241-235-N.jpg","1",NA,"1","1",NA,"0","0.696317499736324",NA,"0.386053299764171","1",NA,"1","1",NA,"1","1",NA,"1"
"250042","img/neutralC/CFD-BM-241-235-N.jpg","img/neutralC/CFD-BF-027-002-N.jpg","img/neutralC/CFD-IM-707-105-N.jpg","1","1","0","0","1","1","0.386053299764171","0.696317499736324","0.559481599833816","1","1","1","1","1","1","1","1","1"
"250042","img/neutralC/CFD-IM-707-105-N.jpg","img/neutralC/CFD-BM-241-235-N.jpg","img/neutralC/CFD-LF-204-133-N.jpg","0","1","0","1","0","1","0.559481599833816","0.386053299764171","0.918591599911451","1","1","1","1","1","1","1","1","1"
"250042","img/neutralC/CFD-LF-204-133-N.jpg","img/neutralC/CFD-IM-707-105-N.jpg","img/neutralC/CFD-BM-036-003-N.jpg","0","0","1","1","1","1","0.918591599911451","0.559481599833816","0.621420799987391","1","1","1","1","1","1","1","1","1"
"250042","img/neutralC/CFD-BM-036-003-N.jpg","img/neutralC/CFD-LF-204-133-N.jpg","img/neutralC/CFD-IM-696-001-N.jpg","1","0","1","1","1","0","0.621420799987391","0.918591599911451","0.530482300091535","1","1","1","1","1","1","1","1","1"
"250042","img/neutralC/CFD-IM-696-001-N.jpg","img/neutralC/CFD-BM-036-003-N.jpg","img/neutralC/CFD-AM-230-150-N.jpg","1","1","1","0","1","0","0.530482300091535","0.621420799987391","0.658043500036001","1","1","1","1","1","1","1","1","1"
"250042","img/neutralC/CFD-AM-230-150-N.jpg","img/neutralC/CFD-IM-696-001-N.jpg","img/neutralC/CFD-IF-729-393-N.jpg","1","1","1","0","0","0","0.658043500036001","0.530482300091535","0.698461099760607","1","1","1","1","1","1","1","1","1"
"250042","img/neutralC/CFD-IF-729-393-N.jpg","img/neutralC/CFD-AM-230-150-N.jpg","img/neutralC/CFD-BM-238-242-N.jpg","1","1","1","0","0","0","0.698461099760607","0.658043500036001","0.462989799911156","1","1","1","1","1","1","1","1","1"
"250042","img/neutralC/CFD-BM-238-242-N.jpg","img/neutralC/CFD-IF-729-393-N.jpg","img/neutralC/CFD-IM-726-248-N.jpg","1","1","1","0","0","0","0.462989799911156","0.698461099760607","0.633780199801549","1","1","1","1","1","1","1","1","1"
"250042","img/neutralC/CFD-IM-726-248-N.jpg","img/neutralC/CFD-BM-238-242-N.jpg","img/neutralC/CFD-MF-301-024-N.jpg","1","1","1","0","0","0","0.633780199801549","0.462989799911156","0.725367599865422","1","1","1","1","1","1","1","1","1"
"250042","img/neutralC/CFD-MF-301-024-N.jpg","img/neutralC/CFD-IM-726-248-N.jpg","img/neutralC/CFD-WF-234-086-N.jpg","1","1","1","0","0","1","0.725367599865422","0.633780199801549","0.536630999762565","1","1","1","1","1","1","1","1","1"
"250042","img/neutralC/CFD-WF-234-086-N.jpg","img/neutralC/CFD-MF-301-024-N.jpg","img/neutralC/CFD-IM-721-341-N.jpg","1","1","1","1","0","1","0.536630999762565","0.725367599865422","0.516564299818128","1","1","1","1","1","1","1","1","1"
"250042","img/neutralC/CFD-IM-721-341-N.jpg","img/neutralC/CFD-WF-234-086-N.jpg","img/neutralC/CFD-BF-011-002-N.jpg","1","1","1","1","1","1","0.516564299818128","0.536630999762565","0.618022599956021","1","1","1","1","1","1","1","1","1"
"250042","img/neutralC/CFD-BF-011-002-N.jpg","img/neutralC/CFD-IM-721-341-N.jpg","img/neutralC/CFD-WM-014-002-N.jpg","1","1","1","1","1","0","0.618022599956021","0.516564299818128","0.5933689000085","1","1","1","1","1","1","1","1","1"
"250042","img/neutralC/CFD-WM-014-002-N.jpg","img/neutralC/CFD-BF-011-002-N.jpg","img/neutralC/CFD-WF-208-068-N.jpg","1","1","1","0","1","1","0.5933689000085","0.618022599956021","0.490189799806103","1","1","1","1","1","1","1","1","1"
"250042","img/neutralC/CFD-WF-208-068-N.jpg","img/neutralC/CFD-WM-014-002-N.jpg","img/neutralC/CFD-BF-214-308-N.jpg","1","1","1","1","0","1","0.490189799806103","0.5933689000085","0.572361199883744","1","1","1","1","1","1","1","1","1"
"250042","img/neutralC/CFD-BF-214-308-N.jpg","img/neutralC/CFD-WF-208-068-N.jpg","img/neutralC/CFD-IF-677-452-1-N.jpg","1","1","1","1","1","1","0.572361199883744","0.490189799806103","0.472035099752247","1","1","1","1","1","1","1","1","1"
"250042","img/neutralC/CFD-IF-677-452-1-N.jpg","img/neutralC/CFD-BF-214-308-N.jpg","img/neutralC/CFD-BF-207-004-N.jpg","1","1","1","1","1","1","0.472035099752247","0.572361199883744","0.611239999998361","1","1","1","1","1","1","1","1","1"
"250042","img/neutralC/CFD-BF-207-004-N.jpg","img/neutralC/CFD-IF-677-452-1-N.jpg","img/neutralC/CFD-WM-034-030-N.jpg","1","1","1","1","1","1","0.611239999998361","0.472035099752247","0.666385599877685","1","1","1","1","1","1","1","1","1"
"250042","img/neutralC/CFD-WM-034-030-N.jpg","img/neutralC/CFD-BF-207-004-N.jpg","img/neutralC/CFD-LM-213-061-N.jpg","1","1","1","1","1","0","0.666385599877685","0.611239999998361","0.709337099920958","1","1","1","1","1","1","1","1","1"
"250042","img/neutralC/CFD-LM-213-061-N.jpg","img/neutralC/CFD-WM-034-030-N.jpg","img/neutralC/CFD-WF-029-002-N.jpg","1","1","1","0","1","0","0.709337099920958","0.666385599877685","0.56395349977538","1","1","1","1","1","1","1","1","1"
"250042","img/neutralC/CFD-WF-029-002-N.jpg","img/neutralC/CFD-LM-213-061-N.jpg","img/neutralC/CFD-BF-247-179-N.jpg","1","1","1","0","0","0","0.56395349977538","0.709337099920958","0.652457699878141","1","1","1","1","1","1","1","1","1"
"250042","img/neutralC/CFD-BF-247-179-N.jpg","img/neutralC/CFD-WF-029-002-N.jpg","img/neutralC/CFD-WM-248-036-N.jpg","1","1","1","0","0","1","0.652457699878141","0.56395349977538","0.6296298999805","1","1","1","1","1","1","1","1","1"
"250042","img/neutralC/CFD-WM-248-036-N.jpg","img/neutralC/CFD-BF-247-179-N.jpg","img/neutralC/CFD-BF-002-001-N.jpg","1","1","1","1","0","0","0.6296298999805","0.652457699878141","0.518838299904019","1","1","1","1","1","1","1","1","1"
"250042","img/neutralC/CFD-BF-002-001-N.jpg","img/neutralC/CFD-WM-248-036-N.jpg","img/neutralC/CFD-BF-006-017-N.jpg","1","1","1","0","1","0","0.518838299904019","0.6296298999805","0.561545100063086","1","1","1","1","1","1","1","1","1"
"250042","img/neutralC/CFD-BF-006-017-N.jpg","img/neutralC/CFD-BF-002-001-N.jpg","img/neutralC/CFD-BF-044-034-N.jpg","1","1","1","0","0","0","0.561545100063086","0.518838299904019","0.596358200069517","1","1","1","1","1","1","1","1","1"
"250042","img/neutralC/CFD-BF-044-034-N.jpg","img/neutralC/CFD-BF-006-017-N.jpg","img/neutralC/CFD-WF-233-112-N.jpg","1","1","1","0","0","1","0.596358200069517","0.561545100063086","0.693261899985373","1","1","1","1","1","1","1","1","1"
"250042","img/neutralC/CFD-WF-233-112-N.jpg","img/neutralC/CFD-BF-044-034-N.jpg","img/neutralC/CFD-IF-742-103-N.jpg","1","1","1","1","0","1","0.693261899985373","0.596358200069517","0.719354399945587","1","1","1","1","1","1","1","1","1"
"250042","img/neutralC/CFD-IF-742-103-N.jpg","img/neutralC/CFD-WF-233-112-N.jpg","img/neutralC/CFD-BM-207-024-N.jpg","1","1","1","1","1","1","0.719354399945587","0.693261899985373","0.626056599896401","1","1","1","1","1","1","1","1","1"
"250042","img/neutralC/CFD-BM-207-024-N.jpg","img/neutralC/CFD-IF-742-103-N.jpg","img/neutralC/CFD-BF-236-177-N.jpg","1","1","1","1","1","0","0.626056599896401","0.719354399945587","0.621688899816945","1","1","1","1","1","1","1","1","1"
"250042","img/neutralC/CFD-BF-236-177-N.jpg","img/neutralC/CFD-BM-207-024-N.jpg","img/neutralC/CFD-BF-036-027-N.jpg","1","1","1","0","1","0","0.621688899816945","0.626056599896401","0.525354899931699","1","1","1","1","1","1","1","1","1"
"250042","img/neutralC/CFD-BF-036-027-N.jpg","img/neutralC/CFD-BF-236-177-N.jpg",NA,"1","1",NA,"0","0",NA,"0.525354899931699","0.621688899816945",NA,"1","1",NA,"1","1",NA,"1","1",NA
"250042","img/neutralC/CFD-MF-340-026-N.jpg",NA,"img/neutralC/CFD-WF-012-002-N.jpg","1",NA,"1","1",NA,"1","0.649687999859452",NA,"0.792676099808887","1",NA,"1","1",NA,"1","1",NA,"1"
"250042","img/neutralC/CFD-WF-012-002-N.jpg","img/neutralC/CFD-MF-340-026-N.jpg","img/neutralC/CFD-MF-300-002-N.jpg","1","1","1","1","1","0","0.792676099808887","0.649687999859452","0.566847199806944","1","1","1","1","1","1","1","1","1"
"250042","img/neutralC/CFD-MF-300-002-N.jpg","img/neutralC/CFD-WF-012-002-N.jpg","img/neutralC/CFD-AF-215-70-N.jpg","1","1","1","0","1","0","0.566847199806944","0.792676099808887","0.404792400076985","1","1","1","1","1","1","1","1","1"
"250042","img/neutralC/CFD-AF-215-70-N.jpg","img/neutralC/CFD-MF-300-002-N.jpg","img/neutralC/CFD-LF-226-174-N.jpg","1","1","1","0","0","0","0.404792400076985","0.566847199806944","0.538534199818969","1","1","1","1","1","1","1","1","1"
"250042","img/neutralC/CFD-LF-226-174-N.jpg","img/neutralC/CFD-AF-215-70-N.jpg","img/neutralC/CFD-MM-304-002-N.jpg","1","1","1","0","0","1","0.538534199818969","0.404792400076985","0.526195900049061","1","1","1","1","1","1","1","1","1"
"250042","img/neutralC/CFD-MM-304-002-N.jpg","img/neutralC/CFD-LF-226-174-N.jpg","img/neutralC/CFD-MF-327-002-N.jpg","1","1","1","1","0","0","0.526195900049061","0.538534199818969","0.701254999730736","1","1","1","1","1","1","1","1","1"
"250042","img/neutralC/CFD-MF-327-002-N.jpg","img/neutralC/CFD-MM-304-002-N.jpg","img/neutralC/CFD-IF-608-390-N.jpg","1","1","1","0","1","1","0.701254999730736","0.526195900049061","0.526117599802092","1","1","1","1","1","1","1","1","1"
"250042","img/neutralC/CFD-IF-608-390-N.jpg","img/neutralC/CFD-MF-327-002-N.jpg","img/neutralC/CFD-BF-224-002-N.jpg","1","1","1","1","0","1","0.526117599802092","0.701254999730736","0.658404799876735","1","1","1","1","1","1","1","1","1"
"250042","img/neutralC/CFD-BF-224-002-N.jpg","img/neutralC/CFD-IF-608-390-N.jpg","img/neutralC/CFD-WM-024-015-N.jpg","1","1","1","1","1","1","0.658404799876735","0.526117599802092","0.752624099841341","1","1","1","1","1","1","1","1","1"
"250042","img/neutralC/CFD-WM-024-015-N.jpg","img/neutralC/CFD-BF-224-002-N.jpg","img/neutralC/CFD-WM-232-070-N.jpg","1","1","1","1","1","0","0.752624099841341","0.658404799876735","0.547122999792919","1","1","1","1","1","1","1","1","1"
"250042","img/neutralC/CFD-WM-232-070-N.jpg","img/neutralC/CFD-WM-024-015-N.jpg","img/neutralC/CFD-WF-248-129-N.jpg","1","1","1","0","1","0","0.547122999792919","0.752624099841341","0.489725099876523","1","1","1","1","1","1","1","1","1"
"250042","img/neutralC/CFD-WF-248-129-N.jpg","img/neutralC/CFD-WM-232-070-N.jpg","img/neutralC/CFD-BF-043-003-N.jpg","1","1","1","0","0","0","0.489725099876523","0.547122999792919","0.495352199999616","1","1","1","1","1","1","1","1","1"
"250042","img/neutralC/CFD-BF-043-003-N.jpg","img/neutralC/CFD-WF-248-129-N.jpg","img/neutralC/CFD-BF-051-035-N.jpg","1","1","1","0","0","0","0.495352199999616","0.489725099876523","0.6153232997749","1","1","1","1","1","1","1","1","1"
"250042","img/neutralC/CFD-BF-051-035-N.jpg","img/neutralC/CFD-BF-043-003-N.jpg","img/neutralC/CFD-IM-675-015-N.jpg","1","1","0","0","0","1","0.6153232997749","0.495352199999616","0.648129399865866","1","1","1","1","1","1","1","1","1"
"250042","img/neutralC/CFD-IM-675-015-N.jpg","img/neutralC/CFD-BF-051-035-N.jpg","img/neutralC/CFD-AF-254-167-N.jpg","0","1","1","1","0","1","0.648129399865866","0.6153232997749","0.524821299826726","1","1","1","1","1","1","1","1","1"
"250042","img/neutralC/CFD-AF-254-167-N.jpg","img/neutralC/CFD-IM-675-015-N.jpg","img/neutralC/CFD-AF-229-160-N.jpg","1","0","1","1","1","0","0.524821299826726","0.648129399865866","0.76210349984467","1","1","1","1","1","1","1","1","1"
"250042","img/neutralC/CFD-AF-229-160-N.jpg","img/neutralC/CFD-AF-254-167-N.jpg","img/neutralC/CFD-LM-217-162-N.jpg","1","1","0","0","1","0","0.76210349984467","0.524821299826726","1.14563769986853","1","1","1","1","1","1","1","1","1"
"250042","img/neutralC/CFD-LM-217-162-N.jpg","img/neutralC/CFD-AF-229-160-N.jpg","img/neutralC/CFD-IM-637-007-N.jpg","0","1","1","0","0","0","1.14563769986853","0.76210349984467","0.719400999834761","1","1","1","1","1","1","1","1","1"
"250042","img/neutralC/CFD-IM-637-007-N.jpg","img/neutralC/CFD-LM-217-162-N.jpg","img/neutralC/CFD-LF-201-035-N.jpg","1","0","1","0","0","1","0.719400999834761","1.14563769986853","0.61815799982287","1","1","1","1","1","1","1","1","1"
"250042","img/neutralC/CFD-LF-201-035-N.jpg","img/neutralC/CFD-IM-637-007-N.jpg","img/neutralC/CFD-BM-039-029-N.jpg","1","1","1","1","0","1","0.61815799982287","0.719400999834761","0.624931999947876","1","1","1","1","1","1","1","1","1"
"250042","img/neutralC/CFD-BM-039-029-N.jpg","img/neutralC/CFD-LF-201-035-N.jpg","img/neutralC/CFD-WM-213-076-N.jpg","1","1","1","1","1","1","0.624931999947876","0.61815799982287","0.608672599773854","1","1","1","1","1","1","1","1","1"
"250042","img/neutralC/CFD-WM-213-076-N.jpg","img/neutralC/CFD-BM-039-029-N.jpg","img/neutralC/CFD-WF-217-085-N.jpg","1","1","1","1","1","1","0.608672599773854","0.624931999947876","0.695070399902761","1","1","1","1","1","1","1","1","1"
"250042","img/neutralC/CFD-WF-217-085-N.jpg","img/neutralC/CFD-WM-213-076-N.jpg","img/neutralC/CFD-MF-329-001-N.jpg","1","1","1","1","1","0","0.695070399902761","0.608672599773854","0.62439059978351","1","1","1","1","1","1","1","1","1"
"250042","img/neutralC/CFD-MF-329-001-N.jpg","img/neutralC/CFD-WF-217-085-N.jpg","img/neutralC/CFD-IM-709-103-N.jpg","1","1","1","0","1","0","0.62439059978351","0.695070399902761","0.575072899926454","1","1","1","1","1","1","1","1","1"
"250042","img/neutralC/CFD-IM-709-103-N.jpg","img/neutralC/CFD-MF-329-001-N.jpg","img/neutralC/CFD-WF-008-002-N.jpg","1","1","1","0","0","1","0.575072899926454","0.62439059978351","0.450122099835426","1","1","1","1","1","1","1","1","1"
"250042","img/neutralC/CFD-WF-008-002-N.jpg","img/neutralC/CFD-IM-709-103-N.jpg","img/neutralC/CFD-IM-685-004-N.jpg","1","1","1","1","0","1","0.450122099835426","0.575072899926454","0.736205699853599","1","1","1","1","1","1","1","1","1"
"250042","img/neutralC/CFD-IM-685-004-N.jpg","img/neutralC/CFD-WF-008-002-N.jpg","img/neutralC/CFD-AM-236-090-N.jpg","1","1","1","1","1","1","0.736205699853599","0.450122099835426","0.516313699772581","1","1","1","1","1","1","1","1","1"
"250042","img/neutralC/CFD-AM-236-090-N.jpg","img/neutralC/CFD-IM-685-004-N.jpg","img/neutralC/CFD-WF-212-050-N.jpg","1","1","1","1","1","0","0.516313699772581","0.736205699853599","0.575207699788734","1","1","1","1","1","1","1","1","1"
"250042","img/neutralC/CFD-WF-212-050-N.jpg","img/neutralC/CFD-AM-236-090-N.jpg","img/neutralC/CFD-BM-243-218-N.jpg","1","1","1","0","1","1","0.575207699788734","0.516313699772581","0.593551199883223","1","1","1","1","1","1","1","1","1"
"250042","img/neutralC/CFD-BM-243-218-N.jpg","img/neutralC/CFD-WF-212-050-N.jpg","img/neutralC/CFD-IM-604-014-N.jpg","1","1","1","1","0","0","0.593551199883223","0.575207699788734","0.672545999987051","1","1","1","1","1","1","1","1","1"
"250042","img/neutralC/CFD-IM-604-014-N.jpg","img/neutralC/CFD-BM-243-218-N.jpg","img/neutralC/CFD-IF-619-197-N.jpg","1","1","1","0","1","0","0.672545999987051","0.593551199883223","0.599147799890488","1","1","1","1","1","1","1","1","1"
"250042","img/neutralC/CFD-IF-619-197-N.jpg","img/neutralC/CFD-IM-604-014-N.jpg",NA,"1","1",NA,"0","0",NA,"0.599147799890488","0.672545999987051",NA,"1","1",NA,"1","1",NA,"1","1",NA
"250042","img/neutralC/CFD-AF-205-155-N.jpg",NA,"img/neutralC/CFD-LF-239-148-N.jpg","1",NA,"1","0",NA,"0","0.852723099989817",NA,"0.617870199959725","1",NA,"1","1",NA,"1","1",NA,"1"
"250042","img/neutralC/CFD-LF-239-148-N.jpg","img/neutralC/CFD-AF-205-155-N.jpg","img/neutralC/CFD-WF-210-086-N.jpg","1","1","1","0","0","0","0.617870199959725","0.852723099989817","0.596340599702671","1","1","1","1","1","1","1","1","1"
"250042","img/neutralC/CFD-WF-210-086-N.jpg","img/neutralC/CFD-LF-239-148-N.jpg","img/neutralC/CFD-LM-204-001-N.jpg","1","1","1","0","0","0","0.596340599702671","0.617870199959725","0.589494899846613","1","1","1","1","1","1","1","1","1"
"250042","img/neutralC/CFD-LM-204-001-N.jpg","img/neutralC/CFD-WF-210-086-N.jpg","img/neutralC/CFD-AF-234-208-N.jpg","1","1","1","0","0","1","0.589494899846613","0.596340599702671","0.564060299890116","1","1","1","1","1","1","1","1","1"
"250042","img/neutralC/CFD-AF-234-208-N.jpg","img/neutralC/CFD-LM-204-001-N.jpg","img/neutralC/CFD-WM-253-119-N.jpg","1","1","1","1","0","1","0.564060299890116","0.589494899846613","0.660930099897087","1","1","1","1","1","1","1","1","1"
"250042","img/neutralC/CFD-WM-253-119-N.jpg","img/neutralC/CFD-AF-234-208-N.jpg","img/neutralC/CFD-IM-669-111-N.jpg","1","1","1","1","1","1","0.660930099897087","0.564060299890116","0.673482599901035","1","1","1","1","1","1","1","1","1"
"250042","img/neutralC/CFD-IM-669-111-N.jpg","img/neutralC/CFD-WM-253-119-N.jpg","img/neutralC/CFD-WF-235-121-N.jpg","1","1","1","1","1","0","0.673482599901035","0.660930099897087","0.545220599975437","1","1","1","1","1","1","1","1","1"
"250042","img/neutralC/CFD-WF-235-121-N.jpg","img/neutralC/CFD-IM-669-111-N.jpg","img/neutralC/CFD-MF-307-002-N.jpg","1","1","1","0","1","1","0.545220599975437","0.673482599901035","0.557473700027913","1","1","1","1","1","1","1","1","1"
"250042","img/neutralC/CFD-MF-307-002-N.jpg","img/neutralC/CFD-WF-235-121-N.jpg","img/neutralC/CFD-IM-635-010-N.jpg","1","1","1","1","0","1","0.557473700027913","0.545220599975437","0.604390899883583","1","1","1","1","1","1","1","1","1"
"250042","img/neutralC/CFD-IM-635-010-N.jpg","img/neutralC/CFD-MF-307-002-N.jpg","img/neutralC/CFD-BM-215-155-N.jpg","1","1","1","1","1","0","0.604390899883583","0.557473700027913","0.489836300024763","1","1","1","1","1","1","1","1","1"
"250042","img/neutralC/CFD-BM-215-155-N.jpg","img/neutralC/CFD-IM-635-010-N.jpg","img/neutralC/CFD-AF-213-126-N.jpg","1","1","1","0","1","1","0.489836300024763","0.604390899883583","0.749973199795932","1","1","1","1","1","1","1","1","1"
"250042","img/neutralC/CFD-AF-213-126-N.jpg","img/neutralC/CFD-BM-215-155-N.jpg","img/neutralC/CFD-AF-244-168-N.jpg","1","1","1","1","0","0","0.749973199795932","0.489836300024763","0.390711999731138","1","1","1","1","1","1","1","1","1"
"250042","img/neutralC/CFD-AF-244-168-N.jpg","img/neutralC/CFD-AF-213-126-N.jpg","img/neutralC/CFD-BF-217-189-N.jpg","1","1","1","0","1","0","0.390711999731138","0.749973199795932","0.689702699892223","1","1","1","1","1","1","1","1","1"
"250042","img/neutralC/CFD-BF-217-189-N.jpg","img/neutralC/CFD-AF-244-168-N.jpg","img/neutralC/CFD-AM-245-111-N.jpg","1","1","1","0","0","1","0.689702699892223","0.390711999731138","0.665117299882695","1","1","1","1","1","1","1","1","1"
"250042","img/neutralC/CFD-AM-245-111-N.jpg","img/neutralC/CFD-BF-217-189-N.jpg","img/neutralC/CFD-BM-004-002-N.jpg","1","1","1","1","0","0","0.665117299882695","0.689702699892223","0.562411099905148","1","1","1","1","1","1","1","1","1"
"250042","img/neutralC/CFD-BM-004-002-N.jpg","img/neutralC/CFD-AM-245-111-N.jpg","img/neutralC/CFD-AF-246-242-N.jpg","1","1","1","0","1","0","0.562411099905148","0.665117299882695","0.522960100090131","1","1","1","1","1","1","1","1","1"
"250042","img/neutralC/CFD-AF-246-242-N.jpg","img/neutralC/CFD-BM-004-002-N.jpg","img/neutralC/CFD-BF-206-143-N.jpg","1","1","1","0","0","1","0.522960100090131","0.562411099905148","0.577903299825266","1","1","1","1","1","1","1","1","1"
"250042","img/neutralC/CFD-BF-206-143-N.jpg","img/neutralC/CFD-AF-246-242-N.jpg","img/neutralC/CFD-IF-732-260-N.jpg","1","1","1","1","0","0","0.577903299825266","0.522960100090131","0.596950799692422","1","1","1","1","1","1","1","1","1"
"250042","img/neutralC/CFD-IF-732-260-N.jpg","img/neutralC/CFD-BF-206-143-N.jpg","img/neutralC/CFD-BF-235-168-N.jpg","1","1","1","0","1","1","0.596950799692422","0.577903299825266","0.587563399923965","1","1","1","1","1","1","1","1","1"
"250042","img/neutralC/CFD-BF-235-168-N.jpg","img/neutralC/CFD-IF-732-260-N.jpg","img/neutralC/CFD-BF-020-002-N.jpg","1","1","1","1","0","1","0.587563399923965","0.596950799692422","0.56211129995063","1","1","1","1","1","1","1","1","1"
"250042","img/neutralC/CFD-BF-020-002-N.jpg","img/neutralC/CFD-BF-235-168-N.jpg","img/neutralC/CFD-BF-040-003-N.jpg","1","1","1","1","1","1","0.56211129995063","0.587563399923965","0.593107399763539","1","1","1","1","1","1","1","1","1"
"250042","img/neutralC/CFD-BF-040-003-N.jpg","img/neutralC/CFD-BF-020-002-N.jpg","img/neutralC/CFD-IM-632-097-N.jpg","1","1","1","1","1","0","0.593107399763539","0.56211129995063","0.593705999897793","1","1","1","1","1","1","1","1","1"
"250042","img/neutralC/CFD-IM-632-097-N.jpg","img/neutralC/CFD-BF-040-003-N.jpg","img/neutralC/CFD-IF-636-011-N.jpg","1","1","1","0","1","1","0.593705999897793","0.593107399763539","0.700680299894884","1","1","1","1","1","1","1","1","1"
"250042","img/neutralC/CFD-IF-636-011-N.jpg","img/neutralC/CFD-IM-632-097-N.jpg","img/neutralC/CFD-AM-233-236-N.jpg","1","1","1","1","0","1","0.700680299894884","0.593705999897793","0.584617899730802","1","1","1","1","1","1","1","1","1"
"250042","img/neutralC/CFD-AM-233-236-N.jpg","img/neutralC/CFD-IF-636-011-N.jpg","img/neutralC/CFD-BF-042-026-N.jpg","1","1","1","1","1","1","0.584617899730802","0.700680299894884","0.45364119973965","1","1","1","1","1","1","1","1","1"
"250042","img/neutralC/CFD-BF-042-026-N.jpg","img/neutralC/CFD-AM-233-236-N.jpg","img/neutralC/CFD-WM-018-002-N.jpg","1","1","1","1","1","0","0.45364119973965","0.584617899730802","0.582260199822485","1","1","1","1","1","1","1","1","1"
"250042","img/neutralC/CFD-WM-018-002-N.jpg","img/neutralC/CFD-BF-042-026-N.jpg","img/neutralC/CFD-LM-241-125-N.jpg","1","1","1","0","1","1","0.582260199822485","0.45364119973965","0.544518899871036","1","1","1","1","1","1","1","1","1"
"250042","img/neutralC/CFD-LM-241-125-N.jpg","img/neutralC/CFD-WM-018-002-N.jpg","img/neutralC/CFD-IM-678-482-N.jpg","1","1","1","1","0","0","0.544518899871036","0.582260199822485","0.570870599709451","1","1","1","1","1","1","1","1","1"
"250042","img/neutralC/CFD-IM-678-482-N.jpg","img/neutralC/CFD-LM-241-125-N.jpg","img/neutralC/CFD-AF-250-200-N.jpg","1","1","1","0","1","1","0.570870599709451","0.544518899871036","0.583697099937126","1","1","1","1","1","1","1","1","1"
"250042","img/neutralC/CFD-AF-250-200-N.jpg","img/neutralC/CFD-IM-678-482-N.jpg","img/neutralC/CFD-MF-302-027-N.jpg","1","1","1","1","0","0","0.583697099937126","0.570870599709451","0.629729299806058","1","1","1","1","1","1","1","1","1"
"250042","img/neutralC/CFD-MF-302-027-N.jpg","img/neutralC/CFD-AF-250-200-N.jpg","img/neutralC/CFD-AM-225-102-N.jpg","1","1","1","0","1","0","0.629729299806058","0.583697099937126","0.599489299813285","1","1","1","1","1","1","1","1","1"
"250042","img/neutralC/CFD-AM-225-102-N.jpg","img/neutralC/CFD-MF-302-027-N.jpg",NA,"1","1",NA,"0","0",NA,"0.599489299813285","0.629729299806058",NA,"1","1",NA,"1","1",NA,"1","1",NA
"250042","img/neutralC/CFD-WF-226-095-N.jpg",NA,"img/neutralC/CFD-BM-200-046-N.jpg","1",NA,"0","1",NA,"0","0.93660969985649",NA,"0.414993099868298","1",NA,"1","1",NA,"1","1",NA,"1"
"250042","img/neutralC/CFD-BM-200-046-N.jpg","img/neutralC/CFD-WF-226-095-N.jpg","img/neutralC/CFD-IM-719-221-N.jpg","0","1","1","0","1","0","0.414993099868298","0.93660969985649","0.5687080998905","1","1","1","1","1","1","1","1","1"
"250042","img/neutralC/CFD-IM-719-221-N.jpg","img/neutralC/CFD-BM-200-046-N.jpg","img/neutralC/CFD-WF-245-084-N.jpg","1","0","1","0","0","1","0.5687080998905","0.414993099868298","0.522740700049326","1","1","1","1","1","1","1","1","1"
"250042","img/neutralC/CFD-WF-245-084-N.jpg","img/neutralC/CFD-IM-719-221-N.jpg","img/neutralC/CFD-MF-321-003-N.jpg","1","1","1","1","0","0","0.522740700049326","0.5687080998905","0.524615699891001","1","1","1","1","1","1","1","1","1"
"250042","img/neutralC/CFD-MF-321-003-N.jpg","img/neutralC/CFD-WF-245-084-N.jpg","img/neutralC/CFD-BF-218-207-N.jpg","1","1","1","0","1","1","0.524615699891001","0.522740700049326","0.69695709971711","1","1","1","1","1","1","1","1","1"
"250042","img/neutralC/CFD-BF-218-207-N.jpg","img/neutralC/CFD-MF-321-003-N.jpg","img/neutralC/CFD-IM-700-009-N.jpg","1","1","1","1","0","1","0.69695709971711","0.524615699891001","0.631633899873123","1","1","1","1","1","1","1","1","1"
"250042","img/neutralC/CFD-IM-700-009-N.jpg","img/neutralC/CFD-BF-218-207-N.jpg","img/neutralC/CFD-AF-232-078-N.jpg","1","1","1","1","1","1","0.631633899873123","0.69695709971711","0.514570499770343","1","1","1","1","1","1","1","1","1"
"250042","img/neutralC/CFD-AF-232-078-N.jpg","img/neutralC/CFD-IM-700-009-N.jpg","img/neutralC/CFD-BM-204-003-N.jpg","1","1","1","1","1","0","0.514570499770343","0.631633899873123","0.557938099838793","1","1","1","1","1","1","1","1","1"
"250042","img/neutralC/CFD-BM-204-003-N.jpg","img/neutralC/CFD-AF-232-078-N.jpg","img/neutralC/CFD-WM-237-052-N.jpg","1","1","1","0","1","1","0.557938099838793","0.514570499770343","0.742363999830559","1","1","1","1","1","1","1","1","1"
"250042","img/neutralC/CFD-WM-237-052-N.jpg","img/neutralC/CFD-BM-204-003-N.jpg","img/neutralC/CFD-LM-253-075-N.jpg","1","1","1","1","0","0","0.742363999830559","0.557938099838793","0.697622499894351","1","1","1","1","1","1","1","1","1"
"250042","img/neutralC/CFD-LM-253-075-N.jpg","img/neutralC/CFD-WM-237-052-N.jpg","img/neutralC/CFD-BF-018-039-N.jpg","1","1","1","0","1","1","0.697622499894351","0.742363999830559","0.669170099776238","1","1","1","1","1","1","1","1","1"
"250042","img/neutralC/CFD-BF-018-039-N.jpg","img/neutralC/CFD-LM-253-075-N.jpg","img/neutralC/CFD-WF-023-003-N.jpg","1","1","1","1","0","1","0.669170099776238","0.697622499894351","0.466553199803457","1","1","1","1","1","1","1","1","1"
"250042","img/neutralC/CFD-WF-023-003-N.jpg","img/neutralC/CFD-BF-018-039-N.jpg","img/neutralC/CFD-WM-013-001-N.jpg","1","1","1","1","1","1","0.466553199803457","0.669170099776238","0.826535699889064","1","1","1","1","1","1","1","1","1"
"250042","img/neutralC/CFD-WM-013-001-N.jpg","img/neutralC/CFD-WF-023-003-N.jpg","img/neutralC/CFD-BM-023-029-N.jpg","1","1","1","1","1","1","0.826535699889064","0.466553199803457","0.483876599930227","1","1","1","1","1","1","1","1","1"
"250042","img/neutralC/CFD-BM-023-029-N.jpg","img/neutralC/CFD-WM-013-001-N.jpg","img/neutralC/CFD-LF-215-157-N.jpg","1","1","1","1","1","0","0.483876599930227","0.826535699889064","0.63413989986293","1","1","1","1","1","1","1","1","1"
"250042","img/neutralC/CFD-LF-215-157-N.jpg","img/neutralC/CFD-BM-023-029-N.jpg","img/neutralC/CFD-AM-244-222-N.jpg","1","1","1","0","1","0","0.63413989986293","0.483876599930227","0.543638999806717","1","1","1","1","1","1","1","1","1"
"250042","img/neutralC/CFD-AM-244-222-N.jpg","img/neutralC/CFD-LF-215-157-N.jpg","img/neutralC/CFD-IF-629-234-N.jpg","1","1","1","0","0","0","0.543638999806717","0.63413989986293","0.712335499934852","1","1","1","1","1","1","1","1","1"
"250042","img/neutralC/CFD-IF-629-234-N.jpg","img/neutralC/CFD-AM-244-222-N.jpg","img/neutralC/CFD-WF-027-003-N.jpg","1","1","1","0","0","1","0.712335499934852","0.543638999806717","0.486767399823293","1","1","1","1","1","1","1","1","1"
"250042","img/neutralC/CFD-WF-027-003-N.jpg","img/neutralC/CFD-IF-629-234-N.jpg","img/neutralC/CFD-AF-221-147-N.jpg","1","1","1","1","0","0","0.486767399823293","0.712335499934852","0.816977599868551","1","1","1","1","1","1","1","1","1"
"250042","img/neutralC/CFD-AF-221-147-N.jpg","img/neutralC/CFD-WF-027-003-N.jpg","img/neutralC/CFD-IM-627-178-N.jpg","1","1","1","0","1","1","0.816977599868551","0.486767399823293","0.604981499956921","1","1","1","1","1","1","1","1","1"
"250042","img/neutralC/CFD-IM-627-178-N.jpg","img/neutralC/CFD-AF-221-147-N.jpg","img/neutralC/CFD-WF-018-017-N.jpg","1","1","1","1","0","1","0.604981499956921","0.816977599868551","0.554776799865067","1","1","1","1","1","1","1","1","1"
"250042","img/neutralC/CFD-WF-018-017-N.jpg","img/neutralC/CFD-IM-627-178-N.jpg","img/neutralC/CFD-LF-211-003-N.jpg","1","1","1","1","1","0","0.554776799865067","0.604981499956921","0.496777499793097","1","1","1","1","1","1","1","1","1"
"250042","img/neutralC/CFD-LF-211-003-N.jpg","img/neutralC/CFD-WF-018-017-N.jpg","img/neutralC/CFD-MF-342-022-N.jpg","1","1","1","0","1","1","0.496777499793097","0.554776799865067","0.716248799813911","1","1","1","1","1","1","1","1","1"
"250042","img/neutralC/CFD-MF-342-022-N.jpg","img/neutralC/CFD-LF-211-003-N.jpg","img/neutralC/CFD-WF-238-023-N.jpg","1","1","1","1","0","0","0.716248799813911","0.496777499793097","0.615192599827424","1","1","1","1","1","1","1","1","1"
"250042","img/neutralC/CFD-WF-238-023-N.jpg","img/neutralC/CFD-MF-342-022-N.jpg","img/neutralC/CFD-WM-221-091-N.jpg","1","1","1","0","1","0","0.615192599827424","0.716248799813911","0.669525899924338","1","1","1","1","1","1","1","1","1"
"250042","img/neutralC/CFD-WM-221-091-N.jpg","img/neutralC/CFD-WF-238-023-N.jpg","img/neutralC/CFD-WM-201-063-N.jpg","1","1","1","0","0","1","0.669525899924338","0.615192599827424","0.63002309971489","1","1","1","1","1","1","1","1","1"
"250042","img/neutralC/CFD-WM-201-063-N.jpg","img/neutralC/CFD-WM-221-091-N.jpg","img/neutralC/CFD-BF-254-201-N.jpg","1","1","1","1","0","0","0.63002309971489","0.669525899924338","0.67115499987267","1","1","1","1","1","1","1","1","1"
"250042","img/neutralC/CFD-BF-254-201-N.jpg","img/neutralC/CFD-WM-201-063-N.jpg","img/neutralC/CFD-MM-321-021-N.jpg","1","1","1","0","1","0","0.67115499987267","0.63002309971489","0.651331399800256","1","1","1","1","1","1","1","1","1"
"250042","img/neutralC/CFD-MM-321-021-N.jpg","img/neutralC/CFD-BF-254-201-N.jpg","img/neutralC/CFD-WM-255-219-N.jpg","1","1","1","0","0","0","0.651331399800256","0.67115499987267","0.749243999831378","1","1","1","1","1","1","1","1","1"
"250042","img/neutralC/CFD-WM-255-219-N.jpg","img/neutralC/CFD-MM-321-021-N.jpg","img/neutralC/CFD-WM-009-002-N.jpg","1","1","1","0","0","0","0.749243999831378","0.651331399800256","0.701281699817628","1","1","1","1","1","1","1","1","1"
"250042","img/neutralC/CFD-WM-009-002-N.jpg","img/neutralC/CFD-WM-255-219-N.jpg","img/neutralC/CFD-MF-318-022-N.jpg","1","1","1","0","0","1","0.701281699817628","0.749243999831378","0.603116299724206","1","1","1","1","1","1","1","1","1"
"250042","img/neutralC/CFD-MF-318-022-N.jpg","img/neutralC/CFD-WM-009-002-N.jpg",NA,"1","1",NA,"1","0",NA,"0.603116299724206","0.701281699817628",NA,"1","1",NA,"1","1",NA,"1","1",NA
"250042","img/neutralC/CFD-WF-001-003-N.jpg",NA,"img/neutralC/CFD-BF-226-119-N.jpg","0",NA,"1","1",NA,"1","1.37502589984797",NA,"0.922529199859127","1",NA,"1","1",NA,"1","1",NA,"1"
"250042","img/neutralC/CFD-BF-226-119-N.jpg","img/neutralC/CFD-WF-001-003-N.jpg","img/neutralC/CFD-IF-650-315-N.jpg","1","0","1","1","1","0","0.922529199859127","1.37502589984797","0.629686599830166","1","1","1","1","1","1","1","1","1"
"250042","img/neutralC/CFD-IF-650-315-N.jpg","img/neutralC/CFD-BF-226-119-N.jpg","img/neutralC/CFD-LF-220-120-N.jpg","1","1","1","0","1","1","0.629686599830166","0.922529199859127","0.450947699835524","1","1","1","1","1","1","1","1","1"
"250042","img/neutralC/CFD-LF-220-120-N.jpg","img/neutralC/CFD-IF-650-315-N.jpg","img/neutralC/CFD-AM-211-052-N.jpg","1","1","1","1","0","1","0.450947699835524","0.629686599830166","0.463132799835876","1","1","1","1","1","1","1","1","1"
"250042","img/neutralC/CFD-AM-211-052-N.jpg","img/neutralC/CFD-LF-220-120-N.jpg","img/neutralC/CFD-WM-004-010-N.jpg","1","1","1","1","1","0","0.463132799835876","0.450947699835524","0.556505599757656","1","1","1","1","1","1","1","1","1"
"250042","img/neutralC/CFD-WM-004-010-N.jpg","img/neutralC/CFD-AM-211-052-N.jpg","img/neutralC/CFD-WM-033-025-N.jpg","1","1","1","0","1","1","0.556505599757656","0.463132799835876","0.569226599764079","1","1","1","1","1","1","1","1","1"
"250042","img/neutralC/CFD-WM-033-025-N.jpg","img/neutralC/CFD-WM-004-010-N.jpg","img/neutralC/CFD-MF-359-019-N.jpg","1","1","1","1","0","0","0.569226599764079","0.556505599757656","0.553475399967283","1","1","1","1","1","1","1","1","1"
"250042","img/neutralC/CFD-MF-359-019-N.jpg","img/neutralC/CFD-WM-033-025-N.jpg","img/neutralC/CFD-BF-229-179-N.jpg","1","1","1","0","1","0","0.553475399967283","0.569226599764079","0.440854399930686","1","1","1","1","1","1","1","1","1"
"250042","img/neutralC/CFD-BF-229-179-N.jpg","img/neutralC/CFD-MF-359-019-N.jpg","img/neutralC/CFD-BF-038-037-N.jpg","1","1","1","0","0","1","0.440854399930686","0.553475399967283","0.488924799952656","1","1","1","1","1","1","1","1","1"
"250042","img/neutralC/CFD-BF-038-037-N.jpg","img/neutralC/CFD-BF-229-179-N.jpg","img/neutralC/CFD-LF-218-072-N.jpg","1","1","1","1","0","0","0.488924799952656","0.440854399930686","0.487181500066072","1","1","1","1","1","1","1","1","1"
"250042","img/neutralC/CFD-LF-218-072-N.jpg","img/neutralC/CFD-BF-038-037-N.jpg","img/neutralC/CFD-IM-645-001-N.jpg","1","1","0","0","1","0","0.487181500066072","0.488924799952656","0.496114099863917","1","1","1","1","1","1","1","1","2"
"250042","img/neutralC/CFD-IM-645-001-N.jpg","img/neutralC/CFD-LF-218-072-N.jpg","img/neutralC/CFD-LM-237-264-N.jpg","0","1","1","0","0","0","0.496114099863917","0.487181500066072","0.682880999986082","1","1","1","1","1","1","2","1","1"
"250042","img/neutralC/CFD-LM-237-264-N.jpg","img/neutralC/CFD-IM-645-001-N.jpg","img/neutralC/CFD-MF-333-012-N.jpg","1","0","1","0","0","0","0.682880999986082","0.496114099863917","0.57945409975946","1","1","1","1","1","1","1","2","1"
"250042","img/neutralC/CFD-MF-333-012-N.jpg","img/neutralC/CFD-LM-237-264-N.jpg","img/neutralC/CFD-BM-253-004-N.jpg","1","1","1","0","0","1","0.57945409975946","0.682880999986082","0.492961399955675","1","1","1","1","1","1","1","1","1"
"250042","img/neutralC/CFD-BM-253-004-N.jpg","img/neutralC/CFD-MF-333-012-N.jpg","img/neutralC/CFD-WF-214-122-N.jpg","1","1","1","1","0","1","0.492961399955675","0.57945409975946","0.602054300019518","1","1","1","1","1","1","1","1","1"
"250042","img/neutralC/CFD-WF-214-122-N.jpg","img/neutralC/CFD-BM-253-004-N.jpg","img/neutralC/CFD-WM-020-001-N.jpg","1","1","1","1","1","1","0.602054300019518","0.492961399955675","0.837946499930695","1","1","1","1","1","1","1","1","1"
"250042","img/neutralC/CFD-WM-020-001-N.jpg","img/neutralC/CFD-WF-214-122-N.jpg","img/neutralC/CFD-WF-036-023-N.jpg","1","1","1","1","1","0","0.837946499930695","0.602054300019518","0.713684099726379","1","1","1","1","1","1","1","1","1"
"250042","img/neutralC/CFD-WF-036-023-N.jpg","img/neutralC/CFD-WM-020-001-N.jpg","img/neutralC/CFD-IM-671-601-N.jpg","1","1","1","0","1","0","0.713684099726379","0.837946499930695","0.699974999995902","1","1","1","1","1","1","1","1","1"
"250042","img/neutralC/CFD-IM-671-601-N.jpg","img/neutralC/CFD-WF-036-023-N.jpg","img/neutralC/CFD-WM-219-008-N.jpg","1","1","1","0","0","0","0.699974999995902","0.713684099726379","0.527837799862027","1","1","1","1","1","1","1","1","1"
"250042","img/neutralC/CFD-WM-219-008-N.jpg","img/neutralC/CFD-IM-671-601-N.jpg","img/neutralC/CFD-WM-235-147-N.jpg","1","1","1","0","0","0","0.527837799862027","0.699974999995902","0.542052499717101","1","1","1","1","1","1","1","1","1"
"250042","img/neutralC/CFD-WM-235-147-N.jpg","img/neutralC/CFD-WM-219-008-N.jpg","img/neutralC/CFD-BM-225-154-N.jpg","1","1","1","0","0","1","0.542052499717101","0.527837799862027","0.444323299918324","1","1","1","1","1","1","1","1","1"
"250042","img/neutralC/CFD-BM-225-154-N.jpg","img/neutralC/CFD-WM-235-147-N.jpg","img/neutralC/CFD-LM-228-188-N.jpg","1","1","1","1","0","1","0.444323299918324","0.542052499717101","0.406395399710163","1","1","1","1","1","1","1","1","1"
"250042","img/neutralC/CFD-LM-228-188-N.jpg","img/neutralC/CFD-BM-225-154-N.jpg","img/neutralC/CFD-IM-743-006-N.jpg","1","1","1","1","1","1","0.406395399710163","0.444323299918324","0.539509499911219","1","1","1","1","1","1","1","1","1"
"250042","img/neutralC/CFD-IM-743-006-N.jpg","img/neutralC/CFD-LM-228-188-N.jpg","img/neutralC/CFD-IM-616-214-N.jpg","1","1","1","1","1","0","0.539509499911219","0.406395399710163","0.596884399885312","1","1","1","1","1","1","1","1","1"
"250042","img/neutralC/CFD-IM-616-214-N.jpg","img/neutralC/CFD-IM-743-006-N.jpg","img/neutralC/CFD-WF-200-099-N.jpg","1","1","1","0","1","0","0.596884399885312","0.539509499911219","0.561621400061995","1","1","1","1","1","1","1","1","1"
"250042","img/neutralC/CFD-WF-200-099-N.jpg","img/neutralC/CFD-IM-616-214-N.jpg","img/neutralC/CFD-BF-232-187-N.jpg","1","1","1","0","0","1","0.561621400061995","0.596884399885312","0.654252599924803","1","1","1","1","1","1","1","1","1"
"250042","img/neutralC/CFD-BF-232-187-N.jpg","img/neutralC/CFD-WF-200-099-N.jpg","img/neutralC/CFD-AM-242-176-N.jpg","1","1","0","1","0","1","0.654252599924803","0.561621400061995","0.604546799790114","1","1","1","1","1","1","1","1","1"
"250042","img/neutralC/CFD-AM-242-176-N.jpg","img/neutralC/CFD-BF-232-187-N.jpg","img/neutralC/CFD-MF-352-054-N.jpg","0","1","1","1","1","0","0.604546799790114","0.654252599924803","0.56495469994843","1","1","1","1","1","1","1","1","1"
"250042","img/neutralC/CFD-MF-352-054-N.jpg","img/neutralC/CFD-AM-242-176-N.jpg","img/neutralC/CFD-AM-251-124-N.jpg","1","0","1","0","1","0","0.56495469994843","0.604546799790114","0.514573399908841","1","1","1","1","1","1","1","1","1"
"250042","img/neutralC/CFD-AM-251-124-N.jpg","img/neutralC/CFD-MF-352-054-N.jpg","img/neutralC/CFD-IM-703-182-N.jpg","1","1","1","0","0","1","0.514573399908841","0.56495469994843","0.708886799868196","1","1","1","1","1","1","1","1","1"
"250042","img/neutralC/CFD-IM-703-182-N.jpg","img/neutralC/CFD-AM-251-124-N.jpg","img/neutralC/CFD-IF-623-129-N.jpg","1","1","1","1","0","1","0.708886799868196","0.514573399908841","0.522440699860454","1","1","1","1","1","1","1","1","1"
"250042","img/neutralC/CFD-IF-623-129-N.jpg","img/neutralC/CFD-IM-703-182-N.jpg",NA,"1","1",NA,"1","1",NA,"0.522440699860454","0.708886799868196",NA,"1","1",NA,"1","1",NA,"1","1",NA
"250042","img/neutralC/CFD-IM-680-369-N.jpg",NA,"img/neutralC/CFD-IF-626-375-N.jpg","1",NA,"1","1",NA,"0","0.596769399940968",NA,"0.494377299910411","1",NA,"1","1",NA,"1","1",NA,"1"
"250042","img/neutralC/CFD-IF-626-375-N.jpg","img/neutralC/CFD-IM-680-369-N.jpg","img/neutralC/CFD-WF-030-002-N.jpg","1","1","1","0","1","0","0.494377299910411","0.596769399940968","0.408527599880472","1","1","1","1","1","1","1","1","1"
"250042","img/neutralC/CFD-WF-030-002-N.jpg","img/neutralC/CFD-IF-626-375-N.jpg","img/neutralC/CFD-WM-015-002-N.jpg","1","1","1","0","0","0","0.408527599880472","0.494377299910411","0.515482899965718","1","1","1","1","1","1","1","1","1"
"250042","img/neutralC/CFD-WM-015-002-N.jpg","img/neutralC/CFD-WF-030-002-N.jpg","img/neutralC/CFD-LF-206-078-N.jpg","1","1","0","0","0","1","0.515482899965718","0.408527599880472","0.564446299802512","1","1","1","1","1","1","1","1","1"
"250042","img/neutralC/CFD-LF-206-078-N.jpg","img/neutralC/CFD-WM-015-002-N.jpg","img/neutralC/CFD-MM-324-069-N.jpg","0","1","1","1","0","1","0.564446299802512","0.515482899965718","0.491279999725521","1","1","1","1","1","1","1","1","1"
"250042","img/neutralC/CFD-MM-324-069-N.jpg","img/neutralC/CFD-LF-206-078-N.jpg","img/neutralC/CFD-MF-316-001-N.jpg","1","0","1","1","1","0","0.491279999725521","0.564446299802512","0.456192099954933","1","1","1","1","1","1","1","1","1"
"250042","img/neutralC/CFD-MF-316-001-N.jpg","img/neutralC/CFD-MM-324-069-N.jpg","img/neutralC/CFD-IF-660-464-N.jpg","1","1","1","0","1","0","0.456192099954933","0.491279999725521","0.633244999917224","1","1","1","1","1","1","1","1","1"
"250042","img/neutralC/CFD-IF-660-464-N.jpg","img/neutralC/CFD-MF-316-001-N.jpg","img/neutralC/CFD-BM-001-014-N.jpg","1","1","1","0","0","0","0.633244999917224","0.456192099954933","0.663310599979013","1","1","1","1","1","1","1","1","1"
"250042","img/neutralC/CFD-BM-001-014-N.jpg","img/neutralC/CFD-IF-660-464-N.jpg","img/neutralC/CFD-LM-225-130-N.jpg","1","1","1","0","0","0","0.663310599979013","0.633244999917224","0.52426359988749","1","1","1","1","1","1","1","1","1"
"250042","img/neutralC/CFD-LM-225-130-N.jpg","img/neutralC/CFD-BM-001-014-N.jpg","img/neutralC/CFD-IM-702-101-N.jpg","1","1","1","0","0","1","0.52426359988749","0.663310599979013","0.48435389995575","1","1","1","1","1","1","1","1","1"
"250042","img/neutralC/CFD-IM-702-101-N.jpg","img/neutralC/CFD-LM-225-130-N.jpg","img/neutralC/CFD-AF-233-190-N.jpg","1","1","1","1","0","0","0.48435389995575","0.52426359988749","0.665463599842042","1","1","1","1","1","1","1","1","1"
"250042","img/neutralC/CFD-AF-233-190-N.jpg","img/neutralC/CFD-IM-702-101-N.jpg","img/neutralC/CFD-AF-253-130-N.jpg","1","1","1","0","1","1","0.665463599842042","0.48435389995575","0.506945899920538","1","1","1","1","1","1","1","1","1"
"250042","img/neutralC/CFD-AF-253-130-N.jpg","img/neutralC/CFD-AF-233-190-N.jpg","img/neutralC/CFD-WF-007-001-N.jpg","1","1","1","1","0","1","0.506945899920538","0.665463599842042","0.514964599860832","1","1","1","1","1","1","1","1","1"
"250042","img/neutralC/CFD-WF-007-001-N.jpg","img/neutralC/CFD-AF-253-130-N.jpg","img/neutralC/CFD-WM-218-074-N.jpg","1","1","1","1","1","1","0.514964599860832","0.506945899920538","0.467600899981335","1","1","1","1","1","1","1","1","1"
"250042","img/neutralC/CFD-WM-218-074-N.jpg","img/neutralC/CFD-WF-007-001-N.jpg","img/neutralC/CFD-LF-255-088-N.jpg","1","1","1","1","1","0","0.467600899981335","0.514964599860832","0.637141899904236","1","1","1","1","1","1","1","1","1"
"250042","img/neutralC/CFD-LF-255-088-N.jpg","img/neutralC/CFD-WM-218-074-N.jpg","img/neutralC/CFD-LM-200-045-N.jpg","1","1","1","0","1","1","0.637141899904236","0.467600899981335","0.627385499887168","1","1","1","1","1","1","1","1","1"
"250042","img/neutralC/CFD-LM-200-045-N.jpg","img/neutralC/CFD-LF-255-088-N.jpg","img/neutralC/CFD-MF-303-013-N.jpg","1","1","1","1","0","0","0.627385499887168","0.637141899904236","0.699341899948195","1","1","1","1","1","1","1","1","1"
"250042","img/neutralC/CFD-MF-303-013-N.jpg","img/neutralC/CFD-LM-200-045-N.jpg","img/neutralC/CFD-BF-014-002-N.jpg","1","1","1","0","1","1","0.699341899948195","0.627385499887168","0.585058199940249","1","1","1","1","1","1","1","1","1"
"250042","img/neutralC/CFD-BF-014-002-N.jpg","img/neutralC/CFD-MF-303-013-N.jpg","img/neutralC/CFD-IM-667-369-N.jpg","1","1","1","1","0","0","0.585058199940249","0.699341899948195","0.567481899866834","1","1","1","1","1","1","1","1","1"
"250042","img/neutralC/CFD-IM-667-369-N.jpg","img/neutralC/CFD-BF-014-002-N.jpg","img/neutralC/CFD-IM-706-002-N.jpg","1","1","1","0","1","0","0.567481899866834","0.585058199940249","0.642056199954823","1","1","1","1","1","1","1","1","1"
"250042","img/neutralC/CFD-IM-706-002-N.jpg","img/neutralC/CFD-IM-667-369-N.jpg","img/neutralC/CFD-IM-664-651-N.jpg","1","1","1","0","0","1","0.642056199954823","0.567481899866834","0.560386799974367","1","1","1","1","1","1","1","1","1"
"250042","img/neutralC/CFD-IM-664-651-N.jpg","img/neutralC/CFD-IM-706-002-N.jpg","img/neutralC/CFD-MF-305-014-N.jpg","1","1","1","1","0","1","0.560386799974367","0.642056199954823","0.45354579994455","1","1","1","1","1","1","1","1","1"
"250042","img/neutralC/CFD-MF-305-014-N.jpg","img/neutralC/CFD-IM-664-651-N.jpg","img/neutralC/CFD-BM-250-170-N.jpg","1","1","1","1","1","1","0.45354579994455","0.560386799974367","0.501046999823302","1","1","1","1","1","1","1","1","1"
"250042","img/neutralC/CFD-BM-250-170-N.jpg","img/neutralC/CFD-MF-305-014-N.jpg","img/neutralC/CFD-MF-357-002-N.jpg","1","1","1","1","1","0","0.501046999823302","0.45354579994455","0.555813899962232","1","1","1","1","1","1","1","1","1"
"250042","img/neutralC/CFD-MF-357-002-N.jpg","img/neutralC/CFD-BM-250-170-N.jpg","img/neutralC/CFD-BM-217-082-N.jpg","1","1","1","0","1","0","0.555813899962232","0.501046999823302","0.601025399984792","1","1","1","1","1","1","1","1","1"
"250042","img/neutralC/CFD-BM-217-082-N.jpg","img/neutralC/CFD-MF-357-002-N.jpg","img/neutralC/CFD-WM-209-038-N.jpg","1","1","1","0","0","0","0.601025399984792","0.555813899962232","0.523343099979684","1","1","1","1","1","1","1","1","1"
"250042","img/neutralC/CFD-WM-209-038-N.jpg","img/neutralC/CFD-BM-217-082-N.jpg","img/neutralC/CFD-AM-220-134-N.jpg","1","1","1","0","0","0","0.523343099979684","0.601025399984792","0.583763499977067","1","1","1","1","1","1","1","1","1"
"250042","img/neutralC/CFD-AM-220-134-N.jpg","img/neutralC/CFD-WM-209-038-N.jpg","img/neutralC/CFD-WF-244-163-N.jpg","1","1","1","0","0","1","0.583763499977067","0.523343099979684","0.842269799904898","1","1","1","1","1","1","1","1","1"
"250042","img/neutralC/CFD-WF-244-163-N.jpg","img/neutralC/CFD-AM-220-134-N.jpg","img/neutralC/CFD-BF-237-172-N.jpg","1","1","1","1","0","1","0.842269799904898","0.583763499977067","0.560858699958771","1","1","1","1","1","1","1","1","1"
"250042","img/neutralC/CFD-BF-237-172-N.jpg","img/neutralC/CFD-WF-244-163-N.jpg","img/neutralC/CFD-MF-343-001-N.jpg","1","1","1","1","1","1","0.560858699958771","0.842269799904898","0.560073300031945","1","1","1","1","1","1","1","1","1"
"250042","img/neutralC/CFD-MF-343-001-N.jpg","img/neutralC/CFD-BF-237-172-N.jpg","img/neutralC/CFD-WF-222-092-N.jpg","1","1","1","1","1","1","0.560073300031945","0.560858699958771","0.571398599771783","1","1","1","1","1","1","1","1","1"
"250042","img/neutralC/CFD-WF-222-092-N.jpg","img/neutralC/CFD-MF-343-001-N.jpg",NA,"1","1",NA,"1","1",NA,"0.571398599771783","0.560073300031945",NA,"1","1",NA,"1","1",NA,"1","1",NA
