"participant_id","current_trial_face","pre_trial_face","post_trial_face","current_trial_accuracy","pre_trial_accuracy","post_trial_accuracy","current_trial_congruency","pre_trial_congruency","post_trial_congruency","current_trial_rt","pre_trial_rt","post_trial_rt","current_trial_responded","pre_trial_responded","post_trial_responded","current_trial_legitResponse","pre_trial_legitResponse","post_trial_legitResponse","current_trial_resp_nums","pre_trial_resp_nums","post_trial_resp_nums"
"250003","img/neutralC/CFD-IM-726-248-N.jpg",NA,"img/neutralC/CFD-BF-207-004-N.jpg","1",NA,"1","0",NA,"1","0.595153000671417",NA,"0.642765800468624","1",NA,"1","1",NA,"1","1",NA,"1"
"250003","img/neutralC/CFD-BF-207-004-N.jpg","img/neutralC/CFD-IM-726-248-N.jpg","img/neutralC/CFD-LF-204-133-N.jpg","1","1","1","1","0","1","0.642765800468624","0.595153000671417","0.537762900348753","1","1","1","1","1","1","1","1","1"
"250003","img/neutralC/CFD-LF-204-133-N.jpg","img/neutralC/CFD-BF-207-004-N.jpg","img/neutralC/CFD-BF-002-001-N.jpg","1","1","1","1","1","0","0.537762900348753","0.642765800468624","0.614100600592792","1","1","1","1","1","1","1","1","1"
"250003","img/neutralC/CFD-BF-002-001-N.jpg","img/neutralC/CFD-LF-204-133-N.jpg","img/neutralC/CFD-WM-014-002-N.jpg","1","1","1","0","1","0","0.614100600592792","0.537762900348753","0.960323800332844","1","1","1","1","1","1","1","1","1"
"250003","img/neutralC/CFD-WM-014-002-N.jpg","img/neutralC/CFD-BF-002-001-N.jpg","img/neutralC/CFD-WM-034-030-N.jpg","1","1","1","0","0","1","0.960323800332844","0.614100600592792","0.722860600333661","1","1","1","1","1","1","1","1","1"
"250003","img/neutralC/CFD-WM-034-030-N.jpg","img/neutralC/CFD-WM-014-002-N.jpg","img/neutralC/CFD-MF-301-024-N.jpg","1","1","1","1","0","0","0.722860600333661","0.960323800332844","0.605430200695992","1","1","1","1","1","1","1","1","1"
"250003","img/neutralC/CFD-MF-301-024-N.jpg","img/neutralC/CFD-WM-034-030-N.jpg","img/neutralC/CFD-BF-011-002-N.jpg","1","1","1","0","1","1","0.605430200695992","0.722860600333661","0.604238300584257","1","1","1","1","1","1","1","1","1"
"250003","img/neutralC/CFD-BF-011-002-N.jpg","img/neutralC/CFD-MF-301-024-N.jpg","img/neutralC/CFD-BF-036-027-N.jpg","1","1","1","1","0","0","0.604238300584257","0.605430200695992","0.600514099933207","1","1","1","1","1","1","1","1","1"
"250003","img/neutralC/CFD-BF-036-027-N.jpg","img/neutralC/CFD-BF-011-002-N.jpg","img/neutralC/CFD-IM-696-001-N.jpg","1","1","1","0","1","0","0.600514099933207","0.604238300584257","0.665899200364947","1","1","1","1","1","1","1","1","1"
"250003","img/neutralC/CFD-IM-696-001-N.jpg","img/neutralC/CFD-BF-036-027-N.jpg","img/neutralC/CFD-AM-230-150-N.jpg","1","1","1","0","0","0","0.665899200364947","0.600514099933207","1.06322380062193","1","1","1","1","1","1","1","1","1"
"250003","img/neutralC/CFD-AM-230-150-N.jpg","img/neutralC/CFD-IM-696-001-N.jpg","img/neutralC/CFD-IF-677-452-1-N.jpg","1","1","1","0","0","1","1.06322380062193","0.665899200364947","0.91082280036062","1","1","1","1","1","1","1","1","1"
"250003","img/neutralC/CFD-IF-677-452-1-N.jpg","img/neutralC/CFD-AM-230-150-N.jpg","img/neutralC/CFD-BF-247-179-N.jpg","1","1","1","1","0","0","0.91082280036062","1.06322380062193","0.930875000078231","1","1","1","1","1","1","1","1","1"
"250003","img/neutralC/CFD-BF-247-179-N.jpg","img/neutralC/CFD-IF-677-452-1-N.jpg","img/neutralC/CFD-IF-742-103-N.jpg","1","1","1","0","1","1","0.930875000078231","0.91082280036062","0.732243500649929","1","1","1","1","1","1","1","1","1"
"250003","img/neutralC/CFD-IF-742-103-N.jpg","img/neutralC/CFD-BF-247-179-N.jpg","img/neutralC/CFD-WF-233-112-N.jpg","1","1","1","1","0","1","0.732243500649929","0.930875000078231","0.845786400604993","1","1","1","1","1","1","1","1","1"
"250003","img/neutralC/CFD-WF-233-112-N.jpg","img/neutralC/CFD-IF-742-103-N.jpg","img/neutralC/CFD-WF-234-086-N.jpg","1","1","1","1","1","1","0.845786400604993","0.732243500649929","0.74949420010671","1","1","1","1","1","1","1","1","1"
"250003","img/neutralC/CFD-WF-234-086-N.jpg","img/neutralC/CFD-WF-233-112-N.jpg","img/neutralC/CFD-BF-044-034-N.jpg","1","1","1","1","1","0","0.74949420010671","0.845786400604993","0.803756800480187","1","1","1","1","1","1","1","1","1"
"250003","img/neutralC/CFD-BF-044-034-N.jpg","img/neutralC/CFD-WF-234-086-N.jpg","img/neutralC/CFD-WM-248-036-N.jpg","1","1","1","0","1","1","0.803756800480187","0.74949420010671","0.593649100512266","1","1","1","1","1","1","1","1","1"
"250003","img/neutralC/CFD-WM-248-036-N.jpg","img/neutralC/CFD-BF-044-034-N.jpg","img/neutralC/CFD-BM-238-242-N.jpg","1","1","1","1","0","0","0.593649100512266","0.803756800480187","1.26836880017072","1","1","1","1","1","1","1","1","1"
"250003","img/neutralC/CFD-BM-238-242-N.jpg","img/neutralC/CFD-WM-248-036-N.jpg","img/neutralC/CFD-WF-029-002-N.jpg","1","1","1","0","1","0","1.26836880017072","0.593649100512266","0.668677400331944","1","1","1","1","1","1","1","1","1"
"250003","img/neutralC/CFD-WF-029-002-N.jpg","img/neutralC/CFD-BM-238-242-N.jpg","img/neutralC/CFD-LM-213-061-N.jpg","1","1","1","0","0","0","0.668677400331944","1.26836880017072","0.569126800168306","1","1","1","1","1","1","1","1","1"
"250003","img/neutralC/CFD-LM-213-061-N.jpg","img/neutralC/CFD-WF-029-002-N.jpg","img/neutralC/CFD-BM-207-024-N.jpg","1","1","1","0","0","1","0.569126800168306","0.668677400331944","0.742274900432676","1","1","1","1","1","1","1","1","1"
"250003","img/neutralC/CFD-BM-207-024-N.jpg","img/neutralC/CFD-LM-213-061-N.jpg","img/neutralC/CFD-BF-006-017-N.jpg","1","1","1","1","0","0","0.742274900432676","0.569126800168306","0.727887500077486","1","1","1","1","1","1","1","1","1"
"250003","img/neutralC/CFD-BF-006-017-N.jpg","img/neutralC/CFD-BM-207-024-N.jpg","img/neutralC/CFD-BF-214-308-N.jpg","1","1","1","0","1","1","0.727887500077486","0.742274900432676","0.78172710025683","1","1","1","1","1","1","1","1","1"
"250003","img/neutralC/CFD-BF-214-308-N.jpg","img/neutralC/CFD-BF-006-017-N.jpg","img/neutralC/CFD-WF-208-068-N.jpg","1","1","1","1","0","1","0.78172710025683","0.727887500077486","1.06644730037078","1","1","1","1","1","1","1","1","1"
"250003","img/neutralC/CFD-WF-208-068-N.jpg","img/neutralC/CFD-BF-214-308-N.jpg","img/neutralC/CFD-BF-236-177-N.jpg","1","1","1","1","1","0","1.06644730037078","0.78172710025683","0.659018800593913","1","1","1","1","1","1","1","1","1"
"250003","img/neutralC/CFD-BF-236-177-N.jpg","img/neutralC/CFD-WF-208-068-N.jpg","img/neutralC/CFD-BF-027-002-N.jpg","1","1","1","0","1","1","0.659018800593913","1.06644730037078","1.09834400052205","1","1","1","1","1","1","1","1","1"
"250003","img/neutralC/CFD-BF-027-002-N.jpg","img/neutralC/CFD-BF-236-177-N.jpg","img/neutralC/CFD-BM-241-235-N.jpg","1","1","1","1","0","0","1.09834400052205","0.659018800593913","0.96209380030632","1","1","1","1","1","1","1","1","1"
"250003","img/neutralC/CFD-BM-241-235-N.jpg","img/neutralC/CFD-BF-027-002-N.jpg","img/neutralC/CFD-IM-721-341-N.jpg","1","1","1","0","1","1","0.96209380030632","1.09834400052205","0.996352600399405","1","1","1","1","1","1","1","1","1"
"250003","img/neutralC/CFD-IM-721-341-N.jpg","img/neutralC/CFD-BM-241-235-N.jpg","img/neutralC/CFD-BM-036-003-N.jpg","1","1","1","1","0","1","0.996352600399405","0.96209380030632","0.626660100184381","1","1","1","1","1","1","1","1","1"
"250003","img/neutralC/CFD-BM-036-003-N.jpg","img/neutralC/CFD-IM-721-341-N.jpg","img/neutralC/CFD-IM-707-105-N.jpg","1","1","1","1","1","1","0.626660100184381","0.996352600399405","0.991004400420934","1","1","1","1","1","1","1","1","1"
"250003","img/neutralC/CFD-IM-707-105-N.jpg","img/neutralC/CFD-BM-036-003-N.jpg","img/neutralC/CFD-IF-729-393-N.jpg","1","1","1","1","1","0","0.991004400420934","0.626660100184381","0.642628500238061","1","1","1","1","1","1","1","1","1"
"250003","img/neutralC/CFD-IF-729-393-N.jpg","img/neutralC/CFD-IM-707-105-N.jpg",NA,"1","1",NA,"0","1",NA,"0.642628500238061","0.991004400420934",NA,"1","1",NA,"1","1",NA,"1","1",NA
"250003","img/neutralC/CFD-WM-009-002-N.jpg",NA,"img/neutralC/CFD-MM-321-021-N.jpg","1",NA,"1","0",NA,"0","0.479488700628281",NA,"0.549760900437832","1",NA,"1","1",NA,"1","1",NA,"1"
"250003","img/neutralC/CFD-MM-321-021-N.jpg","img/neutralC/CFD-WM-009-002-N.jpg","img/neutralC/CFD-WM-255-219-N.jpg","1","1","1","0","0","0","0.549760900437832","0.479488700628281","0.547599300276488","1","1","1","1","1","1","1","1","1"
"250003","img/neutralC/CFD-WM-255-219-N.jpg","img/neutralC/CFD-MM-321-021-N.jpg","img/neutralC/CFD-MF-321-003-N.jpg","1","1","1","0","0","0","0.547599300276488","0.549760900437832","0.647705500014126","1","1","1","1","1","1","1","1","1"
"250003","img/neutralC/CFD-MF-321-003-N.jpg","img/neutralC/CFD-WM-255-219-N.jpg","img/neutralC/CFD-AM-244-222-N.jpg","1","1","1","0","0","0","0.647705500014126","0.547599300276488","0.543864200357348","1","1","1","1","1","1","1","1","1"
"250003","img/neutralC/CFD-AM-244-222-N.jpg","img/neutralC/CFD-MF-321-003-N.jpg","img/neutralC/CFD-IF-629-234-N.jpg","1","1","1","0","0","0","0.543864200357348","0.647705500014126","0.575919200666249","1","1","1","1","1","1","1","1","1"
"250003","img/neutralC/CFD-IF-629-234-N.jpg","img/neutralC/CFD-AM-244-222-N.jpg","img/neutralC/CFD-WF-023-003-N.jpg","1","1","1","0","0","1","0.575919200666249","0.543864200357348","0.861623800359666","1","1","1","1","1","1","1","1","1"
"250003","img/neutralC/CFD-WF-023-003-N.jpg","img/neutralC/CFD-IF-629-234-N.jpg","img/neutralC/CFD-BF-254-201-N.jpg","1","1","1","1","0","0","0.861623800359666","0.575919200666249","0.809770900290459","1","1","1","1","1","1","1","1","1"
"250003","img/neutralC/CFD-BF-254-201-N.jpg","img/neutralC/CFD-WF-023-003-N.jpg","img/neutralC/CFD-LM-253-075-N.jpg","1","1","1","0","1","0","0.809770900290459","0.861623800359666","0.649216400459409","1","1","1","1","1","1","1","1","1"
"250003","img/neutralC/CFD-LM-253-075-N.jpg","img/neutralC/CFD-BF-254-201-N.jpg","img/neutralC/CFD-LF-211-003-N.jpg","1","1","1","0","0","0","0.649216400459409","0.809770900290459","0.575101700611413","1","1","1","1","1","1","1","1","1"
"250003","img/neutralC/CFD-LF-211-003-N.jpg","img/neutralC/CFD-LM-253-075-N.jpg","img/neutralC/CFD-BF-218-207-N.jpg","1","1","1","0","0","1","0.575101700611413","0.649216400459409","0.718438700307161","1","1","1","1","1","1","1","1","1"
"250003","img/neutralC/CFD-BF-218-207-N.jpg","img/neutralC/CFD-LF-211-003-N.jpg","img/neutralC/CFD-AF-221-147-N.jpg","1","1","1","1","0","0","0.718438700307161","0.575101700611413","0.748317800462246","1","1","1","1","1","1","1","1","1"
"250003","img/neutralC/CFD-AF-221-147-N.jpg","img/neutralC/CFD-BF-218-207-N.jpg","img/neutralC/CFD-MF-318-022-N.jpg","1","1","1","0","1","1","0.748317800462246","0.718438700307161","0.931929300539196","1","1","1","1","1","1","1","1","1"
"250003","img/neutralC/CFD-MF-318-022-N.jpg","img/neutralC/CFD-AF-221-147-N.jpg","img/neutralC/CFD-AF-232-078-N.jpg","1","1","1","1","0","1","0.931929300539196","0.748317800462246","0.602484900504351","1","1","1","1","1","1","1","1","1"
"250003","img/neutralC/CFD-AF-232-078-N.jpg","img/neutralC/CFD-MF-318-022-N.jpg","img/neutralC/CFD-WF-226-095-N.jpg","1","1","1","1","1","1","0.602484900504351","0.931929300539196","0.418130200356245","1","1","1","1","1","1","1","1","1"
"250003","img/neutralC/CFD-WF-226-095-N.jpg","img/neutralC/CFD-AF-232-078-N.jpg","img/neutralC/CFD-LF-215-157-N.jpg","1","1","1","1","1","0","0.418130200356245","0.602484900504351","0.536973900161684","1","1","1","1","1","1","1","1","1"
"250003","img/neutralC/CFD-LF-215-157-N.jpg","img/neutralC/CFD-WF-226-095-N.jpg","img/neutralC/CFD-BF-018-039-N.jpg","1","1","1","0","1","1","0.536973900161684","0.418130200356245","0.604655900038779","1","1","1","1","1","1","1","1","1"
"250003","img/neutralC/CFD-BF-018-039-N.jpg","img/neutralC/CFD-LF-215-157-N.jpg","img/neutralC/CFD-WM-201-063-N.jpg","1","1","1","1","0","1","0.604655900038779","0.536973900161684","0.391897100489587","1","1","1","1","1","1","1","1","1"
"250003","img/neutralC/CFD-WM-201-063-N.jpg","img/neutralC/CFD-BF-018-039-N.jpg","img/neutralC/CFD-WM-221-091-N.jpg","1","1","1","1","1","0","0.391897100489587","0.604655900038779","0.457962000276893","1","1","1","1","1","1","1","1","1"
"250003","img/neutralC/CFD-WM-221-091-N.jpg","img/neutralC/CFD-WM-201-063-N.jpg","img/neutralC/CFD-WM-237-052-N.jpg","1","1","1","0","1","1","0.457962000276893","0.391897100489587","0.456983500625938","1","1","1","1","1","1","1","1","1"
"250003","img/neutralC/CFD-WM-237-052-N.jpg","img/neutralC/CFD-WM-221-091-N.jpg","img/neutralC/CFD-BM-200-046-N.jpg","1","1","1","1","0","0","0.456983500625938","0.457962000276893","0.431338800117374","1","1","1","1","1","1","1","1","1"
"250003","img/neutralC/CFD-BM-200-046-N.jpg","img/neutralC/CFD-WM-237-052-N.jpg","img/neutralC/CFD-MF-342-022-N.jpg","1","1","1","0","1","1","0.431338800117374","0.456983500625938","0.499504800420254","1","1","1","1","1","1","1","1","1"
"250003","img/neutralC/CFD-MF-342-022-N.jpg","img/neutralC/CFD-BM-200-046-N.jpg","img/neutralC/CFD-BM-204-003-N.jpg","1","1","1","1","0","0","0.499504800420254","0.431338800117374","0.588644600473344","1","1","1","1","1","1","1","1","1"
"250003","img/neutralC/CFD-BM-204-003-N.jpg","img/neutralC/CFD-MF-342-022-N.jpg","img/neutralC/CFD-WF-018-017-N.jpg","1","1","1","0","1","1","0.588644600473344","0.499504800420254","0.960188900120556","1","1","1","1","1","1","1","1","1"
"250003","img/neutralC/CFD-WF-018-017-N.jpg","img/neutralC/CFD-BM-204-003-N.jpg","img/neutralC/CFD-WF-238-023-N.jpg","1","1","1","1","0","0","0.960188900120556","0.588644600473344","0.942467100452632","1","1","1","1","1","1","1","1","1"
"250003","img/neutralC/CFD-WF-238-023-N.jpg","img/neutralC/CFD-WF-018-017-N.jpg","img/neutralC/CFD-WM-013-001-N.jpg","1","1","1","0","1","1","0.942467100452632","0.960188900120556","0.92551950039342","1","1","1","1","1","1","1","1","1"
"250003","img/neutralC/CFD-WM-013-001-N.jpg","img/neutralC/CFD-WF-238-023-N.jpg","img/neutralC/CFD-WF-027-003-N.jpg","1","1","1","1","0","1","0.92551950039342","0.942467100452632","0.882221800275147","1","1","1","1","1","1","1","1","1"
"250003","img/neutralC/CFD-WF-027-003-N.jpg","img/neutralC/CFD-WM-013-001-N.jpg","img/neutralC/CFD-WF-245-084-N.jpg","1","1","1","1","1","1","0.882221800275147","0.92551950039342","0.617817300371826","1","1","1","1","1","1","1","1","1"
"250003","img/neutralC/CFD-WF-245-084-N.jpg","img/neutralC/CFD-WF-027-003-N.jpg","img/neutralC/CFD-BM-023-029-N.jpg","1","1","1","1","1","1","0.617817300371826","0.882221800275147","0.498908000066876","1","1","1","1","1","1","1","1","1"
"250003","img/neutralC/CFD-BM-023-029-N.jpg","img/neutralC/CFD-WF-245-084-N.jpg","img/neutralC/CFD-IM-627-178-N.jpg","1","1","1","1","1","1","0.498908000066876","0.617817300371826","0.628992200363427","1","1","1","1","1","1","1","1","1"
"250003","img/neutralC/CFD-IM-627-178-N.jpg","img/neutralC/CFD-BM-023-029-N.jpg","img/neutralC/CFD-IM-700-009-N.jpg","1","1","1","1","1","1","0.628992200363427","0.498908000066876","0.651670000515878","1","1","1","1","1","1","1","1","1"
"250003","img/neutralC/CFD-IM-700-009-N.jpg","img/neutralC/CFD-IM-627-178-N.jpg","img/neutralC/CFD-IM-719-221-N.jpg","1","1","1","1","1","0","0.651670000515878","0.628992200363427","0.628069900441915","1","1","1","1","1","1","1","1","1"
"250003","img/neutralC/CFD-IM-719-221-N.jpg","img/neutralC/CFD-IM-700-009-N.jpg",NA,"1","1",NA,"0","1",NA,"0.628069900441915","0.651670000515878",NA,"1","1",NA,"1","1",NA,"1","1",NA
"250003","img/neutralC/CFD-BM-243-218-N.jpg",NA,"img/neutralC/CFD-MF-327-002-N.jpg","1",NA,"1","1",NA,"0","0.646767600439489",NA,"0.571847400162369","1",NA,"1","1",NA,"1","1",NA,"1"
"250003","img/neutralC/CFD-MF-327-002-N.jpg","img/neutralC/CFD-BM-243-218-N.jpg","img/neutralC/CFD-IM-604-014-N.jpg","1","1","1","0","1","0","0.571847400162369","0.646767600439489","0.553325600456446","1","1","1","1","1","1","1","1","1"
"250003","img/neutralC/CFD-IM-604-014-N.jpg","img/neutralC/CFD-MF-327-002-N.jpg","img/neutralC/CFD-IM-675-015-N.jpg","1","1","1","0","0","1","0.553325600456446","0.571847400162369","0.424328499939293","1","1","1","1","1","1","1","1","1"
"250003","img/neutralC/CFD-IM-675-015-N.jpg","img/neutralC/CFD-IM-604-014-N.jpg","img/neutralC/CFD-IF-608-390-N.jpg","1","1","1","1","0","1","0.424328499939293","0.553325600456446","0.416051700245589","1","1","1","1","1","1","1","1","1"
"250003","img/neutralC/CFD-IF-608-390-N.jpg","img/neutralC/CFD-IM-675-015-N.jpg","img/neutralC/CFD-AF-215-70-N.jpg","1","1","1","1","1","0","0.416051700245589","0.424328499939293","0.54785370035097","1","1","1","1","1","1","1","1","1"
"250003","img/neutralC/CFD-AF-215-70-N.jpg","img/neutralC/CFD-IF-608-390-N.jpg","img/neutralC/CFD-WF-248-129-N.jpg","1","1","1","0","1","0","0.54785370035097","0.416051700245589","0.545002700295299","1","1","1","1","1","1","1","1","1"
"250003","img/neutralC/CFD-WF-248-129-N.jpg","img/neutralC/CFD-AF-215-70-N.jpg","img/neutralC/CFD-WM-213-076-N.jpg","1","1","1","0","0","1","0.545002700295299","0.54785370035097","0.468398800585419","1","1","1","1","1","1","1","1","1"
"250003","img/neutralC/CFD-WM-213-076-N.jpg","img/neutralC/CFD-WF-248-129-N.jpg","img/neutralC/CFD-WF-008-002-N.jpg","1","1","0","1","0","1","0.468398800585419","0.545002700295299","0.710865700617433","1","1","1","1","1","1","1","1","1"
"250003","img/neutralC/CFD-WF-008-002-N.jpg","img/neutralC/CFD-WM-213-076-N.jpg","img/neutralC/CFD-WF-212-050-N.jpg","0","1","1","1","1","0","0.710865700617433","0.468398800585419","0.58006970025599","1","1","1","1","1","1","1","1","1"
"250003","img/neutralC/CFD-WF-212-050-N.jpg","img/neutralC/CFD-WF-008-002-N.jpg","img/neutralC/CFD-BF-051-035-N.jpg","1","0","1","0","1","0","0.58006970025599","0.710865700617433","0.55670370021835","1","1","1","1","1","1","1","1","1"
"250003","img/neutralC/CFD-BF-051-035-N.jpg","img/neutralC/CFD-WF-212-050-N.jpg","img/neutralC/CFD-IM-709-103-N.jpg","1","1","1","0","0","0","0.55670370021835","0.58006970025599","0.428722800686955","1","1","1","1","1","1","1","1","1"
"250003","img/neutralC/CFD-IM-709-103-N.jpg","img/neutralC/CFD-BF-051-035-N.jpg","img/neutralC/CFD-WM-024-015-N.jpg","1","1","1","0","0","1","0.428722800686955","0.55670370021835","0.410739800427109","1","1","1","1","1","1","1","1","1"
"250003","img/neutralC/CFD-WM-024-015-N.jpg","img/neutralC/CFD-IM-709-103-N.jpg","img/neutralC/CFD-IM-685-004-N.jpg","1","1","1","1","0","1","0.410739800427109","0.428722800686955","0.488980500493199","1","1","1","1","1","1","1","1","1"
"250003","img/neutralC/CFD-IM-685-004-N.jpg","img/neutralC/CFD-WM-024-015-N.jpg","img/neutralC/CFD-BM-039-029-N.jpg","1","1","1","1","1","1","0.488980500493199","0.410739800427109","0.393723700195551","1","1","1","1","1","1","1","1","1"
"250003","img/neutralC/CFD-BM-039-029-N.jpg","img/neutralC/CFD-IM-685-004-N.jpg","img/neutralC/CFD-LF-226-174-N.jpg","1","1","1","1","1","0","0.393723700195551","0.488980500493199","0.583021300379187","1","1","1","1","1","1","1","1","1"
"250003","img/neutralC/CFD-LF-226-174-N.jpg","img/neutralC/CFD-BM-039-029-N.jpg","img/neutralC/CFD-MM-304-002-N.jpg","1","1","1","0","1","1","0.583021300379187","0.393723700195551","0.4131258004345","1","1","1","1","1","1","1","1","1"
"250003","img/neutralC/CFD-MM-304-002-N.jpg","img/neutralC/CFD-LF-226-174-N.jpg","img/neutralC/CFD-IF-619-197-N.jpg","1","1","1","1","0","0","0.4131258004345","0.583021300379187","0.557242500595748","1","1","1","1","1","1","1","1","1"
"250003","img/neutralC/CFD-IF-619-197-N.jpg","img/neutralC/CFD-MM-304-002-N.jpg","img/neutralC/CFD-WF-012-002-N.jpg","1","1","1","0","1","1","0.557242500595748","0.4131258004345","1.02585600037128","1","1","1","1","1","1","1","1","1"
"250003","img/neutralC/CFD-WF-012-002-N.jpg","img/neutralC/CFD-IF-619-197-N.jpg","img/neutralC/CFD-WM-232-070-N.jpg","1","1","1","1","0","0","1.02585600037128","0.557242500595748","0.519144400488585","1","1","1","1","1","1","1","1","1"
"250003","img/neutralC/CFD-WM-232-070-N.jpg","img/neutralC/CFD-WF-012-002-N.jpg","img/neutralC/CFD-WF-217-085-N.jpg","1","1","1","0","1","1","0.519144400488585","1.02585600037128","0.391588300466537","1","1","1","1","1","1","1","1","1"
"250003","img/neutralC/CFD-WF-217-085-N.jpg","img/neutralC/CFD-WM-232-070-N.jpg","img/neutralC/CFD-BF-043-003-N.jpg","1","1","1","1","0","0","0.391588300466537","0.519144400488585","0.438626000192016","1","1","1","1","1","1","1","1","1"
"250003","img/neutralC/CFD-BF-043-003-N.jpg","img/neutralC/CFD-WF-217-085-N.jpg","img/neutralC/CFD-LM-217-162-N.jpg","1","1","1","0","1","0","0.438626000192016","0.391588300466537","0.613636000081897","1","1","1","1","1","1","1","1","1"
"250003","img/neutralC/CFD-LM-217-162-N.jpg","img/neutralC/CFD-BF-043-003-N.jpg","img/neutralC/CFD-IM-637-007-N.jpg","1","1","1","0","0","0","0.613636000081897","0.438626000192016","0.415476300287992","1","1","1","1","1","1","1","1","1"
"250003","img/neutralC/CFD-IM-637-007-N.jpg","img/neutralC/CFD-LM-217-162-N.jpg","img/neutralC/CFD-AM-236-090-N.jpg","1","1","1","0","0","1","0.415476300287992","0.613636000081897","0.760082900058478","1","1","1","1","1","1","1","1","1"
"250003","img/neutralC/CFD-AM-236-090-N.jpg","img/neutralC/CFD-IM-637-007-N.jpg","img/neutralC/CFD-LF-201-035-N.jpg","1","1","1","1","0","1","0.760082900058478","0.415476300287992","0.591229300014675","1","1","1","1","1","1","1","1","1"
"250003","img/neutralC/CFD-LF-201-035-N.jpg","img/neutralC/CFD-AM-236-090-N.jpg","img/neutralC/CFD-MF-329-001-N.jpg","1","1","1","1","1","0","0.591229300014675","0.760082900058478","0.552609500475228","1","1","1","1","1","1","1","1","1"
"250003","img/neutralC/CFD-MF-329-001-N.jpg","img/neutralC/CFD-LF-201-035-N.jpg","img/neutralC/CFD-MF-300-002-N.jpg","1","1","1","0","1","0","0.552609500475228","0.591229300014675","0.713374700397253","1","1","1","1","1","1","1","1","1"
"250003","img/neutralC/CFD-MF-300-002-N.jpg","img/neutralC/CFD-MF-329-001-N.jpg","img/neutralC/CFD-BF-224-002-N.jpg","1","1","1","0","0","1","0.713374700397253","0.552609500475228","0.436417900491506","1","1","1","1","1","1","1","1","1"
"250003","img/neutralC/CFD-BF-224-002-N.jpg","img/neutralC/CFD-MF-300-002-N.jpg","img/neutralC/CFD-AF-229-160-N.jpg","1","1","1","1","0","0","0.436417900491506","0.713374700397253","0.530091100372374","1","1","1","1","1","1","1","1","1"
"250003","img/neutralC/CFD-AF-229-160-N.jpg","img/neutralC/CFD-BF-224-002-N.jpg","img/neutralC/CFD-AF-254-167-N.jpg","1","1","1","0","1","1","0.530091100372374","0.436417900491506","0.491031400393695","1","1","1","1","1","1","1","1","1"
"250003","img/neutralC/CFD-AF-254-167-N.jpg","img/neutralC/CFD-AF-229-160-N.jpg","img/neutralC/CFD-MF-340-026-N.jpg","1","1","1","1","0","1","0.491031400393695","0.530091100372374","0.524823300540447","1","1","1","1","1","1","1","1","1"
"250003","img/neutralC/CFD-MF-340-026-N.jpg","img/neutralC/CFD-AF-254-167-N.jpg",NA,"1","1",NA,"1","1",NA,"0.524823300540447","0.491031400393695",NA,"1","1",NA,"1","1",NA,"1","1",NA
"250003","img/neutralC/CFD-IM-659-359-N.jpg",NA,"img/neutralC/CFD-LF-210-220-N.jpg","1",NA,"1","0",NA,"1","0.483774300199002",NA,"0.36829200014472","1",NA,"1","1",NA,"1","1",NA,"1"
"250003","img/neutralC/CFD-LF-210-220-N.jpg","img/neutralC/CFD-IM-659-359-N.jpg","img/neutralC/CFD-BM-013-002-N.jpg","1","1","1","1","0","1","0.36829200014472","0.483774300199002","0.470928700640798","1","1","1","1","1","1","1","1","1"
"250003","img/neutralC/CFD-BM-013-002-N.jpg","img/neutralC/CFD-LF-210-220-N.jpg","img/neutralC/CFD-WM-228-065-N.jpg","1","1","1","1","1","0","0.470928700640798","0.36829200014472","0.456282000523061","1","1","1","1","1","1","1","1","1"
"250003","img/neutralC/CFD-WM-228-065-N.jpg","img/neutralC/CFD-BM-013-002-N.jpg","img/neutralC/CFD-BM-003-003-N.jpg","1","1","1","0","1","0","0.456282000523061","0.470928700640798","0.386609000619501","1","1","1","1","1","1","1","1","1"
"250003","img/neutralC/CFD-BM-003-003-N.jpg","img/neutralC/CFD-WM-228-065-N.jpg","img/neutralC/CFD-AF-227-207-N.jpg","1","1","1","0","0","1","0.386609000619501","0.456282000523061","0.634073300287127","1","1","1","1","1","1","1","1","1"
"250003","img/neutralC/CFD-AF-227-207-N.jpg","img/neutralC/CFD-BM-003-003-N.jpg","img/neutralC/CFD-WM-254-152-N.jpg","1","1","1","1","0","1","0.634073300287127","0.386609000619501","0.514363700523973","1","1","1","1","1","1","1","1","1"
"250003","img/neutralC/CFD-WM-254-152-N.jpg","img/neutralC/CFD-AF-227-207-N.jpg","img/neutralC/CFD-LF-208-127-N.jpg","1","1","1","1","1","0","0.514363700523973","0.634073300287127","0.498421800322831","1","1","1","1","1","1","1","1","1"
"250003","img/neutralC/CFD-LF-208-127-N.jpg","img/neutralC/CFD-WM-254-152-N.jpg","img/neutralC/CFD-BF-004-014-N.jpg","1","1","1","0","1","1","0.498421800322831","0.514363700523973","0.430554100312293","1","1","1","1","1","1","1","1","1"
"250003","img/neutralC/CFD-BF-004-014-N.jpg","img/neutralC/CFD-LF-208-127-N.jpg","img/neutralC/CFD-IF-673-389-N.jpg","1","1","1","1","0","0","0.430554100312293","0.498421800322831","0.58306510001421","1","1","1","1","1","1","1","1","1"
"250003","img/neutralC/CFD-IF-673-389-N.jpg","img/neutralC/CFD-BF-004-014-N.jpg","img/neutralC/CFD-LF-241-188-N.jpg","1","1","1","0","1","0","0.58306510001421","0.430554100312293","0.590112900361419","1","1","1","1","1","1","1","1","1"
"250003","img/neutralC/CFD-LF-241-188-N.jpg","img/neutralC/CFD-IF-673-389-N.jpg","img/neutralC/CFD-WF-223-133-N.jpg","1","1","1","0","0","0","0.590112900361419","0.58306510001421","0.519687400199473","1","1","1","1","1","1","1","1","1"
"250003","img/neutralC/CFD-WF-223-133-N.jpg","img/neutralC/CFD-LF-241-188-N.jpg","img/neutralC/CFD-WF-033-002-N.jpg","1","1","1","0","0","1","0.519687400199473","0.590112900361419","0.604002000298351","1","1","1","1","1","1","1","1","1"
"250003","img/neutralC/CFD-WF-033-002-N.jpg","img/neutralC/CFD-WF-223-133-N.jpg","img/neutralC/CFD-AF-239-171-N.jpg","1","1","1","1","0","1","0.604002000298351","0.519687400199473","0.5491206003353","1","1","1","1","1","1","1","1","1"
"250003","img/neutralC/CFD-AF-239-171-N.jpg","img/neutralC/CFD-WF-033-002-N.jpg","img/neutralC/CFD-BM-010-003-N.jpg","1","1","1","1","1","0","0.5491206003353","0.604002000298351","0.486429300159216","1","1","1","1","1","1","1","1","1"
"250003","img/neutralC/CFD-BM-010-003-N.jpg","img/neutralC/CFD-AF-239-171-N.jpg","img/neutralC/CFD-IF-744-114-N.jpg","1","1","1","0","1","0","0.486429300159216","0.5491206003353","0.529705400578678","1","1","1","1","1","1","1","1","1"
"250003","img/neutralC/CFD-IF-744-114-N.jpg","img/neutralC/CFD-BM-010-003-N.jpg","img/neutralC/CFD-BM-213-134-N.jpg","1","1","1","0","0","1","0.529705400578678","0.486429300159216","0.468657800462097","1","1","1","1","1","1","1","1","1"
"250003","img/neutralC/CFD-BM-213-134-N.jpg","img/neutralC/CFD-IF-744-114-N.jpg","img/neutralC/CFD-AF-210-050-N.jpg","1","1","1","1","0","1","0.468657800462097","0.529705400578678","0.462208400480449","1","1","1","1","1","1","1","1","1"
"250003","img/neutralC/CFD-AF-210-050-N.jpg","img/neutralC/CFD-BM-213-134-N.jpg","img/neutralC/CFD-LF-225-164-N.jpg","1","1","1","1","1","1","0.462208400480449","0.468657800462097","0.384855300188065","1","1","1","1","1","1","1","1","1"
"250003","img/neutralC/CFD-LF-225-164-N.jpg","img/neutralC/CFD-AF-210-050-N.jpg","img/neutralC/CFD-WM-202-107-N.jpg","1","1","1","1","1","1","0.384855300188065","0.462208400480449","0.455216900445521","1","1","1","1","1","1","1","1","1"
"250003","img/neutralC/CFD-WM-202-107-N.jpg","img/neutralC/CFD-LF-225-164-N.jpg","img/neutralC/CFD-MF-312-002-N.jpg","1","1","1","1","1","1","0.455216900445521","0.384855300188065","0.556965400464833","1","1","1","1","1","1","1","1","1"
"250003","img/neutralC/CFD-MF-312-002-N.jpg","img/neutralC/CFD-WM-202-107-N.jpg","img/neutralC/CFD-LM-247-095-N.jpg","1","1","1","1","1","0","0.556965400464833","0.455216900445521","0.561249600257725","1","1","1","1","1","1","1","1","1"
"250003","img/neutralC/CFD-LM-247-095-N.jpg","img/neutralC/CFD-MF-312-002-N.jpg","img/neutralC/CFD-AM-221-184-N.jpg","1","1","1","0","1","1","0.561249600257725","0.556965400464833","0.44248880026862","1","1","1","1","1","1","1","1","1"
"250003","img/neutralC/CFD-AM-221-184-N.jpg","img/neutralC/CFD-LM-247-095-N.jpg","img/neutralC/CFD-MF-336-016-N.jpg","1","1","1","1","0","1","0.44248880026862","0.561249600257725","0.412624500226229","1","1","1","1","1","1","1","1","1"
"250003","img/neutralC/CFD-MF-336-016-N.jpg","img/neutralC/CFD-AM-221-184-N.jpg","img/neutralC/CFD-LM-238-129-N.jpg","1","1","1","1","1","1","0.412624500226229","0.44248880026862","0.404746900312603","1","1","1","1","1","1","1","1","1"
"250003","img/neutralC/CFD-LM-238-129-N.jpg","img/neutralC/CFD-MF-336-016-N.jpg","img/neutralC/CFD-IF-625-225-N.jpg","1","1","1","1","1","0","0.404746900312603","0.412624500226229","0.522237700410187","1","1","1","1","1","1","1","1","1"
"250003","img/neutralC/CFD-IF-625-225-N.jpg","img/neutralC/CFD-LM-238-129-N.jpg","img/neutralC/CFD-BF-222-240-N.jpg","1","1","1","0","1","0","0.522237700410187","0.404746900312603","0.451993400231004","1","1","1","1","1","1","1","1","1"
"250003","img/neutralC/CFD-BF-222-240-N.jpg","img/neutralC/CFD-IF-625-225-N.jpg","img/neutralC/CFD-IM-738-191-N.jpg","1","1","1","0","0","0","0.451993400231004","0.522237700410187","0.497856200672686","1","1","1","1","1","1","1","1","1"
"250003","img/neutralC/CFD-IM-738-191-N.jpg","img/neutralC/CFD-BF-222-240-N.jpg","img/neutralC/CFD-BF-045-003-N.jpg","1","1","1","0","0","0","0.497856200672686","0.451993400231004","0.41149100009352","1","1","1","1","1","1","1","1","1"
"250003","img/neutralC/CFD-BF-045-003-N.jpg","img/neutralC/CFD-IM-738-191-N.jpg","img/neutralC/CFD-IM-701-312-N.jpg","1","1","1","0","0","0","0.41149100009352","0.497856200672686","0.553275800775737","1","1","1","1","1","1","1","1","1"
"250003","img/neutralC/CFD-IM-701-312-N.jpg","img/neutralC/CFD-BF-045-003-N.jpg","img/neutralC/CFD-WF-006-002-N.jpg","1","1","1","0","0","0","0.553275800775737","0.41149100009352","0.599888200405985","1","1","1","1","1","1","1","1","1"
"250003","img/neutralC/CFD-WF-006-002-N.jpg","img/neutralC/CFD-IM-701-312-N.jpg","img/neutralC/CFD-BM-028-002-N.jpg","1","1","1","0","0","1","0.599888200405985","0.553275800775737","0.526888600084931","1","1","1","1","1","1","1","1","1"
"250003","img/neutralC/CFD-BM-028-002-N.jpg","img/neutralC/CFD-WF-006-002-N.jpg",NA,"1","1",NA,"1","0",NA,"0.526888600084931","0.599888200405985",NA,"1","1",NA,"1","1",NA,"1","1",NA
"250003","img/neutralC/CFD-LF-205-100-N.jpg",NA,"img/neutralC/CFD-LM-215-247-N.jpg","1",NA,"1","1",NA,"0","0.589039500337094",NA,"0.49450770067051","1",NA,"1","1",NA,"1","1",NA,"1"
"250003","img/neutralC/CFD-LM-215-247-N.jpg","img/neutralC/CFD-LF-205-100-N.jpg","img/neutralC/CFD-WF-224-099-N.jpg","1","1","1","0","1","0","0.49450770067051","0.589039500337094","0.399044000543654","1","1","1","1","1","1","1","1","1"
"250003","img/neutralC/CFD-WF-224-099-N.jpg","img/neutralC/CFD-LM-215-247-N.jpg","img/neutralC/CFD-IF-710-016-N.jpg","1","1","1","0","0","0","0.399044000543654","0.49450770067051","0.517123900353909","1","1","1","1","1","1","1","1","1"
"250003","img/neutralC/CFD-IF-710-016-N.jpg","img/neutralC/CFD-WF-224-099-N.jpg","img/neutralC/CFD-LF-230-203-N.jpg","1","1","1","0","0","0","0.517123900353909","0.399044000543654","0.436071900650859","1","1","1","1","1","1","1","1","1"
"250003","img/neutralC/CFD-LF-230-203-N.jpg","img/neutralC/CFD-IF-710-016-N.jpg","img/neutralC/CFD-WM-011-002-N.jpg","1","1","1","0","0","0","0.436071900650859","0.517123900353909","0.327892900444567","1","1","1","1","1","1","1","1","1"
"250003","img/neutralC/CFD-WM-011-002-N.jpg","img/neutralC/CFD-LF-230-203-N.jpg","img/neutralC/CFD-MF-337-026-N.jpg","1","1","1","0","0","1","0.327892900444567","0.436071900650859","0.472817500587553","1","1","1","1","1","1","1","1","1"
"250003","img/neutralC/CFD-MF-337-026-N.jpg","img/neutralC/CFD-WM-011-002-N.jpg","img/neutralC/CFD-BM-019-002-N.jpg","1","1","1","1","0","0","0.472817500587553","0.327892900444567","0.452064500190318","1","1","1","1","1","1","1","1","1"
"250003","img/neutralC/CFD-BM-019-002-N.jpg","img/neutralC/CFD-MF-337-026-N.jpg","img/neutralC/CFD-BM-033-003-N.jpg","1","1","1","0","1","0","0.452064500190318","0.472817500587553","0.496962200384587","1","1","1","1","1","1","1","1","1"
"250003","img/neutralC/CFD-BM-033-003-N.jpg","img/neutralC/CFD-BM-019-002-N.jpg","img/neutralC/CFD-WF-213-031-N.jpg","1","1","1","0","0","1","0.496962200384587","0.452064500190318","0.428019500337541","1","1","1","1","1","1","1","1","1"
"250003","img/neutralC/CFD-WF-213-031-N.jpg","img/neutralC/CFD-BM-033-003-N.jpg","img/neutralC/CFD-WM-041-021-N.jpg","1","1","1","1","0","0","0.428019500337541","0.496962200384587","0.642874700482935","1","1","1","1","1","1","1","1","1"
"250003","img/neutralC/CFD-WM-041-021-N.jpg","img/neutralC/CFD-WF-213-031-N.jpg","img/neutralC/CFD-LM-218-183-N.jpg","1","1","1","0","1","1","0.642874700482935","0.428019500337541","0.624128800351173","1","1","1","1","1","1","1","1","1"
"250003","img/neutralC/CFD-LM-218-183-N.jpg","img/neutralC/CFD-WM-041-021-N.jpg","img/neutralC/CFD-WM-021-001-N.jpg","1","1","0","1","0","1","0.624128800351173","0.642874700482935","1.29948210017756","1","1","1","1","1","1","1","1","1"
"250003","img/neutralC/CFD-WM-021-001-N.jpg","img/neutralC/CFD-LM-218-183-N.jpg","img/neutralC/CFD-BF-039-031-N.jpg","0","1","1","1","1","1","1.29948210017756","0.624128800351173","0.601900500245392","1","1","1","1","1","1","1","1","1"
"250003","img/neutralC/CFD-BF-039-031-N.jpg","img/neutralC/CFD-WM-021-001-N.jpg","img/neutralC/CFD-LF-214-090-N.jpg","1","0","1","1","1","0","0.601900500245392","1.29948210017756","0.605430600233376","1","1","1","1","1","1","1","1","1"
"250003","img/neutralC/CFD-LF-214-090-N.jpg","img/neutralC/CFD-BF-039-031-N.jpg","img/neutralC/CFD-BM-239-136-N.jpg","1","1","1","0","1","1","0.605430600233376","0.601900500245392","0.476361600216478","1","1","1","1","1","1","1","1","1"
"250003","img/neutralC/CFD-BM-239-136-N.jpg","img/neutralC/CFD-LF-214-090-N.jpg","img/neutralC/CFD-LF-224-176-N.jpg","1","1","1","1","0","0","0.476361600216478","0.605430600233376","0.508029400371015","1","1","1","1","1","1","1","1","1"
"250003","img/neutralC/CFD-LF-224-176-N.jpg","img/neutralC/CFD-BM-239-136-N.jpg","img/neutralC/CFD-IF-693-172-N.jpg","1","1","1","0","1","0","0.508029400371015","0.476361600216478","0.597693799994886","1","1","1","1","1","1","1","1","1"
"250003","img/neutralC/CFD-IF-693-172-N.jpg","img/neutralC/CFD-LF-224-176-N.jpg","img/neutralC/CFD-MM-316-156-N.jpg","1","1","1","0","0","1","0.597693799994886","0.508029400371015","0.637538200244308","1","1","1","1","1","1","1","1","1"
"250003","img/neutralC/CFD-MM-316-156-N.jpg","img/neutralC/CFD-IF-693-172-N.jpg","img/neutralC/CFD-AM-201-076-N.jpg","1","1","1","1","0","1","0.637538200244308","0.597693799994886","0.511342100333422","1","1","1","1","1","1","1","1","1"
"250003","img/neutralC/CFD-AM-201-076-N.jpg","img/neutralC/CFD-MM-316-156-N.jpg","img/neutralC/CFD-IM-684-008-N.jpg","1","1","1","1","1","1","0.511342100333422","0.637538200244308","0.439599600154907","1","1","1","1","1","1","1","1","1"
"250003","img/neutralC/CFD-IM-684-008-N.jpg","img/neutralC/CFD-AM-201-076-N.jpg","img/neutralC/CFD-BF-205-141-N.jpg","1","1","1","1","1","0","0.439599600154907","0.511342100333422","0.56154750008136","1","1","1","1","1","1","1","1","1"
"250003","img/neutralC/CFD-BF-205-141-N.jpg","img/neutralC/CFD-IM-684-008-N.jpg","img/neutralC/CFD-IF-634-382-N.jpg","1","1","1","0","1","1","0.56154750008136","0.439599600154907","0.428987599909306","1","1","1","1","1","1","1","1","1"
"250003","img/neutralC/CFD-IF-634-382-N.jpg","img/neutralC/CFD-BF-205-141-N.jpg","img/neutralC/CFD-BF-253-202-N.jpg","1","1","1","1","0","0","0.428987599909306","0.56154750008136","0.513481200207025","1","1","1","1","1","1","1","1","1"
"250003","img/neutralC/CFD-BF-253-202-N.jpg","img/neutralC/CFD-IF-634-382-N.jpg","img/neutralC/CFD-IM-651-308-N.jpg","1","1","1","0","1","0","0.513481200207025","0.428987599909306","0.596233900170773","1","1","1","1","1","1","1","1","1"
"250003","img/neutralC/CFD-IM-651-308-N.jpg","img/neutralC/CFD-BF-253-202-N.jpg","img/neutralC/CFD-AM-212-050-N.jpg","1","1","1","0","0","1","0.596233900170773","0.513481200207025","0.450450000353158","1","1","1","1","1","1","1","1","1"
"250003","img/neutralC/CFD-AM-212-050-N.jpg","img/neutralC/CFD-IM-651-308-N.jpg","img/neutralC/CFD-BM-041-035-N.jpg","1","1","1","1","0","0","0.450450000353158","0.596233900170773","0.585652100387961","1","1","1","1","1","1","1","1","1"
"250003","img/neutralC/CFD-BM-041-035-N.jpg","img/neutralC/CFD-AM-212-050-N.jpg","img/neutralC/CFD-WF-250-167-N.jpg","1","1","1","0","1","1","0.585652100387961","0.450450000353158","0.541401100344956","1","1","1","1","1","1","1","1","1"
"250003","img/neutralC/CFD-WF-250-167-N.jpg","img/neutralC/CFD-BM-041-035-N.jpg","img/neutralC/CFD-BF-029-031-N.jpg","1","1","1","1","0","1","0.541401100344956","0.585652100387961","0.400290100369602","1","1","1","1","1","1","1","1","1"
"250003","img/neutralC/CFD-BF-029-031-N.jpg","img/neutralC/CFD-WF-250-167-N.jpg","img/neutralC/CFD-BF-213-188-N.jpg","1","1","1","1","1","1","0.400290100369602","0.541401100344956","0.398893400095403","1","1","1","1","1","1","1","1","1"
"250003","img/neutralC/CFD-BF-213-188-N.jpg","img/neutralC/CFD-BF-029-031-N.jpg","img/neutralC/CFD-LF-203-066-N.jpg","1","1","1","1","1","0","0.398893400095403","0.400290100369602","0.583356000483036","1","1","1","1","1","1","1","1","1"
"250003","img/neutralC/CFD-LF-203-066-N.jpg","img/neutralC/CFD-BF-213-188-N.jpg","img/neutralC/CFD-AF-231-357-N.jpg","1","1","1","0","1","1","0.583356000483036","0.398893400095403","0.401270600501448","1","1","1","1","1","1","1","1","1"
"250003","img/neutralC/CFD-AF-231-357-N.jpg","img/neutralC/CFD-LF-203-066-N.jpg",NA,"1","1",NA,"1","0",NA,"0.401270600501448","0.583356000483036",NA,"1","1",NA,"1","1",NA,"1","1",NA
"250003","img/neutralC/CFD-AM-249-163-N.jpg",NA,"img/neutralC/CFD-BM-030-003-N.jpg","1",NA,"1","1",NA,"0","0.411929500289261",NA,"0.517749300226569","1",NA,"1","1",NA,"1","1",NA,"1"
"250003","img/neutralC/CFD-BM-030-003-N.jpg","img/neutralC/CFD-AM-249-163-N.jpg","img/neutralC/CFD-BF-012-001-N.jpg","1","1","1","0","1","0","0.517749300226569","0.411929500289261","0.432588300667703","1","1","1","1","1","1","1","1","1"
"250003","img/neutralC/CFD-BF-012-001-N.jpg","img/neutralC/CFD-BM-030-003-N.jpg","img/neutralC/CFD-WF-221-005-N.jpg","1","1","1","0","0","0","0.432588300667703","0.517749300226569","0.520734100602567","1","1","1","1","1","1","1","1","1"
"250003","img/neutralC/CFD-WF-221-005-N.jpg","img/neutralC/CFD-BF-012-001-N.jpg","img/neutralC/CFD-BF-244-231-N.jpg","1","1","1","0","0","1","0.520734100602567","0.432588300667703","0.638036200311035","1","1","1","1","1","1","1","1","1"
"250003","img/neutralC/CFD-BF-244-231-N.jpg","img/neutralC/CFD-WF-221-005-N.jpg","img/neutralC/CFD-WM-025-002-N.jpg","1","1","1","1","0","0","0.638036200311035","0.520734100602567","0.588199400343001","1","1","1","1","1","1","1","1","1"
"250003","img/neutralC/CFD-WM-025-002-N.jpg","img/neutralC/CFD-BF-244-231-N.jpg","img/neutralC/CFD-MF-328-020-N.jpg","1","1","1","0","1","0","0.588199400343001","0.638036200311035","0.552020499948412","1","1","1","1","1","1","1","1","1"
"250003","img/neutralC/CFD-MF-328-020-N.jpg","img/neutralC/CFD-WM-025-002-N.jpg","img/neutralC/CFD-BM-020-001-N.jpg","1","1","1","0","0","0","0.552020499948412","0.588199400343001","0.567916000261903","1","1","1","1","1","1","1","1","1"
"250003","img/neutralC/CFD-BM-020-001-N.jpg","img/neutralC/CFD-MF-328-020-N.jpg","img/neutralC/CFD-IM-606-008-N.jpg","1","1","1","0","0","0","0.567916000261903","0.552020499948412","0.485117900185287","1","1","1","1","1","1","1","1","1"
"250003","img/neutralC/CFD-IM-606-008-N.jpg","img/neutralC/CFD-BM-020-001-N.jpg","img/neutralC/CFD-BM-227-191-N.jpg","1","1","1","0","0","1","0.485117900185287","0.567916000261903","0.506363500375301","1","1","1","1","1","1","1","1","1"
"250003","img/neutralC/CFD-BM-227-191-N.jpg","img/neutralC/CFD-IM-606-008-N.jpg","img/neutralC/CFD-IM-697-015-N.jpg","1","1","1","1","0","1","0.506363500375301","0.485117900185287","0.4554404001683","1","1","1","1","1","1","1","1","1"
"250003","img/neutralC/CFD-IM-697-015-N.jpg","img/neutralC/CFD-BM-227-191-N.jpg","img/neutralC/CFD-IM-615-167-N.jpg","1","1","1","1","1","0","0.4554404001683","0.506363500375301","0.418940300587565","1","1","1","1","1","1","1","1","1"
"250003","img/neutralC/CFD-IM-615-167-N.jpg","img/neutralC/CFD-IM-697-015-N.jpg","img/neutralC/CFD-LF-222-147-N.jpg","1","1","1","0","1","0","0.418940300587565","0.4554404001683","0.397467800416052","1","1","1","1","1","1","1","1","1"
"250003","img/neutralC/CFD-LF-222-147-N.jpg","img/neutralC/CFD-IM-615-167-N.jpg","img/neutralC/CFD-AF-237-223-N.jpg","1","1","1","0","0","0","0.397467800416052","0.418940300587565","0.412083600647748","1","1","1","1","1","1","1","1","1"
"250003","img/neutralC/CFD-AF-237-223-N.jpg","img/neutralC/CFD-LF-222-147-N.jpg","img/neutralC/CFD-BM-021-021-N.jpg","1","1","1","0","0","1","0.412083600647748","0.397467800416052","0.638277700636536","1","1","1","1","1","1","1","1","1"
"250003","img/neutralC/CFD-BM-021-021-N.jpg","img/neutralC/CFD-AF-237-223-N.jpg","img/neutralC/CFD-LM-240-013-N.jpg","1","1","1","1","0","1","0.638277700636536","0.412083600647748","0.426120800431818","1","1","1","1","1","1","1","1","1"
"250003","img/neutralC/CFD-LM-240-013-N.jpg","img/neutralC/CFD-BM-021-021-N.jpg","img/neutralC/CFD-LF-238-154-N.jpg","1","1","1","1","1","1","0.426120800431818","0.638277700636536","0.361829500179738","1","1","1","1","1","1","1","1","1"
"250003","img/neutralC/CFD-LF-238-154-N.jpg","img/neutralC/CFD-LM-240-013-N.jpg","img/neutralC/CFD-IM-689-263-N.jpg","1","1","1","1","1","1","0.361829500179738","0.426120800431818","0.444978900253773","1","1","1","1","1","1","1","1","1"
"250003","img/neutralC/CFD-IM-689-263-N.jpg","img/neutralC/CFD-LF-238-154-N.jpg","img/neutralC/CFD-AM-205-153-N.jpg","1","1","1","1","1","1","0.444978900253773","0.361829500179738","0.421475100331008","1","1","1","1","1","1","1","1","1"
"250003","img/neutralC/CFD-AM-205-153-N.jpg","img/neutralC/CFD-IM-689-263-N.jpg","img/neutralC/CFD-WM-028-003-N.jpg","1","1","1","1","1","1","0.421475100331008","0.444978900253773","0.449933300726116","1","1","1","1","1","1","1","1","1"
"250003","img/neutralC/CFD-WM-028-003-N.jpg","img/neutralC/CFD-AM-205-153-N.jpg","img/neutralC/CFD-MM-306-010-N.jpg","1","1","1","1","1","0","0.449933300726116","0.421475100331008","0.612996400333941","1","1","1","1","1","1","1","1","1"
"250003","img/neutralC/CFD-MM-306-010-N.jpg","img/neutralC/CFD-WM-028-003-N.jpg","img/neutralC/CFD-IF-676-017-N.jpg","1","1","1","0","1","1","0.612996400333941","0.449933300726116","0.70893150055781","1","1","1","1","1","1","1","1","1"
"250003","img/neutralC/CFD-IF-676-017-N.jpg","img/neutralC/CFD-MM-306-010-N.jpg","img/neutralC/CFD-WF-009-001-N.jpg","1","1","1","1","0","1","0.70893150055781","0.612996400333941","0.542942900210619","1","1","1","1","1","1","1","1","1"
"250003","img/neutralC/CFD-WF-009-001-N.jpg","img/neutralC/CFD-IF-676-017-N.jpg","img/neutralC/CFD-BM-009-002-N.jpg","1","1","1","1","1","1","0.542942900210619","0.70893150055781","0.48328770045191","1","1","1","1","1","1","1","1","1"
"250003","img/neutralC/CFD-BM-009-002-N.jpg","img/neutralC/CFD-WF-009-001-N.jpg","img/neutralC/CFD-WF-243-148-N.jpg","1","1","1","1","1","0","0.48328770045191","0.542942900210619","0.523244700394571","1","1","1","1","1","1","1","1","1"
"250003","img/neutralC/CFD-WF-243-148-N.jpg","img/neutralC/CFD-BM-009-002-N.jpg","img/neutralC/CFD-BM-043-071-N.jpg","1","1","1","0","1","0","0.523244700394571","0.48328770045191","0.56750460062176","1","1","1","1","1","1","1","1","1"
"250003","img/neutralC/CFD-BM-043-071-N.jpg","img/neutralC/CFD-WF-243-148-N.jpg","img/neutralC/CFD-WF-241-210-N.jpg","1","1","1","0","0","0","0.56750460062176","0.523244700394571","0.496975500136614","1","1","1","1","1","1","1","1","1"
"250003","img/neutralC/CFD-WF-241-210-N.jpg","img/neutralC/CFD-BM-043-071-N.jpg","img/neutralC/CFD-LF-212-066-N.jpg","1","1","1","0","0","1","0.496975500136614","0.56750460062176","0.413442600052804","1","1","1","1","1","1","1","1","1"
"250003","img/neutralC/CFD-LF-212-066-N.jpg","img/neutralC/CFD-WF-241-210-N.jpg","img/neutralC/CFD-AM-243-212-N.jpg","1","1","1","1","0","1","0.413442600052804","0.496975500136614","0.542261900380254","1","1","1","1","1","1","1","1","1"
"250003","img/neutralC/CFD-AM-243-212-N.jpg","img/neutralC/CFD-LF-212-066-N.jpg","img/neutralC/CFD-WM-023-001-N.jpg","1","1","1","1","1","0","0.542261900380254","0.413442600052804","0.55950210057199","1","1","1","1","1","1","1","1","1"
"250003","img/neutralC/CFD-WM-023-001-N.jpg","img/neutralC/CFD-AM-243-212-N.jpg","img/neutralC/CFD-WF-207-014-N.jpg","1","1","1","0","1","1","0.55950210057199","0.542261900380254","0.476621300447732","1","1","1","1","1","1","1","1","1"
"250003","img/neutralC/CFD-WF-207-014-N.jpg","img/neutralC/CFD-WM-023-001-N.jpg","img/neutralC/CFD-AM-219-101-N.jpg","1","1","1","1","0","0","0.476621300447732","0.55950210057199","0.482303800061345","1","1","1","1","1","1","1","1","1"
"250003","img/neutralC/CFD-AM-219-101-N.jpg","img/neutralC/CFD-WF-207-014-N.jpg",NA,"1","1",NA,"0","1",NA,"0.482303800061345","0.476621300447732",NA,"1","1",NA,"1","1",NA,"1","1",NA
"250003","img/neutralC/CFD-BM-004-002-N.jpg",NA,"img/neutralC/CFD-IM-669-111-N.jpg","1",NA,"1","0",NA,"1","0.485647100023925",NA,"0.47389390040189","1",NA,"1","1",NA,"1","1",NA,"1"
"250003","img/neutralC/CFD-IM-669-111-N.jpg","img/neutralC/CFD-BM-004-002-N.jpg","img/neutralC/CFD-IM-678-482-N.jpg","1","1","0","1","0","0","0.47389390040189","0.485647100023925","0.479237200692296","1","1","1","1","1","1","1","1","2"
"250003","img/neutralC/CFD-IM-678-482-N.jpg","img/neutralC/CFD-IM-669-111-N.jpg","img/neutralC/CFD-AF-234-208-N.jpg","0","1","1","0","1","1","0.479237200692296","0.47389390040189","0.501937800087035","1","1","1","1","1","1","2","1","1"
"250003","img/neutralC/CFD-AF-234-208-N.jpg","img/neutralC/CFD-IM-678-482-N.jpg","img/neutralC/CFD-WM-253-119-N.jpg","1","0","1","1","0","1","0.501937800087035","0.479237200692296","0.483122900594026","1","1","1","1","1","1","1","2","1"
"250003","img/neutralC/CFD-WM-253-119-N.jpg","img/neutralC/CFD-AF-234-208-N.jpg","img/neutralC/CFD-WF-235-121-N.jpg","1","1","1","1","1","0","0.483122900594026","0.501937800087035","0.566577200312167","1","1","1","1","1","1","1","1","1"
"250003","img/neutralC/CFD-WF-235-121-N.jpg","img/neutralC/CFD-WM-253-119-N.jpg","img/neutralC/CFD-BF-020-002-N.jpg","1","1","1","0","1","1","0.566577200312167","0.483122900594026","0.829146800562739","1","1","1","1","1","1","1","1","1"
"250003","img/neutralC/CFD-BF-020-002-N.jpg","img/neutralC/CFD-WF-235-121-N.jpg","img/neutralC/CFD-AM-225-102-N.jpg","1","1","1","1","0","0","0.829146800562739","0.566577200312167","0.585671700071543","1","1","1","1","1","1","1","1","1"
"250003","img/neutralC/CFD-AM-225-102-N.jpg","img/neutralC/CFD-BF-020-002-N.jpg","img/neutralC/CFD-AF-213-126-N.jpg","1","1","1","0","1","1","0.585671700071543","0.829146800562739","0.458332000300288","1","1","1","1","1","1","1","1","1"
"250003","img/neutralC/CFD-AF-213-126-N.jpg","img/neutralC/CFD-AM-225-102-N.jpg","img/neutralC/CFD-AF-244-168-N.jpg","1","1","1","1","0","0","0.458332000300288","0.585671700071543","0.57906850008294","1","1","1","1","1","1","1","1","1"
"250003","img/neutralC/CFD-AF-244-168-N.jpg","img/neutralC/CFD-AF-213-126-N.jpg","img/neutralC/CFD-BF-206-143-N.jpg","1","1","1","0","1","1","0.57906850008294","0.458332000300288","0.550924600567669","1","1","1","1","1","1","1","1","1"
"250003","img/neutralC/CFD-BF-206-143-N.jpg","img/neutralC/CFD-AF-244-168-N.jpg","img/neutralC/CFD-AF-246-242-N.jpg","1","1","1","1","0","0","0.550924600567669","0.57906850008294","0.573340200353414","1","1","1","1","1","1","1","1","1"
"250003","img/neutralC/CFD-AF-246-242-N.jpg","img/neutralC/CFD-BF-206-143-N.jpg","img/neutralC/CFD-LM-241-125-N.jpg","1","1","1","0","1","1","0.573340200353414","0.550924600567669","0.436211100313812","1","1","1","1","1","1","1","1","1"
"250003","img/neutralC/CFD-LM-241-125-N.jpg","img/neutralC/CFD-AF-246-242-N.jpg","img/neutralC/CFD-BF-235-168-N.jpg","1","1","1","1","0","1","0.436211100313812","0.573340200353414","0.442517200019211","1","1","1","1","1","1","1","1","1"
"250003","img/neutralC/CFD-BF-235-168-N.jpg","img/neutralC/CFD-LM-241-125-N.jpg","img/neutralC/CFD-MF-302-027-N.jpg","1","1","1","1","1","0","0.442517200019211","0.436211100313812","0.463511100038886","1","1","1","1","1","1","1","1","1"
"250003","img/neutralC/CFD-MF-302-027-N.jpg","img/neutralC/CFD-BF-235-168-N.jpg","img/neutralC/CFD-AM-233-236-N.jpg","1","1","1","0","1","1","0.463511100038886","0.442517200019211","0.449524400290102","1","1","1","1","1","1","1","1","1"
"250003","img/neutralC/CFD-AM-233-236-N.jpg","img/neutralC/CFD-MF-302-027-N.jpg","img/neutralC/CFD-AF-250-200-N.jpg","1","1","1","1","0","1","0.449524400290102","0.463511100038886","0.508111400529742","1","1","1","1","1","1","1","1","1"
"250003","img/neutralC/CFD-AF-250-200-N.jpg","img/neutralC/CFD-AM-233-236-N.jpg","img/neutralC/CFD-BF-040-003-N.jpg","1","1","1","1","1","1","0.508111400529742","0.449524400290102","0.560753400437534","1","1","1","1","1","1","1","1","1"
"250003","img/neutralC/CFD-BF-040-003-N.jpg","img/neutralC/CFD-AF-250-200-N.jpg","img/neutralC/CFD-BF-042-026-N.jpg","1","1","1","1","1","1","0.560753400437534","0.508111400529742","0.564218400511891","1","1","1","1","1","1","1","1","1"
"250003","img/neutralC/CFD-BF-042-026-N.jpg","img/neutralC/CFD-BF-040-003-N.jpg","img/neutralC/CFD-LF-239-148-N.jpg","1","1","1","1","1","0","0.564218400511891","0.560753400437534","0.609554700553417","1","1","1","1","1","1","1","1","1"
"250003","img/neutralC/CFD-LF-239-148-N.jpg","img/neutralC/CFD-BF-042-026-N.jpg","img/neutralC/CFD-LM-204-001-N.jpg","1","1","1","0","1","0","0.609554700553417","0.564218400511891","0.487032100558281","1","1","1","1","1","1","1","1","1"
"250003","img/neutralC/CFD-LM-204-001-N.jpg","img/neutralC/CFD-LF-239-148-N.jpg","img/neutralC/CFD-WF-210-086-N.jpg","1","1","1","0","0","0","0.487032100558281","0.609554700553417","0.54828380048275","1","1","1","1","1","1","1","1","1"
"250003","img/neutralC/CFD-WF-210-086-N.jpg","img/neutralC/CFD-LM-204-001-N.jpg","img/neutralC/CFD-AF-205-155-N.jpg","1","1","1","0","0","0","0.54828380048275","0.487032100558281","0.672910600434989","1","1","1","1","1","1","1","1","1"
"250003","img/neutralC/CFD-AF-205-155-N.jpg","img/neutralC/CFD-WF-210-086-N.jpg","img/neutralC/CFD-MF-307-002-N.jpg","1","1","1","0","0","1","0.672910600434989","0.54828380048275","0.751675300300121","1","1","1","1","1","1","1","1","1"
"250003","img/neutralC/CFD-MF-307-002-N.jpg","img/neutralC/CFD-AF-205-155-N.jpg","img/neutralC/CFD-IM-632-097-N.jpg","1","1","1","1","0","0","0.751675300300121","0.672910600434989","0.73158820066601","1","1","1","1","1","1","1","1","1"
"250003","img/neutralC/CFD-IM-632-097-N.jpg","img/neutralC/CFD-MF-307-002-N.jpg","img/neutralC/CFD-WM-018-002-N.jpg","1","1","0","0","1","0","0.73158820066601","0.751675300300121","0.878805700223893","1","1","1","1","1","1","1","1","1"
"250003","img/neutralC/CFD-WM-018-002-N.jpg","img/neutralC/CFD-IM-632-097-N.jpg","img/neutralC/CFD-BF-217-189-N.jpg","0","1","1","0","0","0","0.878805700223893","0.73158820066601","0.523984000086784","1","1","1","1","1","1","1","1","1"
"250003","img/neutralC/CFD-BF-217-189-N.jpg","img/neutralC/CFD-WM-018-002-N.jpg","img/neutralC/CFD-AM-245-111-N.jpg","1","0","1","0","0","1","0.523984000086784","0.878805700223893","0.519931500311941","1","1","1","1","1","1","1","1","1"
"250003","img/neutralC/CFD-AM-245-111-N.jpg","img/neutralC/CFD-BF-217-189-N.jpg","img/neutralC/CFD-IF-636-011-N.jpg","1","1","1","1","0","1","0.519931500311941","0.523984000086784","0.779999400489032","1","1","1","1","1","1","1","1","1"
"250003","img/neutralC/CFD-IF-636-011-N.jpg","img/neutralC/CFD-AM-245-111-N.jpg","img/neutralC/CFD-BM-215-155-N.jpg","1","1","1","1","1","0","0.779999400489032","0.519931500311941","0.610714000184089","1","1","1","1","1","1","1","1","1"
"250003","img/neutralC/CFD-BM-215-155-N.jpg","img/neutralC/CFD-IF-636-011-N.jpg","img/neutralC/CFD-IM-635-010-N.jpg","1","1","1","0","1","1","0.610714000184089","0.779999400489032","0.650178000330925","1","1","1","1","1","1","1","1","1"
"250003","img/neutralC/CFD-IM-635-010-N.jpg","img/neutralC/CFD-BM-215-155-N.jpg","img/neutralC/CFD-IF-732-260-N.jpg","1","1","1","1","0","0","0.650178000330925","0.610714000184089","0.537678100168705","1","1","1","1","1","1","1","1","1"
"250003","img/neutralC/CFD-IF-732-260-N.jpg","img/neutralC/CFD-IM-635-010-N.jpg",NA,"1","1",NA,"0","1",NA,"0.537678100168705","0.650178000330925",NA,"1","1",NA,"1","1",NA,"1","1",NA
"250003","img/neutralC/CFD-WM-249-239-N.jpg",NA,"img/neutralC/CFD-IM-646-023-N.jpg","1",NA,"1","1",NA,"1","1.27229400072247",NA,"0.661807200405747","1",NA,"1","1",NA,"1","1",NA,"1"
"250003","img/neutralC/CFD-IM-646-023-N.jpg","img/neutralC/CFD-WM-249-239-N.jpg","img/neutralC/CFD-WM-026-001-N.jpg","1","1","1","1","1","1","0.661807200405747","1.27229400072247","0.567484400235116","1","1","1","1","1","1","1","1","1"
"250003","img/neutralC/CFD-WM-026-001-N.jpg","img/neutralC/CFD-IM-646-023-N.jpg","img/neutralC/CFD-BF-041-001-N.jpg","1","1","1","1","1","1","0.567484400235116","0.661807200405747","0.449550000485033","1","1","1","1","1","1","1","1","1"
"250003","img/neutralC/CFD-BF-041-001-N.jpg","img/neutralC/CFD-WM-026-001-N.jpg","img/neutralC/CFD-MF-309-002-N.jpg","1","1","1","1","1","0","0.449550000485033","0.567484400235116","0.606008300557733","1","1","1","1","1","1","1","1","1"
"250003","img/neutralC/CFD-MF-309-002-N.jpg","img/neutralC/CFD-BF-041-001-N.jpg","img/neutralC/CFD-BM-248-128-N.jpg","1","1","1","0","1","0","0.606008300557733","0.449550000485033","0.674585100729018","1","1","1","1","1","1","1","1","1"
"250003","img/neutralC/CFD-BM-248-128-N.jpg","img/neutralC/CFD-MF-309-002-N.jpg","img/neutralC/CFD-BM-205-001-N.jpg","1","1","1","0","0","0","0.674585100729018","0.606008300557733","0.67636280041188","1","1","1","1","1","1","1","1","1"
"250003","img/neutralC/CFD-BM-205-001-N.jpg","img/neutralC/CFD-BM-248-128-N.jpg","img/neutralC/CFD-WF-228-196-N.jpg","1","1","1","0","0","0","0.67636280041188","0.674585100729018","0.694907600525767","1","1","1","1","1","1","1","1","1"
"250003","img/neutralC/CFD-WF-228-196-N.jpg","img/neutralC/CFD-BM-205-001-N.jpg","img/neutralC/CFD-BF-202-109-N.jpg","1","1","1","0","0","1","0.694907600525767","0.67636280041188","1.01964090066031","1","1","1","1","1","1","1","1","1"
"250003","img/neutralC/CFD-BF-202-109-N.jpg","img/neutralC/CFD-WF-228-196-N.jpg","img/neutralC/CFD-BF-025-002-N.jpg","1","1","1","1","0","0","1.01964090066031","0.694907600525767","0.628869000356644","1","1","1","1","1","1","1","1","1"
"250003","img/neutralC/CFD-BF-025-002-N.jpg","img/neutralC/CFD-BF-202-109-N.jpg","img/neutralC/CFD-LM-244-068-N.jpg","1","1","1","0","1","1","0.628869000356644","1.01964090066031","1.01772380061448","1","1","1","1","1","1","1","1","1"
"250003","img/neutralC/CFD-LM-244-068-N.jpg","img/neutralC/CFD-BF-025-002-N.jpg","img/neutralC/CFD-LM-201-057-N.jpg","1","1","1","1","0","1","1.01772380061448","0.628869000356644","0.967402600217611","1","1","1","1","1","1","1","1","1"
"250003","img/neutralC/CFD-LM-201-057-N.jpg","img/neutralC/CFD-LM-244-068-N.jpg","img/neutralC/CFD-LM-214-165-N.jpg","1","1","1","1","1","1","0.967402600217611","1.01772380061448","0.668426500167698","1","1","1","1","1","1","1","1","1"
"250003","img/neutralC/CFD-LM-214-165-N.jpg","img/neutralC/CFD-LM-201-057-N.jpg","img/neutralC/CFD-AM-247-165-N.jpg","1","1","1","1","1","1","0.668426500167698","0.967402600217611","0.743135200347751","1","1","1","1","1","1","1","1","1"
"250003","img/neutralC/CFD-AM-247-165-N.jpg","img/neutralC/CFD-LM-214-165-N.jpg","img/neutralC/CFD-MF-335-002-N.jpg","1","1","1","1","1","0","0.743135200347751","0.668426500167698","0.659379500430077","1","1","1","1","1","1","1","1","1"
"250003","img/neutralC/CFD-MF-335-002-N.jpg","img/neutralC/CFD-AM-247-165-N.jpg","img/neutralC/CFD-BF-228-212-N.jpg","1","1","1","0","1","0","0.659379500430077","0.743135200347751","0.584577600006014","1","1","1","1","1","1","1","1","1"
"250003","img/neutralC/CFD-BF-228-212-N.jpg","img/neutralC/CFD-MF-335-002-N.jpg","img/neutralC/CFD-WM-012-001-N.jpg","1","1","1","0","0","1","0.584577600006014","0.659379500430077","0.62416830053553","1","1","1","1","1","1","1","1","1"
"250003","img/neutralC/CFD-WM-012-001-N.jpg","img/neutralC/CFD-BF-228-212-N.jpg","img/neutralC/CFD-WF-005-010-N.jpg","1","1","1","1","0","0","0.62416830053553","0.584577600006014","0.651289900299162","1","1","1","1","1","1","1","1","1"
"250003","img/neutralC/CFD-WF-005-010-N.jpg","img/neutralC/CFD-WM-012-001-N.jpg","img/neutralC/CFD-LM-243-075-N.jpg","1","1","1","0","1","0","0.651289900299162","0.62416830053553","1.565147400368","1","1","1","1","1","1","1","1","1"
"250003","img/neutralC/CFD-LM-243-075-N.jpg","img/neutralC/CFD-WF-005-010-N.jpg","img/neutralC/CFD-IF-642-295-N.jpg","1","1","1","0","0","1","1.565147400368","0.651289900299162","0.809784000273794","1","1","1","1","1","1","1","1","1"
"250003","img/neutralC/CFD-IF-642-295-N.jpg","img/neutralC/CFD-LM-243-075-N.jpg","img/neutralC/CFD-BF-212-315-N.jpg","1","1","1","1","0","1","0.809784000273794","1.565147400368","0.544749200344086","1","1","1","1","1","1","1","1","1"
"250003","img/neutralC/CFD-BF-212-315-N.jpg","img/neutralC/CFD-IF-642-295-N.jpg","img/neutralC/CFD-WM-006-002-N.jpg","1","1","1","1","1","0","0.544749200344086","0.809784000273794","0.867655300535262","1","1","1","1","1","1","1","1","1"
"250003","img/neutralC/CFD-WM-006-002-N.jpg","img/neutralC/CFD-BF-212-315-N.jpg","img/neutralC/CFD-IM-648-337-N.jpg","1","1","1","0","1","0","0.867655300535262","0.544749200344086","0.637957500293851","1","1","1","1","1","1","1","1","1"
"250003","img/neutralC/CFD-IM-648-337-N.jpg","img/neutralC/CFD-WM-006-002-N.jpg","img/neutralC/CFD-WM-019-003-N.jpg","1","1","1","0","0","1","0.637957500293851","0.867655300535262","0.603034500498325","1","1","1","1","1","1","1","1","1"
"250003","img/neutralC/CFD-WM-019-003-N.jpg","img/neutralC/CFD-IM-648-337-N.jpg","img/neutralC/CFD-WF-017-003-N.jpg","1","1","1","1","0","1","0.603034500498325","0.637957500293851","0.560602700337768","1","1","1","1","1","1","1","1","1"
"250003","img/neutralC/CFD-WF-017-003-N.jpg","img/neutralC/CFD-WM-019-003-N.jpg","img/neutralC/CFD-LM-216-082-N.jpg","1","1","1","1","1","0","0.560602700337768","0.603034500498325","0.899702600203454","1","1","1","1","1","1","1","1","1"
"250003","img/neutralC/CFD-LM-216-082-N.jpg","img/neutralC/CFD-WF-017-003-N.jpg","img/neutralC/CFD-WF-240-083-N.jpg","1","1","1","0","1","0","0.899702600203454","0.560602700337768","0.638468500226736","1","1","1","1","1","1","1","1","1"
"250003","img/neutralC/CFD-WF-240-083-N.jpg","img/neutralC/CFD-LM-216-082-N.jpg","img/neutralC/CFD-BM-251-013-N.jpg","1","1","1","0","0","1","0.638468500226736","0.899702600203454","0.666846700478345","1","1","1","1","1","1","1","1","1"
"250003","img/neutralC/CFD-BM-251-013-N.jpg","img/neutralC/CFD-WF-240-083-N.jpg","img/neutralC/CFD-AF-240-206-N.jpg","1","1","1","1","0","0","0.666846700478345","0.638468500226736","0.731355000752956","1","1","1","1","1","1","1","1","1"
"250003","img/neutralC/CFD-AF-240-206-N.jpg","img/neutralC/CFD-BM-251-013-N.jpg","img/neutralC/CFD-MM-317-061-N.jpg","1","1","1","0","1","1","0.731355000752956","0.666846700478345","0.52312930021435","1","1","1","1","1","1","1","1","1"
"250003","img/neutralC/CFD-MM-317-061-N.jpg","img/neutralC/CFD-AF-240-206-N.jpg","img/neutralC/CFD-WM-212-097-N.jpg","1","1","1","1","0","0","0.52312930021435","0.731355000752956","0.668247000314295","1","1","1","1","1","1","1","1","1"
"250003","img/neutralC/CFD-WM-212-097-N.jpg","img/neutralC/CFD-MM-317-061-N.jpg","img/neutralC/CFD-WM-215-041-N.jpg","1","1","1","0","1","0","0.668247000314295","0.52312930021435","0.623003600165248","1","1","1","1","1","1","1","1","1"
"250003","img/neutralC/CFD-WM-215-041-N.jpg","img/neutralC/CFD-WM-212-097-N.jpg",NA,"1","1",NA,"0","0",NA,"0.623003600165248","0.668247000314295",NA,"1","1",NA,"1","1",NA,"1","1",NA
"250003","img/neutralC/CFD-WF-030-002-N.jpg",NA,"img/neutralC/CFD-WM-218-074-N.jpg","1",NA,"1","0",NA,"1","0.536036100238562",NA,"0.511806900147349","1",NA,"1","1",NA,"1","1",NA,"1"
"250003","img/neutralC/CFD-WM-218-074-N.jpg","img/neutralC/CFD-WF-030-002-N.jpg","img/neutralC/CFD-AF-233-190-N.jpg","1","1","1","1","0","0","0.511806900147349","0.536036100238562","0.401315100491047","1","1","1","1","1","1","1","1","1"
"250003","img/neutralC/CFD-AF-233-190-N.jpg","img/neutralC/CFD-WM-218-074-N.jpg","img/neutralC/CFD-IM-680-369-N.jpg","1","1","1","0","1","1","0.401315100491047","0.511806900147349","0.441327700391412","1","1","1","1","1","1","1","1","1"
"250003","img/neutralC/CFD-IM-680-369-N.jpg","img/neutralC/CFD-AF-233-190-N.jpg","img/neutralC/CFD-IF-626-375-N.jpg","1","1","1","1","0","0","0.441327700391412","0.401315100491047","0.552483300678432","1","1","1","1","1","1","1","1","1"
"250003","img/neutralC/CFD-IF-626-375-N.jpg","img/neutralC/CFD-IM-680-369-N.jpg","img/neutralC/CFD-MF-357-002-N.jpg","1","1","1","0","1","0","0.552483300678432","0.441327700391412","0.572145400568843","1","1","1","1","1","1","1","1","1"
"250003","img/neutralC/CFD-MF-357-002-N.jpg","img/neutralC/CFD-IF-626-375-N.jpg","img/neutralC/CFD-WF-007-001-N.jpg","1","1","1","0","0","1","0.572145400568843","0.552483300678432","0.564593000337481","1","1","1","1","1","1","1","1","1"
"250003","img/neutralC/CFD-WF-007-001-N.jpg","img/neutralC/CFD-MF-357-002-N.jpg","img/neutralC/CFD-LM-200-045-N.jpg","1","1","1","1","0","1","0.564593000337481","0.572145400568843","1.04916190030053","1","1","1","1","1","1","1","1","1"
"250003","img/neutralC/CFD-LM-200-045-N.jpg","img/neutralC/CFD-WF-007-001-N.jpg","img/neutralC/CFD-AM-220-134-N.jpg","1","1","1","1","1","0","1.04916190030053","0.564593000337481","0.534933200571686","1","1","1","1","1","1","1","1","1"
"250003","img/neutralC/CFD-AM-220-134-N.jpg","img/neutralC/CFD-LM-200-045-N.jpg","img/neutralC/CFD-BM-217-082-N.jpg","1","1","1","0","1","0","0.534933200571686","1.04916190030053","0.504015000537038","1","1","1","1","1","1","1","1","1"
"250003","img/neutralC/CFD-BM-217-082-N.jpg","img/neutralC/CFD-AM-220-134-N.jpg","img/neutralC/CFD-WF-244-163-N.jpg","1","1","1","0","0","1","0.504015000537038","0.534933200571686","0.5678232004866","1","1","1","1","1","1","1","1","1"
"250003","img/neutralC/CFD-WF-244-163-N.jpg","img/neutralC/CFD-BM-217-082-N.jpg","img/neutralC/CFD-AF-253-130-N.jpg","1","1","1","1","0","1","0.5678232004866","0.504015000537038","0.595468400511891","1","1","1","1","1","1","1","1","1"
"250003","img/neutralC/CFD-AF-253-130-N.jpg","img/neutralC/CFD-WF-244-163-N.jpg","img/neutralC/CFD-IM-664-651-N.jpg","1","1","1","1","1","1","0.595468400511891","0.5678232004866","0.657261500135064","1","1","1","1","1","1","1","1","1"
"250003","img/neutralC/CFD-IM-664-651-N.jpg","img/neutralC/CFD-AF-253-130-N.jpg","img/neutralC/CFD-MF-305-014-N.jpg","1","1","1","1","1","1","0.657261500135064","0.595468400511891","0.667241600342095","1","1","1","1","1","1","1","1","1"
"250003","img/neutralC/CFD-MF-305-014-N.jpg","img/neutralC/CFD-IM-664-651-N.jpg","img/neutralC/CFD-IM-702-101-N.jpg","1","1","1","1","1","1","0.667241600342095","0.657261500135064","0.434805300552398","1","1","1","1","1","1","1","1","1"
"250003","img/neutralC/CFD-IM-702-101-N.jpg","img/neutralC/CFD-MF-305-014-N.jpg","img/neutralC/CFD-WM-209-038-N.jpg","1","1","1","1","1","0","0.434805300552398","0.667241600342095","1.08917100029066","1","1","1","1","1","1","1","1","1"
"250003","img/neutralC/CFD-WM-209-038-N.jpg","img/neutralC/CFD-IM-702-101-N.jpg","img/neutralC/CFD-LM-225-130-N.jpg","1","1","1","0","1","0","1.08917100029066","0.434805300552398","0.58829060010612","1","1","1","1","1","1","1","1","1"
"250003","img/neutralC/CFD-LM-225-130-N.jpg","img/neutralC/CFD-WM-209-038-N.jpg","img/neutralC/CFD-BM-001-014-N.jpg","1","1","1","0","0","0","0.58829060010612","1.08917100029066","0.843500200193375","1","1","1","1","1","1","1","1","1"
"250003","img/neutralC/CFD-BM-001-014-N.jpg","img/neutralC/CFD-LM-225-130-N.jpg","img/neutralC/CFD-IM-706-002-N.jpg","1","1","1","0","0","0","0.843500200193375","0.58829060010612","0.577342099975795","1","1","1","1","1","1","1","1","1"
"250003","img/neutralC/CFD-IM-706-002-N.jpg","img/neutralC/CFD-BM-001-014-N.jpg","img/neutralC/CFD-IF-660-464-N.jpg","1","1","1","0","0","0","0.577342099975795","0.843500200193375","0.639752299990505","1","1","1","1","1","1","1","1","1"
"250003","img/neutralC/CFD-IF-660-464-N.jpg","img/neutralC/CFD-IM-706-002-N.jpg","img/neutralC/CFD-BF-237-172-N.jpg","1","1","1","0","0","1","0.639752299990505","0.577342099975795","0.76177760027349","1","1","1","1","1","1","1","1","1"
"250003","img/neutralC/CFD-BF-237-172-N.jpg","img/neutralC/CFD-IF-660-464-N.jpg","img/neutralC/CFD-WM-015-002-N.jpg","1","1","1","1","0","0","0.76177760027349","0.639752299990505","0.731436500325799","1","1","1","1","1","1","1","1","1"
"250003","img/neutralC/CFD-WM-015-002-N.jpg","img/neutralC/CFD-BF-237-172-N.jpg","img/neutralC/CFD-MM-324-069-N.jpg","1","1","1","0","1","1","0.731436500325799","0.76177760027349","0.666695300024003","1","1","1","1","1","1","1","1","1"
"250003","img/neutralC/CFD-MM-324-069-N.jpg","img/neutralC/CFD-WM-015-002-N.jpg","img/neutralC/CFD-MF-316-001-N.jpg","1","1","1","1","0","0","0.666695300024003","0.731436500325799","0.724997600540519","1","1","1","1","1","1","1","1","1"
"250003","img/neutralC/CFD-MF-316-001-N.jpg","img/neutralC/CFD-MM-324-069-N.jpg","img/neutralC/CFD-BF-014-002-N.jpg","1","1","1","0","1","1","0.724997600540519","0.666695300024003","0.694126000162214","1","1","1","1","1","1","1","1","1"
"250003","img/neutralC/CFD-BF-014-002-N.jpg","img/neutralC/CFD-MF-316-001-N.jpg","img/neutralC/CFD-MF-343-001-N.jpg","1","1","1","1","0","1","0.694126000162214","0.724997600540519","0.766383200418204","1","1","1","1","1","1","1","1","1"
"250003","img/neutralC/CFD-MF-343-001-N.jpg","img/neutralC/CFD-BF-014-002-N.jpg","img/neutralC/CFD-MF-303-013-N.jpg","1","1","1","1","1","0","0.766383200418204","0.694126000162214","0.476970500312746","1","1","1","1","1","1","1","1","1"
"250003","img/neutralC/CFD-MF-303-013-N.jpg","img/neutralC/CFD-MF-343-001-N.jpg","img/neutralC/CFD-LF-255-088-N.jpg","1","1","1","0","1","0","0.476970500312746","0.766383200418204","0.50244630035013","1","1","1","1","1","1","1","1","1"
"250003","img/neutralC/CFD-LF-255-088-N.jpg","img/neutralC/CFD-MF-303-013-N.jpg","img/neutralC/CFD-BM-250-170-N.jpg","1","1","1","0","0","1","0.50244630035013","0.476970500312746","0.605605500284582","1","1","1","1","1","1","1","1","1"
"250003","img/neutralC/CFD-BM-250-170-N.jpg","img/neutralC/CFD-LF-255-088-N.jpg","img/neutralC/CFD-LF-206-078-N.jpg","1","1","1","1","0","1","0.605605500284582","0.50244630035013","0.913638100493699","1","1","1","1","1","1","1","1","1"
"250003","img/neutralC/CFD-LF-206-078-N.jpg","img/neutralC/CFD-BM-250-170-N.jpg","img/neutralC/CFD-IM-667-369-N.jpg","1","1","1","1","1","0","0.913638100493699","0.605605500284582","0.813176300376654","1","1","1","1","1","1","1","1","1"
"250003","img/neutralC/CFD-IM-667-369-N.jpg","img/neutralC/CFD-LF-206-078-N.jpg","img/neutralC/CFD-WF-222-092-N.jpg","1","1","1","0","1","1","0.813176300376654","0.913638100493699","0.526281600352377","1","1","1","1","1","1","1","1","1"
"250003","img/neutralC/CFD-WF-222-092-N.jpg","img/neutralC/CFD-IM-667-369-N.jpg",NA,"1","1",NA,"1","0",NA,"0.526281600352377","0.813176300376654",NA,"1","1",NA,"1","1",NA,"1","1",NA
"250003","img/neutralC/CFD-BM-026-002-N.jpg",NA,"img/neutralC/CFD-BF-010-001-N.jpg","1",NA,"1","0",NA,"1","0.705483800265938",NA,"0.53307540062815","1",NA,"1","1",NA,"1","1",NA,"1"
"250003","img/neutralC/CFD-BF-010-001-N.jpg","img/neutralC/CFD-BM-026-002-N.jpg","img/neutralC/CFD-LM-233-171-N.jpg","1","1","1","1","0","0","0.53307540062815","0.705483800265938","0.568753200117499","1","1","1","1","1","1","1","1","1"
"250003","img/neutralC/CFD-LM-233-171-N.jpg","img/neutralC/CFD-BF-010-001-N.jpg","img/neutralC/CFD-LF-250-169-N.jpg","1","1","1","0","1","1","0.568753200117499","0.53307540062815","0.496455000247806","1","1","1","1","1","1","1","1","1"
"250003","img/neutralC/CFD-LF-250-169-N.jpg","img/neutralC/CFD-LM-233-171-N.jpg","img/neutralC/CFD-LM-219-295-N.jpg","1","1","1","1","0","1","0.496455000247806","0.568753200117499","0.923186399973929","1","1","1","1","1","1","1","1","1"
"250003","img/neutralC/CFD-LM-219-295-N.jpg","img/neutralC/CFD-LF-250-169-N.jpg","img/neutralC/CFD-LF-242-121-N.jpg","1","1","1","1","1","0","0.923186399973929","0.496455000247806","0.572315300349146","1","1","1","1","1","1","1","1","1"
"250003","img/neutralC/CFD-LF-242-121-N.jpg","img/neutralC/CFD-LM-219-295-N.jpg","img/neutralC/CFD-AF-202-122-N.jpg","1","1","1","0","1","1","0.572315300349146","0.923186399973929","0.638313400559127","1","1","1","1","1","1","1","1","1"
"250003","img/neutralC/CFD-AF-202-122-N.jpg","img/neutralC/CFD-LF-242-121-N.jpg","img/neutralC/CFD-IM-617-174-N.jpg","1","1","1","1","0","0","0.638313400559127","0.572315300349146","0.709395100362599","1","1","1","1","1","1","1","1","1"
"250003","img/neutralC/CFD-IM-617-174-N.jpg","img/neutralC/CFD-AF-202-122-N.jpg","img/neutralC/CFD-WM-017-002-N.jpg","1","1","1","0","1","0","0.709395100362599","0.638313400559127","0.688387000467628","1","1","1","1","1","1","1","1","1"
"250003","img/neutralC/CFD-WM-017-002-N.jpg","img/neutralC/CFD-IM-617-174-N.jpg","img/neutralC/CFD-BF-238-190-N.jpg","1","1","1","0","0","1","0.688387000467628","0.709395100362599","0.636242100037634","1","1","1","1","1","1","1","1","1"
"250003","img/neutralC/CFD-BF-238-190-N.jpg","img/neutralC/CFD-WM-017-002-N.jpg","img/neutralC/CFD-BM-005-003-N.jpg","1","1","1","1","0","1","0.636242100037634","0.688387000467628","0.845581400208175","1","1","1","1","1","1","1","1","1"
"250003","img/neutralC/CFD-BM-005-003-N.jpg","img/neutralC/CFD-BF-238-190-N.jpg","img/neutralC/CFD-LF-247-051-N.jpg","1","1","1","1","1","1","0.845581400208175","0.636242100037634","1.17776590026915","1","1","1","1","1","1","1","1","1"
"250003","img/neutralC/CFD-LF-247-051-N.jpg","img/neutralC/CFD-BM-005-003-N.jpg","img/neutralC/CFD-AF-206-079-N.jpg","1","1","1","1","1","1","1.17776590026915","0.845581400208175","0.48279570043087","1","1","1","1","1","1","1","1","1"
"250003","img/neutralC/CFD-AF-206-079-N.jpg","img/neutralC/CFD-LF-247-051-N.jpg","img/neutralC/CFD-AF-241-141-N.jpg","1","1","1","1","1","1","0.48279570043087","1.17776590026915","0.65081710042432","1","1","1","1","1","1","1","1","1"
"250003","img/neutralC/CFD-AF-241-141-N.jpg","img/neutralC/CFD-AF-206-079-N.jpg","img/neutralC/CFD-LM-226-175-N.jpg","1","1","1","1","1","0","0.65081710042432","0.48279570043087","0.636641800403595","1","1","1","1","1","1","1","1","1"
"250003","img/neutralC/CFD-LM-226-175-N.jpg","img/neutralC/CFD-AF-241-141-N.jpg","img/neutralC/CFD-IM-653-008-N.jpg","1","1","1","0","1","0","0.636641800403595","0.65081710042432","0.917842000257224","1","1","1","1","1","1","1","1","1"
"250003","img/neutralC/CFD-IM-653-008-N.jpg","img/neutralC/CFD-LM-226-175-N.jpg","img/neutralC/CFD-WF-209-052-N.jpg","1","1","1","0","0","1","0.917842000257224","0.636641800403595","0.569350200239569","1","1","1","1","1","1","1","1","1"
"250003","img/neutralC/CFD-WF-209-052-N.jpg","img/neutralC/CFD-IM-653-008-N.jpg","img/neutralC/CFD-IM-686-097-N.jpg","1","1","1","1","0","0","0.569350200239569","0.917842000257224","0.598420800641179","1","1","1","1","1","1","1","1","1"
"250003","img/neutralC/CFD-IM-686-097-N.jpg","img/neutralC/CFD-WF-209-052-N.jpg","img/neutralC/CFD-BM-231-155-N.jpg","1","1","1","0","1","1","0.598420800641179","0.569350200239569","0.904098200146109","1","1","1","1","1","1","1","1","1"
"250003","img/neutralC/CFD-BM-231-155-N.jpg","img/neutralC/CFD-IM-686-097-N.jpg","img/neutralC/CFD-BM-018-001-N.jpg","1","1","1","1","0","1","0.904098200146109","0.598420800641179","0.688124100212008","1","1","1","1","1","1","1","1","1"
"250003","img/neutralC/CFD-BM-018-001-N.jpg","img/neutralC/CFD-BM-231-155-N.jpg","img/neutralC/CFD-IF-620-218-N.jpg","1","1","1","1","1","0","0.688124100212008","0.904098200146109","0.524299000389874","1","1","1","1","1","1","1","1","1"
"250003","img/neutralC/CFD-IF-620-218-N.jpg","img/neutralC/CFD-BM-018-001-N.jpg","img/neutralC/CFD-IM-638-250-1-N.jpg","1","1","1","0","1","1","0.524299000389874","0.688124100212008","0.736322100274265","1","1","1","1","1","1","1","1","1"
"250003","img/neutralC/CFD-IM-638-250-1-N.jpg","img/neutralC/CFD-IF-620-218-N.jpg","img/neutralC/CFD-WM-227-099-N.jpg","1","1","1","1","0","1","0.736322100274265","0.524299000389874","0.560786800459027","1","1","1","1","1","1","1","1","1"
"250003","img/neutralC/CFD-WM-227-099-N.jpg","img/neutralC/CFD-IM-638-250-1-N.jpg","img/neutralC/CFD-WM-258-125-N.jpg","1","1","1","1","1","0","0.560786800459027","0.736322100274265","0.576755000278354","1","1","1","1","1","1","1","1","1"
"250003","img/neutralC/CFD-WM-258-125-N.jpg","img/neutralC/CFD-WM-227-099-N.jpg","img/neutralC/CFD-IM-657-308-N.jpg","1","1","1","0","1","0","0.576755000278354","0.560786800459027","0.536929100286216","1","1","1","1","1","1","1","1","1"
"250003","img/neutralC/CFD-IM-657-308-N.jpg","img/neutralC/CFD-WM-258-125-N.jpg","img/neutralC/CFD-IM-727-195-N.jpg","1","1","1","0","0","1","0.536929100286216","0.576755000278354","0.525132200215012","1","1","1","1","1","1","1","1","1"
"250003","img/neutralC/CFD-IM-727-195-N.jpg","img/neutralC/CFD-IM-657-308-N.jpg","img/neutralC/CFD-BF-033-028-N.jpg","1","1","1","1","0","0","0.525132200215012","0.536929100286216","0.704119100235403","1","1","1","1","1","1","1","1","1"
"250003","img/neutralC/CFD-BF-033-028-N.jpg","img/neutralC/CFD-IM-727-195-N.jpg","img/neutralC/CFD-MF-313-002-N.jpg","1","1","0","0","1","0","0.704119100235403","0.525132200215012","1.07379750069231","1","1","1","1","1","1","1","1","1"
"250003","img/neutralC/CFD-MF-313-002-N.jpg","img/neutralC/CFD-BF-033-028-N.jpg","img/neutralC/CFD-IF-665-015-N.jpg","0","1","1","0","0","0","1.07379750069231","0.704119100235403","0.578439600300044","1","1","1","1","1","1","1","1","1"
"250003","img/neutralC/CFD-IF-665-015-N.jpg","img/neutralC/CFD-MF-313-002-N.jpg","img/neutralC/CFD-LF-245-166-N.jpg","1","0","1","0","0","1","0.578439600300044","1.07379750069231","0.661335000302643","1","1","1","1","1","1","1","1","1"
"250003","img/neutralC/CFD-LF-245-166-N.jpg","img/neutralC/CFD-IF-665-015-N.jpg","img/neutralC/CFD-BM-212-117-N.jpg","1","1","0","1","0","0","0.661335000302643","0.578439600300044","0.707060900516808","1","1","1","1","1","1","1","1","1"
"250003","img/neutralC/CFD-BM-212-117-N.jpg","img/neutralC/CFD-LF-245-166-N.jpg","img/neutralC/CFD-WM-242-011-N.jpg","0","1","1","0","1","0","0.707060900516808","0.661335000302643","0.57141390023753","1","1","1","1","1","1","1","1","1"
"250003","img/neutralC/CFD-WM-242-011-N.jpg","img/neutralC/CFD-BM-212-117-N.jpg",NA,"1","0",NA,"0","0",NA,"0.57141390023753","0.707060900516808",NA,"1","1",NA,"1","1",NA,"1","1",NA
"250003","img/neutralC/CFD-BM-211-174-N.jpg",NA,"img/neutralC/CFD-WM-002-009-N.jpg","1",NA,"1","0",NA,"0","0.63149240007624",NA,"0.482434100005776","1",NA,"1","1",NA,"1","1",NA,"1"
"250003","img/neutralC/CFD-WM-002-009-N.jpg","img/neutralC/CFD-BM-211-174-N.jpg","img/neutralC/CFD-LM-252-076-N.jpg","1","1","1","0","0","1","0.482434100005776","0.63149240007624","0.490204700268805","1","1","1","1","1","1","1","1","1"
"250003","img/neutralC/CFD-LM-252-076-N.jpg","img/neutralC/CFD-WM-002-009-N.jpg","img/neutralC/CFD-LF-236-221-N.jpg","1","1","1","1","0","1","0.490204700268805","0.482434100005776","0.422306000255048","1","1","1","1","1","1","1","1","1"
"250003","img/neutralC/CFD-LF-236-221-N.jpg","img/neutralC/CFD-LM-252-076-N.jpg","img/neutralC/CFD-BF-255-140-N.jpg","1","1","1","1","1","1","0.422306000255048","0.490204700268805","0.455969800241292","1","1","1","1","1","1","1","1","1"
"250003","img/neutralC/CFD-BF-255-140-N.jpg","img/neutralC/CFD-LF-236-221-N.jpg","img/neutralC/CFD-IF-672-305-N.jpg","1","1","0","1","1","0","0.455969800241292","0.422306000255048",NA,"1","1","0","1","1","0","1","1","0"
"250003","img/neutralC/CFD-IF-672-305-N.jpg","img/neutralC/CFD-BF-255-140-N.jpg","img/neutralC/CFD-IM-728-041-N.jpg","0","1","1","0","1","0",NA,"0.455969800241292","0.73569850018248","0","1","1","0","1","1","0","1","1"
"250003","img/neutralC/CFD-IM-728-041-N.jpg","img/neutralC/CFD-IF-672-305-N.jpg","img/neutralC/CFD-WF-022-017-N.jpg","1","0","1","0","0","0","0.73569850018248",NA,"0.588899800088257","1","0","1","1","0","1","1","0","1"
"250003","img/neutralC/CFD-WF-022-017-N.jpg","img/neutralC/CFD-IM-728-041-N.jpg","img/neutralC/CFD-WM-040-022-N.jpg","1","1","1","0","0","0","0.588899800088257","0.73569850018248","0.489799200091511","1","1","1","1","1","1","1","1","1"
"250003","img/neutralC/CFD-WM-040-022-N.jpg","img/neutralC/CFD-WF-022-017-N.jpg","img/neutralC/CFD-BM-029-024-N.jpg","1","1","1","0","0","1","0.489799200091511","0.588899800088257","0.509628600440919","1","1","1","1","1","1","1","1","1"
"250003","img/neutralC/CFD-BM-029-024-N.jpg","img/neutralC/CFD-WM-040-022-N.jpg","img/neutralC/CFD-IM-674-281-N.jpg","1","1","1","1","0","1","0.509628600440919","0.489799200091511","0.462606500368565","1","1","1","1","1","1","1","1","1"
"250003","img/neutralC/CFD-IM-674-281-N.jpg","img/neutralC/CFD-BM-029-024-N.jpg","img/neutralC/CFD-WF-002-004-N.jpg","1","1","1","1","1","0","0.462606500368565","0.509628600440919","0.372382100205868","1","1","1","1","1","1","1","1","1"
"250003","img/neutralC/CFD-WF-002-004-N.jpg","img/neutralC/CFD-IM-674-281-N.jpg","img/neutralC/CFD-WM-038-003-N.jpg","1","1","1","0","1","0","0.372382100205868","0.462606500368565","0.480075900442898","1","1","1","1","1","1","1","1","1"
"250003","img/neutralC/CFD-WM-038-003-N.jpg","img/neutralC/CFD-WF-002-004-N.jpg","img/neutralC/CFD-BF-023-010-N.jpg","1","1","1","0","0","1","0.480075900442898","0.372382100205868","0.424663700163364","1","1","1","1","1","1","1","1","1"
"250003","img/neutralC/CFD-BF-023-010-N.jpg","img/neutralC/CFD-WM-038-003-N.jpg","img/neutralC/CFD-WF-026-002-N.jpg","1","1","1","1","0","1","0.424663700163364","0.480075900442898","0.332989000249654","1","1","1","1","1","1","1","1","1"
"250003","img/neutralC/CFD-WF-026-002-N.jpg","img/neutralC/CFD-BF-023-010-N.jpg","img/neutralC/CFD-BM-015-015-N.jpg","1","1","1","1","1","0","0.332989000249654","0.424663700163364","0.607435100246221","1","1","1","1","1","1","1","1","1"
"250003","img/neutralC/CFD-BM-015-015-N.jpg","img/neutralC/CFD-WF-026-002-N.jpg","img/neutralC/CFD-BF-208-266-N.jpg","1","1","1","0","1","0","0.607435100246221","0.332989000249654","0.417140500154346","1","1","1","1","1","1","1","1","1"
"250003","img/neutralC/CFD-BF-208-266-N.jpg","img/neutralC/CFD-BM-015-015-N.jpg","img/neutralC/CFD-BF-204-189-N.jpg","1","1","1","0","0","1","0.417140500154346","0.607435100246221","0.499980000313371","1","1","1","1","1","1","1","1","1"
"250003","img/neutralC/CFD-BF-204-189-N.jpg","img/neutralC/CFD-BF-208-266-N.jpg","img/neutralC/CFD-MM-319-052-N.jpg","1","1","1","1","0","1","0.499980000313371","0.417140500154346","0.452647500205785","1","1","1","1","1","1","1","1","1"
"250003","img/neutralC/CFD-MM-319-052-N.jpg","img/neutralC/CFD-BF-204-189-N.jpg","img/neutralC/CFD-WM-225-127-N.jpg","1","1","1","1","1","0","0.452647500205785","0.499980000313371","0.461338700260967","1","1","1","1","1","1","1","1","1"
"250003","img/neutralC/CFD-WM-225-127-N.jpg","img/neutralC/CFD-MM-319-052-N.jpg","img/neutralC/CFD-BF-201-080-N.jpg","1","1","1","0","1","1","0.461338700260967","0.452647500205785","0.452978900168091","1","1","1","1","1","1","1","1","1"
"250003","img/neutralC/CFD-BF-201-080-N.jpg","img/neutralC/CFD-WM-225-127-N.jpg","img/neutralC/CFD-IM-639-263-N.jpg","1","1","1","1","0","1","0.452978900168091","0.461338700260967","0.472427200525999","1","1","1","1","1","1","1","1","1"
"250003","img/neutralC/CFD-IM-639-263-N.jpg","img/neutralC/CFD-BF-201-080-N.jpg","img/neutralC/CFD-BF-003-003-N.jpg","1","1","1","1","1","0","0.472427200525999","0.452978900168091","0.408026000484824","1","1","1","1","1","1","1","1","1"
"250003","img/neutralC/CFD-BF-003-003-N.jpg","img/neutralC/CFD-IM-639-263-N.jpg","img/neutralC/CFD-AM-235-241-N.jpg","1","1","1","0","1","0","0.408026000484824","0.472427200525999","0.481995800510049","1","1","1","1","1","1","1","1","1"
"250003","img/neutralC/CFD-AM-235-241-N.jpg","img/neutralC/CFD-BF-003-003-N.jpg","img/neutralC/CFD-LF-216-121-N.jpg","1","1","1","0","0","1","0.481995800510049","0.408026000484824","0.457892200443894","1","1","1","1","1","1","1","1","1"
"250003","img/neutralC/CFD-LF-216-121-N.jpg","img/neutralC/CFD-AM-235-241-N.jpg","img/neutralC/CFD-WM-257-161-N.jpg","1","1","1","1","0","1","0.457892200443894","0.481995800510049","0.395029900595546","1","1","1","1","1","1","1","1","1"
"250003","img/neutralC/CFD-WM-257-161-N.jpg","img/neutralC/CFD-LF-216-121-N.jpg","img/neutralC/CFD-BM-027-001-N.jpg","1","1","1","1","1","0","0.395029900595546","0.457892200443894","0.494692100211978","1","1","1","1","1","1","1","1","1"
"250003","img/neutralC/CFD-BM-027-001-N.jpg","img/neutralC/CFD-WM-257-161-N.jpg","img/neutralC/CFD-AM-215-120-N.jpg","1","1","1","0","1","1","0.494692100211978","0.395029900595546","0.530759800225496","1","1","1","1","1","1","1","1","1"
"250003","img/neutralC/CFD-AM-215-120-N.jpg","img/neutralC/CFD-BM-027-001-N.jpg","img/neutralC/CFD-BM-247-240-N.jpg","1","1","1","1","0","0","0.530759800225496","0.494692100211978","0.492863300256431","1","1","1","1","1","1","1","1","1"
"250003","img/neutralC/CFD-BM-247-240-N.jpg","img/neutralC/CFD-AM-215-120-N.jpg","img/neutralC/CFD-IF-718-001-N.jpg","1","1","1","0","1","1","0.492863300256431","0.530759800225496","0.557346000336111","1","1","1","1","1","1","1","1","1"
"250003","img/neutralC/CFD-IF-718-001-N.jpg","img/neutralC/CFD-BM-247-240-N.jpg","img/neutralC/CFD-BF-028-001-N.jpg","1","1","1","1","0","1","0.557346000336111","0.492863300256431","0.458348400425166","1","1","1","1","1","1","1","1","1"
"250003","img/neutralC/CFD-BF-028-001-N.jpg","img/neutralC/CFD-IF-718-001-N.jpg","img/neutralC/CFD-AM-217-085-N.jpg","1","1","1","1","1","0","0.458348400425166","0.557346000336111","0.395339600276202","1","1","1","1","1","1","1","1","1"
"250003","img/neutralC/CFD-AM-217-085-N.jpg","img/neutralC/CFD-BF-028-001-N.jpg",NA,"1","1",NA,"0","1",NA,"0.395339600276202","0.458348400425166",NA,"1","1",NA,"1","1",NA,"1","1",NA
"250003","img/neutralC/CFD-WM-219-008-N.jpg",NA,"img/neutralC/CFD-BM-225-154-N.jpg","1",NA,"1","0",NA,"1","0.557455100119114",NA,"0.459022000432014","1",NA,"1","1",NA,"1","1",NA,"1"
"250003","img/neutralC/CFD-BM-225-154-N.jpg","img/neutralC/CFD-WM-219-008-N.jpg","img/neutralC/CFD-WF-001-003-N.jpg","1","1","1","1","0","1","0.459022000432014","0.557455100119114","0.344234000425786","1","1","1","1","1","1","1","1","1"
"250003","img/neutralC/CFD-WF-001-003-N.jpg","img/neutralC/CFD-BM-225-154-N.jpg","img/neutralC/CFD-IF-650-315-N.jpg","1","1","1","1","1","0","0.344234000425786","0.459022000432014","0.364366300404072","1","1","1","1","1","1","1","1","1"
"250003","img/neutralC/CFD-IF-650-315-N.jpg","img/neutralC/CFD-WF-001-003-N.jpg","img/neutralC/CFD-IM-645-001-N.jpg","1","1","1","0","1","0","0.364366300404072","0.344234000425786","0.375375600531697","1","1","1","1","1","1","1","1","1"
"250003","img/neutralC/CFD-IM-645-001-N.jpg","img/neutralC/CFD-IF-650-315-N.jpg","img/neutralC/CFD-IM-743-006-N.jpg","1","1","1","0","0","1","0.375375600531697","0.364366300404072","0.417235200293362","1","1","1","1","1","1","1","1","1"
"250003","img/neutralC/CFD-IM-743-006-N.jpg","img/neutralC/CFD-IM-645-001-N.jpg","img/neutralC/CFD-WM-004-010-N.jpg","1","1","1","1","0","0","0.417235200293362","0.375375600531697","0.41656930046156","1","1","1","1","1","1","1","1","1"
"250003","img/neutralC/CFD-WM-004-010-N.jpg","img/neutralC/CFD-IM-743-006-N.jpg","img/neutralC/CFD-IM-703-182-N.jpg","1","1","1","0","1","1","0.41656930046156","0.417235200293362","0.317650800105184","1","1","1","1","1","1","1","1","1"
"250003","img/neutralC/CFD-IM-703-182-N.jpg","img/neutralC/CFD-WM-004-010-N.jpg","img/neutralC/CFD-BF-229-179-N.jpg","1","1","1","1","0","0","0.317650800105184","0.41656930046156","0.464050200302154","1","1","1","1","1","1","1","1","1"
"250003","img/neutralC/CFD-BF-229-179-N.jpg","img/neutralC/CFD-IM-703-182-N.jpg","img/neutralC/CFD-LF-220-120-N.jpg","1","1","1","0","1","1","0.464050200302154","0.317650800105184","0.432591000571847","1","1","1","1","1","1","1","1","1"
"250003","img/neutralC/CFD-LF-220-120-N.jpg","img/neutralC/CFD-BF-229-179-N.jpg","img/neutralC/CFD-WM-033-025-N.jpg","1","1","1","1","0","1","0.432591000571847","0.464050200302154","0.456255700439215","1","1","1","1","1","1","1","1","1"
"250003","img/neutralC/CFD-WM-033-025-N.jpg","img/neutralC/CFD-LF-220-120-N.jpg","img/neutralC/CFD-MF-359-019-N.jpg","1","1","1","1","1","0","0.456255700439215","0.432591000571847","0.659217700362206","1","1","1","1","1","1","1","1","1"
"250003","img/neutralC/CFD-MF-359-019-N.jpg","img/neutralC/CFD-WM-033-025-N.jpg","img/neutralC/CFD-IM-616-214-N.jpg","1","1","1","0","1","0","0.659217700362206","0.456255700439215","0.41067700041458","1","1","1","1","1","1","1","1","1"
"250003","img/neutralC/CFD-IM-616-214-N.jpg","img/neutralC/CFD-MF-359-019-N.jpg","img/neutralC/CFD-WM-235-147-N.jpg","1","1","1","0","0","0","0.41067700041458","0.659217700362206","0.513416200410575","1","1","1","1","1","1","1","1","1"
"250003","img/neutralC/CFD-WM-235-147-N.jpg","img/neutralC/CFD-IM-616-214-N.jpg","img/neutralC/CFD-MF-352-054-N.jpg","1","1","1","0","0","0","0.513416200410575","0.41067700041458","0.453196200076491","1","1","1","1","1","1","1","1","1"
"250003","img/neutralC/CFD-MF-352-054-N.jpg","img/neutralC/CFD-WM-235-147-N.jpg","img/neutralC/CFD-IF-623-129-N.jpg","1","1","1","0","0","1","0.453196200076491","0.513416200410575","0.439635600429028","1","1","1","1","1","1","1","1","1"
"250003","img/neutralC/CFD-IF-623-129-N.jpg","img/neutralC/CFD-MF-352-054-N.jpg","img/neutralC/CFD-LF-218-072-N.jpg","1","1","1","1","0","0","0.439635600429028","0.453196200076491","0.440294200088829","1","1","1","1","1","1","1","1","1"
"250003","img/neutralC/CFD-LF-218-072-N.jpg","img/neutralC/CFD-IF-623-129-N.jpg","img/neutralC/CFD-LM-237-264-N.jpg","1","1","1","0","1","0","0.440294200088829","0.439635600429028","0.437406500801444","1","1","1","1","1","1","1","1","1"
"250003","img/neutralC/CFD-LM-237-264-N.jpg","img/neutralC/CFD-LF-218-072-N.jpg","img/neutralC/CFD-WF-036-023-N.jpg","1","1","1","0","0","0","0.437406500801444","0.440294200088829","0.526031699962914","1","1","1","1","1","1","1","1","1"
"250003","img/neutralC/CFD-WF-036-023-N.jpg","img/neutralC/CFD-LM-237-264-N.jpg","img/neutralC/CFD-BF-226-119-N.jpg","1","1","1","0","0","1","0.526031699962914","0.437406500801444","0.417119800578803","1","1","1","1","1","1","1","1","1"
"250003","img/neutralC/CFD-BF-226-119-N.jpg","img/neutralC/CFD-WF-036-023-N.jpg","img/neutralC/CFD-BM-253-004-N.jpg","1","1","1","1","0","1","0.417119800578803","0.526031699962914","0.432828700635582","1","1","1","1","1","1","1","1","1"
"250003","img/neutralC/CFD-BM-253-004-N.jpg","img/neutralC/CFD-BF-226-119-N.jpg","img/neutralC/CFD-WF-214-122-N.jpg","1","1","1","1","1","1","0.432828700635582","0.417119800578803","0.445840599946678","1","1","1","1","1","1","1","1","1"
"250003","img/neutralC/CFD-WF-214-122-N.jpg","img/neutralC/CFD-BM-253-004-N.jpg","img/neutralC/CFD-WM-020-001-N.jpg","1","1","1","1","1","1","0.445840599946678","0.432828700635582","0.519168500322849","1","1","1","1","1","1","1","1","1"
"250003","img/neutralC/CFD-WM-020-001-N.jpg","img/neutralC/CFD-WF-214-122-N.jpg","img/neutralC/CFD-IM-671-601-N.jpg","1","1","1","1","1","0","0.519168500322849","0.445840599946678","0.463563500437886","1","1","1","1","1","1","1","1","1"
"250003","img/neutralC/CFD-IM-671-601-N.jpg","img/neutralC/CFD-WM-020-001-N.jpg","img/neutralC/CFD-LM-228-188-N.jpg","1","1","1","0","1","1","0.463563500437886","0.519168500322849","0.467303400393575","1","1","1","1","1","1","1","1","1"
"250003","img/neutralC/CFD-LM-228-188-N.jpg","img/neutralC/CFD-IM-671-601-N.jpg","img/neutralC/CFD-BF-038-037-N.jpg","1","1","1","1","0","1","0.467303400393575","0.463563500437886","0.446199200581759","1","1","1","1","1","1","1","1","1"
"250003","img/neutralC/CFD-BF-038-037-N.jpg","img/neutralC/CFD-LM-228-188-N.jpg","img/neutralC/CFD-BF-232-187-N.jpg","1","1","1","1","1","1","0.446199200581759","0.467303400393575","0.48280980065465","1","1","1","1","1","1","1","1","1"
"250003","img/neutralC/CFD-BF-232-187-N.jpg","img/neutralC/CFD-BF-038-037-N.jpg","img/neutralC/CFD-AM-251-124-N.jpg","1","1","0","1","1","0","0.48280980065465","0.446199200581759","0.409474400337785","1","1","1","1","1","1","1","1","1"
"250003","img/neutralC/CFD-AM-251-124-N.jpg","img/neutralC/CFD-BF-232-187-N.jpg","img/neutralC/CFD-AM-242-176-N.jpg","0","1","1","0","1","1","0.409474400337785","0.48280980065465","0.508365200366825","1","1","1","1","1","1","1","1","1"
"250003","img/neutralC/CFD-AM-242-176-N.jpg","img/neutralC/CFD-AM-251-124-N.jpg","img/neutralC/CFD-MF-333-012-N.jpg","1","0","1","1","0","0","0.508365200366825","0.409474400337785","0.655641100369394","1","1","1","1","1","1","1","1","1"
"250003","img/neutralC/CFD-MF-333-012-N.jpg","img/neutralC/CFD-AM-242-176-N.jpg","img/neutralC/CFD-WF-200-099-N.jpg","1","1","1","0","1","0","0.655641100369394","0.508365200366825","0.478679800406098","1","1","1","1","1","1","1","1","1"
"250003","img/neutralC/CFD-WF-200-099-N.jpg","img/neutralC/CFD-MF-333-012-N.jpg","img/neutralC/CFD-AM-211-052-N.jpg","1","1","1","0","0","1","0.478679800406098","0.655641100369394","0.556444500107318","1","1","1","1","1","1","1","1","1"
"250003","img/neutralC/CFD-AM-211-052-N.jpg","img/neutralC/CFD-WF-200-099-N.jpg",NA,"1","1",NA,"1","0",NA,"0.556444500107318","0.478679800406098",NA,"1","1",NA,"1","1",NA,"1","1",NA
