"participant_id","current_trial_face","pre_trial_face","post_trial_face","current_trial_accuracy","pre_trial_accuracy","post_trial_accuracy","current_trial_congruency","pre_trial_congruency","post_trial_congruency","current_trial_rt","pre_trial_rt","post_trial_rt","current_trial_responded","pre_trial_responded","post_trial_responded","current_trial_legitResponse","pre_trial_legitResponse","post_trial_legitResponse","current_trial_resp_nums","pre_trial_resp_nums","post_trial_resp_nums"
"250020","img/neutralC/CFD-WF-228-196-N.jpg",NA,"img/neutralC/CFD-BM-251-013-N.jpg","0",NA,"1","0",NA,"1","2.5620924999821",NA,"0.653349700005492","1",NA,"1","1",NA,"1","1",NA,"1"
"250020","img/neutralC/CFD-BM-251-013-N.jpg","img/neutralC/CFD-WF-228-196-N.jpg","img/neutralC/CFD-WF-017-003-N.jpg","1","0","1","1","0","1","0.653349700005492","2.5620924999821","0.675371599994833","1","1","1","1","1","1","1","1","1"
"250020","img/neutralC/CFD-WF-017-003-N.jpg","img/neutralC/CFD-BM-251-013-N.jpg","img/neutralC/CFD-WM-249-239-N.jpg","1","1","1","1","1","1","0.675371599994833","0.653349700005492","0.589103799982695","1","1","1","1","1","1","1","1","1"
"250020","img/neutralC/CFD-WM-249-239-N.jpg","img/neutralC/CFD-WF-017-003-N.jpg","img/neutralC/CFD-LM-214-165-N.jpg","1","1","1","1","1","1","0.589103799982695","0.675371599994833","0.594619900017278","1","1","1","1","1","1","1","1","1"
"250020","img/neutralC/CFD-LM-214-165-N.jpg","img/neutralC/CFD-WM-249-239-N.jpg","img/neutralC/CFD-AM-247-165-N.jpg","1","1","1","1","1","1","0.594619900017278","0.589103799982695","0.650525500008371","1","1","1","1","1","1","1","1","1"
"250020","img/neutralC/CFD-AM-247-165-N.jpg","img/neutralC/CFD-LM-214-165-N.jpg","img/neutralC/CFD-WM-212-097-N.jpg","1","1","1","1","1","0","0.650525500008371","0.594619900017278","0.671798199997284","1","1","1","1","1","1","1","1","1"
"250020","img/neutralC/CFD-WM-212-097-N.jpg","img/neutralC/CFD-AM-247-165-N.jpg","img/neutralC/CFD-BF-202-109-N.jpg","1","1","1","0","1","1","0.671798199997284","0.650525500008371","0.759673099993961","1","1","1","1","1","1","1","1","1"
"250020","img/neutralC/CFD-BF-202-109-N.jpg","img/neutralC/CFD-WM-212-097-N.jpg","img/neutralC/CFD-IM-648-337-N.jpg","1","1","1","1","0","0","0.759673099993961","0.671798199997284","0.597190300002694","1","1","1","1","1","1","1","1","1"
"250020","img/neutralC/CFD-IM-648-337-N.jpg","img/neutralC/CFD-BF-202-109-N.jpg","img/neutralC/CFD-IM-646-023-N.jpg","1","1","1","0","1","1","0.597190300002694","0.759673099993961","0.574524099996779","1","1","1","1","1","1","1","1","1"
"250020","img/neutralC/CFD-IM-646-023-N.jpg","img/neutralC/CFD-IM-648-337-N.jpg","img/neutralC/CFD-BF-041-001-N.jpg","1","1","1","1","0","1","0.574524099996779","0.597190300002694","0.573701599991182","1","1","1","1","1","1","1","1","1"
"250020","img/neutralC/CFD-BF-041-001-N.jpg","img/neutralC/CFD-IM-646-023-N.jpg","img/neutralC/CFD-LM-244-068-N.jpg","1","1","1","1","1","1","0.573701599991182","0.574524099996779","0.662565800012089","1","1","1","1","1","1","1","1","1"
"250020","img/neutralC/CFD-LM-244-068-N.jpg","img/neutralC/CFD-BF-041-001-N.jpg","img/neutralC/CFD-WM-012-001-N.jpg","1","1","1","1","1","1","0.662565800012089","0.573701599991182","0.674186299991561","1","1","1","1","1","1","1","1","1"
"250020","img/neutralC/CFD-WM-012-001-N.jpg","img/neutralC/CFD-LM-244-068-N.jpg","img/neutralC/CFD-BF-228-212-N.jpg","1","1","1","1","1","0","0.674186299991561","0.662565800012089","0.678195999993477","1","1","1","1","1","1","1","1","1"
"250020","img/neutralC/CFD-BF-228-212-N.jpg","img/neutralC/CFD-WM-012-001-N.jpg","img/neutralC/CFD-BM-205-001-N.jpg","1","1","1","0","1","0","0.678195999993477","0.674186299991561","1.17971619998571","1","1","1","1","1","1","1","1","1"
"250020","img/neutralC/CFD-BM-205-001-N.jpg","img/neutralC/CFD-BF-228-212-N.jpg","img/neutralC/CFD-WM-215-041-N.jpg","1","1","1","0","0","0","1.17971619998571","0.678195999993477","0.729862400010461","1","1","1","1","1","1","1","1","1"
"250020","img/neutralC/CFD-WM-215-041-N.jpg","img/neutralC/CFD-BM-205-001-N.jpg","img/neutralC/CFD-MM-317-061-N.jpg","1","1","1","0","0","1","0.729862400010461","1.17971619998571","0.578484700003173","1","1","1","1","1","1","1","1","1"
"250020","img/neutralC/CFD-MM-317-061-N.jpg","img/neutralC/CFD-WM-215-041-N.jpg","img/neutralC/CFD-WF-005-010-N.jpg","1","1","1","1","0","0","0.578484700003173","0.729862400010461","0.678806399984751","1","1","1","1","1","1","1","1","1"
"250020","img/neutralC/CFD-WF-005-010-N.jpg","img/neutralC/CFD-MM-317-061-N.jpg","img/neutralC/CFD-MF-335-002-N.jpg","1","1","1","0","1","0","0.678806399984751","0.578484700003173","0.720433500013314","1","1","1","1","1","1","1","1","1"
"250020","img/neutralC/CFD-MF-335-002-N.jpg","img/neutralC/CFD-WF-005-010-N.jpg","img/neutralC/CFD-IF-642-295-N.jpg","1","1","1","0","0","1","0.720433500013314","0.678806399984751","0.57013680000091","1","1","1","1","1","1","1","1","1"
"250020","img/neutralC/CFD-IF-642-295-N.jpg","img/neutralC/CFD-MF-335-002-N.jpg","img/neutralC/CFD-LM-201-057-N.jpg","1","1","1","1","0","1","0.57013680000091","0.720433500013314","0.650638799997978","1","1","1","1","1","1","1","1","1"
"250020","img/neutralC/CFD-LM-201-057-N.jpg","img/neutralC/CFD-IF-642-295-N.jpg","img/neutralC/CFD-LM-243-075-N.jpg","1","1","1","1","1","0","0.650638799997978","0.57013680000091","0.726687699992908","1","1","1","1","1","1","1","1","1"
"250020","img/neutralC/CFD-LM-243-075-N.jpg","img/neutralC/CFD-LM-201-057-N.jpg","img/neutralC/CFD-AF-240-206-N.jpg","1","1","1","0","1","0","0.726687699992908","0.650638799997978","0.719952099985676","1","1","1","1","1","1","1","1","1"
"250020","img/neutralC/CFD-AF-240-206-N.jpg","img/neutralC/CFD-LM-243-075-N.jpg","img/neutralC/CFD-BM-248-128-N.jpg","1","1","1","0","0","0","0.719952099985676","0.726687699992908","0.86816989997169","1","1","1","1","1","1","1","1","1"
"250020","img/neutralC/CFD-BM-248-128-N.jpg","img/neutralC/CFD-AF-240-206-N.jpg","img/neutralC/CFD-WM-019-003-N.jpg","1","1","1","0","0","1","0.86816989997169","0.719952099985676","0.991946699999971","1","1","1","1","1","1","1","1","1"
"250020","img/neutralC/CFD-WM-019-003-N.jpg","img/neutralC/CFD-BM-248-128-N.jpg","img/neutralC/CFD-MF-309-002-N.jpg","1","1","1","1","0","0","0.991946699999971","0.86816989997169","0.648668900015764","1","1","1","1","1","1","1","1","1"
"250020","img/neutralC/CFD-MF-309-002-N.jpg","img/neutralC/CFD-WM-019-003-N.jpg","img/neutralC/CFD-BF-212-315-N.jpg","1","1","1","0","1","1","0.648668900015764","0.991946699999971","0.744332999980543","1","1","1","1","1","1","1","1","1"
"250020","img/neutralC/CFD-BF-212-315-N.jpg","img/neutralC/CFD-MF-309-002-N.jpg","img/neutralC/CFD-WM-026-001-N.jpg","1","1","1","1","0","1","0.744332999980543","0.648668900015764","0.591950600006385","1","1","1","1","1","1","1","1","1"
"250020","img/neutralC/CFD-WM-026-001-N.jpg","img/neutralC/CFD-BF-212-315-N.jpg","img/neutralC/CFD-LM-216-082-N.jpg","1","1","1","1","1","0","0.591950600006385","0.744332999980543","0.532986000005621","1","1","1","1","1","1","1","1","1"
"250020","img/neutralC/CFD-LM-216-082-N.jpg","img/neutralC/CFD-WM-026-001-N.jpg","img/neutralC/CFD-BF-025-002-N.jpg","1","1","1","0","1","0","0.532986000005621","0.591950600006385","2.61164429999189","1","1","1","1","1","1","1","1","1"
"250020","img/neutralC/CFD-BF-025-002-N.jpg","img/neutralC/CFD-LM-216-082-N.jpg","img/neutralC/CFD-WM-006-002-N.jpg","1","1","1","0","0","0","2.61164429999189","0.532986000005621","0.77359929998056","1","1","1","1","1","1","1","1","1"
"250020","img/neutralC/CFD-WM-006-002-N.jpg","img/neutralC/CFD-BF-025-002-N.jpg","img/neutralC/CFD-WF-240-083-N.jpg","1","1","1","0","0","0","0.77359929998056","2.61164429999189","0.744172200007597","1","1","1","1","1","1","1","1","1"
"250020","img/neutralC/CFD-WF-240-083-N.jpg","img/neutralC/CFD-WM-006-002-N.jpg",NA,"1","1",NA,"0","0",NA,"0.744172200007597","0.77359929998056",NA,"1","1",NA,"1","1",NA,"1","1",NA
"250020","img/neutralC/CFD-LM-200-045-N.jpg",NA,"img/neutralC/CFD-BF-014-002-N.jpg","1",NA,"1","1",NA,"1","1.10405409999657",NA,"0.606773599982262","1",NA,"1","1",NA,"1","1",NA,"1"
"250020","img/neutralC/CFD-BF-014-002-N.jpg","img/neutralC/CFD-LM-200-045-N.jpg","img/neutralC/CFD-AF-253-130-N.jpg","1","1","1","1","1","1","0.606773599982262","1.10405409999657","0.522777599981055","1","1","1","1","1","1","1","1","1"
"250020","img/neutralC/CFD-AF-253-130-N.jpg","img/neutralC/CFD-BF-014-002-N.jpg","img/neutralC/CFD-IF-660-464-N.jpg","1","1","1","1","1","0","0.522777599981055","0.606773599982262","0.480278600007296","1","1","1","1","1","1","1","1","1"
"250020","img/neutralC/CFD-IF-660-464-N.jpg","img/neutralC/CFD-AF-253-130-N.jpg","img/neutralC/CFD-IM-702-101-N.jpg","1","1","1","0","1","1","0.480278600007296","0.522777599981055","0.502143899997463","1","1","1","1","1","1","1","1","1"
"250020","img/neutralC/CFD-IM-702-101-N.jpg","img/neutralC/CFD-IF-660-464-N.jpg","img/neutralC/CFD-IF-626-375-N.jpg","1","1","1","1","0","0","0.502143899997463","0.480278600007296","0.503106000018306","1","1","1","1","1","1","1","1","1"
"250020","img/neutralC/CFD-IF-626-375-N.jpg","img/neutralC/CFD-IM-702-101-N.jpg","img/neutralC/CFD-MM-324-069-N.jpg","1","1","1","0","1","1","0.503106000018306","0.502143899997463","0.456161099980818","1","1","1","1","1","1","1","1","1"
"250020","img/neutralC/CFD-MM-324-069-N.jpg","img/neutralC/CFD-IF-626-375-N.jpg","img/neutralC/CFD-AM-220-134-N.jpg","1","1","1","1","0","0","0.456161099980818","0.503106000018306","0.569677399995271","1","1","1","1","1","1","1","1","1"
"250020","img/neutralC/CFD-AM-220-134-N.jpg","img/neutralC/CFD-MM-324-069-N.jpg","img/neutralC/CFD-WM-015-002-N.jpg","1","1","1","0","1","0","0.569677399995271","0.456161099980818","0.528588500019396","1","1","1","1","1","1","1","1","1"
"250020","img/neutralC/CFD-WM-015-002-N.jpg","img/neutralC/CFD-AM-220-134-N.jpg","img/neutralC/CFD-WM-209-038-N.jpg","1","1","1","0","0","0","0.528588500019396","0.569677399995271","0.465397399995709","1","1","1","1","1","1","1","1","1"
"250020","img/neutralC/CFD-WM-209-038-N.jpg","img/neutralC/CFD-WM-015-002-N.jpg","img/neutralC/CFD-IM-667-369-N.jpg","1","1","1","0","0","0","0.465397399995709","0.528588500019396","0.572667800006457","1","1","1","1","1","1","1","1","1"
"250020","img/neutralC/CFD-IM-667-369-N.jpg","img/neutralC/CFD-WM-209-038-N.jpg","img/neutralC/CFD-WF-030-002-N.jpg","1","1","1","0","0","0","0.572667800006457","0.465397399995709","2.55377299999236","1","1","1","1","1","1","1","1","1"
"250020","img/neutralC/CFD-WF-030-002-N.jpg","img/neutralC/CFD-IM-667-369-N.jpg","img/neutralC/CFD-MF-305-014-N.jpg","1","1","1","0","0","1","2.55377299999236","0.572667800006457","0.558218399994075","1","1","1","1","1","1","1","1","1"
"250020","img/neutralC/CFD-MF-305-014-N.jpg","img/neutralC/CFD-WF-030-002-N.jpg","img/neutralC/CFD-WF-244-163-N.jpg","1","1","1","1","0","1","0.558218399994075","2.55377299999236","0.535109699994791","1","1","1","1","1","1","1","1","1"
"250020","img/neutralC/CFD-WF-244-163-N.jpg","img/neutralC/CFD-MF-305-014-N.jpg","img/neutralC/CFD-BM-001-014-N.jpg","1","1","1","1","1","0","0.535109699994791","0.558218399994075","0.519848900003126","1","1","1","1","1","1","1","1","1"
"250020","img/neutralC/CFD-BM-001-014-N.jpg","img/neutralC/CFD-WF-244-163-N.jpg","img/neutralC/CFD-AF-233-190-N.jpg","1","1","1","0","1","0","0.519848900003126","0.535109699994791","0.585055300005479","1","1","1","1","1","1","1","1","1"
"250020","img/neutralC/CFD-AF-233-190-N.jpg","img/neutralC/CFD-BM-001-014-N.jpg","img/neutralC/CFD-BM-250-170-N.jpg","1","1","1","0","0","1","0.585055300005479","0.519848900003126","0.402737800002797","1","1","1","1","1","1","1","1","1"
"250020","img/neutralC/CFD-BM-250-170-N.jpg","img/neutralC/CFD-AF-233-190-N.jpg","img/neutralC/CFD-IM-680-369-N.jpg","1","1","1","1","0","1","0.402737800002797","0.585055300005479","0.470312799996464","1","1","1","1","1","1","1","1","1"
"250020","img/neutralC/CFD-IM-680-369-N.jpg","img/neutralC/CFD-BM-250-170-N.jpg","img/neutralC/CFD-IM-706-002-N.jpg","1","1","1","1","1","0","0.470312799996464","0.402737800002797","0.578500799980247","1","1","1","1","1","1","1","1","1"
"250020","img/neutralC/CFD-IM-706-002-N.jpg","img/neutralC/CFD-IM-680-369-N.jpg","img/neutralC/CFD-MF-303-013-N.jpg","1","1","1","0","1","0","0.578500799980247","0.470312799996464","0.599042599991662","1","1","1","1","1","1","1","1","1"
"250020","img/neutralC/CFD-MF-303-013-N.jpg","img/neutralC/CFD-IM-706-002-N.jpg","img/neutralC/CFD-IM-664-651-N.jpg","1","1","1","0","0","1","0.599042599991662","0.578500799980247","0.535654899984365","1","1","1","1","1","1","1","1","1"
"250020","img/neutralC/CFD-IM-664-651-N.jpg","img/neutralC/CFD-MF-303-013-N.jpg","img/neutralC/CFD-WF-007-001-N.jpg","1","1","1","1","0","1","0.535654899984365","0.599042599991662","0.532225100003416","1","1","1","1","1","1","1","1","1"
"250020","img/neutralC/CFD-WF-007-001-N.jpg","img/neutralC/CFD-IM-664-651-N.jpg","img/neutralC/CFD-LM-225-130-N.jpg","1","1","1","1","1","0","0.532225100003416","0.535654899984365","0.516032400017139","1","1","1","1","1","1","1","1","1"
"250020","img/neutralC/CFD-LM-225-130-N.jpg","img/neutralC/CFD-WF-007-001-N.jpg","img/neutralC/CFD-BF-237-172-N.jpg","1","1","1","0","1","1","0.516032400017139","0.532225100003416","0.591375099989818","1","1","1","1","1","1","1","1","1"
"250020","img/neutralC/CFD-BF-237-172-N.jpg","img/neutralC/CFD-LM-225-130-N.jpg","img/neutralC/CFD-LF-255-088-N.jpg","1","1","1","1","0","0","0.591375099989818","0.516032400017139","0.596406699973159","1","1","1","1","1","1","1","1","1"
"250020","img/neutralC/CFD-LF-255-088-N.jpg","img/neutralC/CFD-BF-237-172-N.jpg","img/neutralC/CFD-WM-218-074-N.jpg","1","1","1","0","1","1","0.596406699973159","0.591375099989818","0.48759710000013","1","1","1","1","1","1","1","1","1"
"250020","img/neutralC/CFD-WM-218-074-N.jpg","img/neutralC/CFD-LF-255-088-N.jpg","img/neutralC/CFD-WF-222-092-N.jpg","1","1","1","1","0","1","0.48759710000013","0.596406699973159","0.487626400019508","1","1","1","1","1","1","1","1","1"
"250020","img/neutralC/CFD-WF-222-092-N.jpg","img/neutralC/CFD-WM-218-074-N.jpg","img/neutralC/CFD-MF-357-002-N.jpg","1","1","1","1","1","0","0.487626400019508","0.48759710000013","0.583112099993741","1","1","1","1","1","1","1","1","1"
"250020","img/neutralC/CFD-MF-357-002-N.jpg","img/neutralC/CFD-WF-222-092-N.jpg","img/neutralC/CFD-LF-206-078-N.jpg","1","1","1","0","1","1","0.583112099993741","0.487626400019508","0.520291799999541","1","1","1","1","1","1","1","1","1"
"250020","img/neutralC/CFD-LF-206-078-N.jpg","img/neutralC/CFD-MF-357-002-N.jpg","img/neutralC/CFD-MF-316-001-N.jpg","1","1","1","1","0","0","0.520291799999541","0.583112099993741","0.608568299998296","1","1","1","1","1","1","1","1","1"
"250020","img/neutralC/CFD-MF-316-001-N.jpg","img/neutralC/CFD-LF-206-078-N.jpg","img/neutralC/CFD-BM-217-082-N.jpg","1","1","1","0","1","0","0.608568299998296","0.520291799999541","0.639085799979512","1","1","1","1","1","1","1","1","1"
"250020","img/neutralC/CFD-BM-217-082-N.jpg","img/neutralC/CFD-MF-316-001-N.jpg","img/neutralC/CFD-MF-343-001-N.jpg","1","1","1","0","0","1","0.639085799979512","0.608568299998296","0.530739600013476","1","1","1","1","1","1","1","1","1"
"250020","img/neutralC/CFD-MF-343-001-N.jpg","img/neutralC/CFD-BM-217-082-N.jpg",NA,"1","1",NA,"1","0",NA,"0.530739600013476","0.639085799979512",NA,"1","1",NA,"1","1",NA,"1","1",NA
"250020","img/neutralC/CFD-IM-675-015-N.jpg",NA,"img/neutralC/CFD-BM-039-029-N.jpg","1",NA,"1","1",NA,"1","0.604723399999784",NA,"0.543895800015889","1",NA,"1","1",NA,"1","1",NA,"1"
"250020","img/neutralC/CFD-BM-039-029-N.jpg","img/neutralC/CFD-IM-675-015-N.jpg","img/neutralC/CFD-IM-637-007-N.jpg","1","1","1","1","1","0","0.543895800015889","0.604723399999784","0.59940030000871","1","1","1","1","1","1","1","1","1"
"250020","img/neutralC/CFD-IM-637-007-N.jpg","img/neutralC/CFD-BM-039-029-N.jpg","img/neutralC/CFD-IM-685-004-N.jpg","1","1","1","0","1","1","0.59940030000871","0.543895800015889","0.53271789997234","1","1","1","1","1","1","1","1","1"
"250020","img/neutralC/CFD-IM-685-004-N.jpg","img/neutralC/CFD-IM-637-007-N.jpg","img/neutralC/CFD-MF-340-026-N.jpg","1","1","1","1","0","1","0.53271789997234","0.59940030000871","0.381873899983475","1","1","1","1","1","1","1","1","1"
"250020","img/neutralC/CFD-MF-340-026-N.jpg","img/neutralC/CFD-IM-685-004-N.jpg","img/neutralC/CFD-WF-217-085-N.jpg","1","1","1","1","1","1","0.381873899983475","0.53271789997234","0.410948300006567","1","1","1","1","1","1","1","1","1"
"250020","img/neutralC/CFD-WF-217-085-N.jpg","img/neutralC/CFD-MF-340-026-N.jpg","img/neutralC/CFD-IF-608-390-N.jpg","1","1","1","1","1","1","0.410948300006567","0.381873899983475","0.341199699993012","1","1","1","1","1","1","1","1","1"
"250020","img/neutralC/CFD-IF-608-390-N.jpg","img/neutralC/CFD-WF-217-085-N.jpg","img/neutralC/CFD-AF-254-167-N.jpg","1","1","1","1","1","1","0.341199699993012","0.410948300006567","0.442419400002109","1","1","1","1","1","1","1","1","1"
"250020","img/neutralC/CFD-AF-254-167-N.jpg","img/neutralC/CFD-IF-608-390-N.jpg","img/neutralC/CFD-MF-329-001-N.jpg","1","1","1","1","1","0","0.442419400002109","0.341199699993012","1.26128289999906","1","1","1","1","1","1","1","1","1"
"250020","img/neutralC/CFD-MF-329-001-N.jpg","img/neutralC/CFD-AF-254-167-N.jpg","img/neutralC/CFD-BM-243-218-N.jpg","1","1","1","0","1","1","1.26128289999906","0.442419400002109","0.515106899983948","1","1","1","1","1","1","1","1","1"
"250020","img/neutralC/CFD-BM-243-218-N.jpg","img/neutralC/CFD-MF-329-001-N.jpg","img/neutralC/CFD-WF-008-002-N.jpg","1","1","1","1","0","1","0.515106899983948","1.26128289999906","0.432915199984564","1","1","1","1","1","1","1","1","1"
"250020","img/neutralC/CFD-WF-008-002-N.jpg","img/neutralC/CFD-BM-243-218-N.jpg","img/neutralC/CFD-MF-300-002-N.jpg","1","1","1","1","1","0","0.432915199984564","0.515106899983948","0.473477499996079","1","1","1","1","1","1","1","1","1"
"250020","img/neutralC/CFD-MF-300-002-N.jpg","img/neutralC/CFD-WF-008-002-N.jpg","img/neutralC/CFD-IM-604-014-N.jpg","1","1","1","0","1","0","0.473477499996079","0.432915199984564","0.707429500005674","1","1","1","1","1","1","1","1","1"
"250020","img/neutralC/CFD-IM-604-014-N.jpg","img/neutralC/CFD-MF-300-002-N.jpg","img/neutralC/CFD-WF-212-050-N.jpg","1","1","1","0","0","0","0.707429500005674","0.473477499996079","2.39243989999522","1","1","1","1","1","1","1","1","1"
"250020","img/neutralC/CFD-WF-212-050-N.jpg","img/neutralC/CFD-IM-604-014-N.jpg","img/neutralC/CFD-MM-304-002-N.jpg","1","1","1","0","0","1","2.39243989999522","0.707429500005674","0.834560799994506","1","1","1","1","1","1","1","1","1"
"250020","img/neutralC/CFD-MM-304-002-N.jpg","img/neutralC/CFD-WF-212-050-N.jpg","img/neutralC/CFD-MF-327-002-N.jpg","1","1","1","1","0","0","0.834560799994506","2.39243989999522","0.623320700018667","1","1","1","1","1","1","1","1","1"
"250020","img/neutralC/CFD-MF-327-002-N.jpg","img/neutralC/CFD-MM-304-002-N.jpg","img/neutralC/CFD-IF-619-197-N.jpg","1","1","1","0","1","0","0.623320700018667","0.834560799994506","0.544971900002565","1","1","1","1","1","1","1","1","1"
"250020","img/neutralC/CFD-IF-619-197-N.jpg","img/neutralC/CFD-MF-327-002-N.jpg","img/neutralC/CFD-AF-229-160-N.jpg","1","1","1","0","0","0","0.544971900002565","0.623320700018667","0.548652900004527","1","1","1","1","1","1","1","1","1"
"250020","img/neutralC/CFD-AF-229-160-N.jpg","img/neutralC/CFD-IF-619-197-N.jpg","img/neutralC/CFD-WF-248-129-N.jpg","1","1","1","0","0","0","0.548652900004527","0.544971900002565","0.614994599978672","1","1","1","1","1","1","1","1","1"
"250020","img/neutralC/CFD-WF-248-129-N.jpg","img/neutralC/CFD-AF-229-160-N.jpg","img/neutralC/CFD-BF-224-002-N.jpg","1","1","1","0","0","1","0.614994599978672","0.548652900004527","0.462197000015294","1","1","1","1","1","1","1","1","1"
"250020","img/neutralC/CFD-BF-224-002-N.jpg","img/neutralC/CFD-WF-248-129-N.jpg","img/neutralC/CFD-IM-709-103-N.jpg","1","1","1","1","0","0","0.462197000015294","0.614994599978672","0.555494700005511","1","1","1","1","1","1","1","1","1"
"250020","img/neutralC/CFD-IM-709-103-N.jpg","img/neutralC/CFD-BF-224-002-N.jpg","img/neutralC/CFD-LF-226-174-N.jpg","1","1","1","0","1","0","0.555494700005511","0.462197000015294","0.597736799973063","1","1","1","1","1","1","1","1","1"
"250020","img/neutralC/CFD-LF-226-174-N.jpg","img/neutralC/CFD-IM-709-103-N.jpg","img/neutralC/CFD-WM-213-076-N.jpg","1","1","1","0","0","1","0.597736799973063","0.555494700005511","0.733665199979441","1","1","1","1","1","1","1","1","1"
"250020","img/neutralC/CFD-WM-213-076-N.jpg","img/neutralC/CFD-LF-226-174-N.jpg","img/neutralC/CFD-WM-232-070-N.jpg","1","1","1","1","0","0","0.733665199979441","0.597736799973063","0.713959699991392","1","1","1","1","1","1","1","1","1"
"250020","img/neutralC/CFD-WM-232-070-N.jpg","img/neutralC/CFD-WM-213-076-N.jpg","img/neutralC/CFD-AM-236-090-N.jpg","1","1","1","0","1","1","0.713959699991392","0.733665199979441","0.545493300014641","1","1","1","1","1","1","1","1","1"
"250020","img/neutralC/CFD-AM-236-090-N.jpg","img/neutralC/CFD-WM-232-070-N.jpg","img/neutralC/CFD-BF-043-003-N.jpg","1","1","1","1","0","0","0.545493300014641","0.713959699991392","0.54059839999536","1","1","1","1","1","1","1","1","1"
"250020","img/neutralC/CFD-BF-043-003-N.jpg","img/neutralC/CFD-AM-236-090-N.jpg","img/neutralC/CFD-AF-215-70-N.jpg","1","1","1","0","1","0","0.54059839999536","0.545493300014641","0.767573899996933","1","1","1","1","1","1","1","1","1"
"250020","img/neutralC/CFD-AF-215-70-N.jpg","img/neutralC/CFD-BF-043-003-N.jpg","img/neutralC/CFD-BF-051-035-N.jpg","1","1","1","0","0","0","0.767573899996933","0.54059839999536","0.528188500000397","1","1","1","1","1","1","1","1","1"
"250020","img/neutralC/CFD-BF-051-035-N.jpg","img/neutralC/CFD-AF-215-70-N.jpg","img/neutralC/CFD-LM-217-162-N.jpg","1","1","1","0","0","0","0.528188500000397","0.767573899996933","0.578122399980202","1","1","1","1","1","1","1","1","1"
"250020","img/neutralC/CFD-LM-217-162-N.jpg","img/neutralC/CFD-BF-051-035-N.jpg","img/neutralC/CFD-LF-201-035-N.jpg","1","1","1","0","0","1","0.578122399980202","0.528188500000397","0.489674500015099","1","1","1","1","1","1","1","1","1"
"250020","img/neutralC/CFD-LF-201-035-N.jpg","img/neutralC/CFD-LM-217-162-N.jpg","img/neutralC/CFD-WM-024-015-N.jpg","1","1","1","1","0","1","0.489674500015099","0.578122399980202","0.434512099978747","1","1","1","1","1","1","1","1","1"
"250020","img/neutralC/CFD-WM-024-015-N.jpg","img/neutralC/CFD-LF-201-035-N.jpg","img/neutralC/CFD-WF-012-002-N.jpg","1","1","1","1","1","1","0.434512099978747","0.489674500015099","0.671913199999835","1","1","1","1","1","1","1","1","1"
"250020","img/neutralC/CFD-WF-012-002-N.jpg","img/neutralC/CFD-WM-024-015-N.jpg",NA,"1","1",NA,"1","1",NA,"0.671913199999835","0.434512099978747",NA,"1","1",NA,"1","1",NA,"1","1",NA
"250020","img/neutralC/CFD-IF-672-305-N.jpg",NA,"img/neutralC/CFD-AM-217-085-N.jpg","0",NA,"1","0",NA,"0","2.50169160001678",NA,"0.497328500001459","1",NA,"1","1",NA,"1","1",NA,"1"
"250020","img/neutralC/CFD-AM-217-085-N.jpg","img/neutralC/CFD-IF-672-305-N.jpg","img/neutralC/CFD-WM-002-009-N.jpg","1","0","1","0","0","0","0.497328500001459","2.50169160001678","0.534547200019006","1","1","1","1","1","1","1","1","1"
"250020","img/neutralC/CFD-WM-002-009-N.jpg","img/neutralC/CFD-AM-217-085-N.jpg","img/neutralC/CFD-BF-028-001-N.jpg","1","1","1","0","0","1","0.534547200019006","0.497328500001459","0.456156900007045","1","1","1","1","1","1","1","1","1"
"250020","img/neutralC/CFD-BF-028-001-N.jpg","img/neutralC/CFD-WM-002-009-N.jpg","img/neutralC/CFD-BM-015-015-N.jpg","1","1","1","1","0","0","0.456156900007045","0.534547200019006","0.454595199989853","1","1","1","1","1","1","1","1","1"
"250020","img/neutralC/CFD-BM-015-015-N.jpg","img/neutralC/CFD-BF-028-001-N.jpg","img/neutralC/CFD-BF-201-080-N.jpg","1","1","1","0","1","1","0.454595199989853","0.456156900007045","0.671909600001527","1","1","1","1","1","1","1","1","1"
"250020","img/neutralC/CFD-BF-201-080-N.jpg","img/neutralC/CFD-BM-015-015-N.jpg","img/neutralC/CFD-BF-255-140-N.jpg","1","1","1","1","0","1","0.671909600001527","0.454595199989853","0.503906400001142","1","1","1","1","1","1","1","1","1"
"250020","img/neutralC/CFD-BF-255-140-N.jpg","img/neutralC/CFD-BF-201-080-N.jpg","img/neutralC/CFD-WM-257-161-N.jpg","1","1","1","1","1","1","0.503906400001142","0.671909600001527","0.494092699984321","1","1","1","1","1","1","1","1","1"
"250020","img/neutralC/CFD-WM-257-161-N.jpg","img/neutralC/CFD-BF-255-140-N.jpg","img/neutralC/CFD-BF-204-189-N.jpg","1","1","1","1","1","1","0.494092699984321","0.503906400001142","0.542070199997397","1","1","1","1","1","1","1","1","1"
"250020","img/neutralC/CFD-BF-204-189-N.jpg","img/neutralC/CFD-WM-257-161-N.jpg","img/neutralC/CFD-IF-718-001-N.jpg","1","1","1","1","1","1","0.542070199997397","0.494092699984321","0.479282799991779","1","1","1","1","1","1","1","1","1"
"250020","img/neutralC/CFD-IF-718-001-N.jpg","img/neutralC/CFD-BF-204-189-N.jpg","img/neutralC/CFD-BF-003-003-N.jpg","1","1","1","1","1","0","0.479282799991779","0.542070199997397","0.552425000001676","1","1","1","1","1","1","1","1","1"
"250020","img/neutralC/CFD-BF-003-003-N.jpg","img/neutralC/CFD-IF-718-001-N.jpg","img/neutralC/CFD-MM-319-052-N.jpg","1","1","1","0","1","1","0.552425000001676","0.479282799991779","0.491701199993258","1","1","1","1","1","1","1","1","1"
"250020","img/neutralC/CFD-MM-319-052-N.jpg","img/neutralC/CFD-BF-003-003-N.jpg","img/neutralC/CFD-LF-236-221-N.jpg","1","1","1","1","0","1","0.491701199993258","0.552425000001676","0.426696899987292","1","1","1","1","1","1","1","1","1"
"250020","img/neutralC/CFD-LF-236-221-N.jpg","img/neutralC/CFD-MM-319-052-N.jpg","img/neutralC/CFD-WF-022-017-N.jpg","1","1","1","1","1","0","0.426696899987292","0.491701199993258","0.577443700021831","1","1","1","1","1","1","1","1","1"
"250020","img/neutralC/CFD-WF-022-017-N.jpg","img/neutralC/CFD-LF-236-221-N.jpg","img/neutralC/CFD-LF-216-121-N.jpg","1","1","1","0","1","1","0.577443700021831","0.426696899987292","0.50346669999999","1","1","1","1","1","1","1","1","1"
"250020","img/neutralC/CFD-LF-216-121-N.jpg","img/neutralC/CFD-WF-022-017-N.jpg","img/neutralC/CFD-IM-728-041-N.jpg","1","1","1","1","0","0","0.50346669999999","0.577443700021831","0.55291140000918","1","1","1","1","1","1","1","1","1"
"250020","img/neutralC/CFD-IM-728-041-N.jpg","img/neutralC/CFD-LF-216-121-N.jpg","img/neutralC/CFD-WF-002-004-N.jpg","1","1","1","0","1","0","0.55291140000918","0.50346669999999","0.67566059998353","1","1","1","1","1","1","1","1","1"
"250020","img/neutralC/CFD-WF-002-004-N.jpg","img/neutralC/CFD-IM-728-041-N.jpg","img/neutralC/CFD-BM-029-024-N.jpg","1","1","1","0","0","1","0.67566059998353","0.55291140000918","0.502085800020723","1","1","1","1","1","1","1","1","1"
"250020","img/neutralC/CFD-BM-029-024-N.jpg","img/neutralC/CFD-WF-002-004-N.jpg","img/neutralC/CFD-BF-208-266-N.jpg","1","1","1","1","0","0","0.502085800020723","0.67566059998353","0.640290800016373","1","1","1","1","1","1","1","1","1"
"250020","img/neutralC/CFD-BF-208-266-N.jpg","img/neutralC/CFD-BM-029-024-N.jpg","img/neutralC/CFD-BM-247-240-N.jpg","1","1","1","0","1","0","0.640290800016373","0.502085800020723","0.477617500000633","1","1","1","1","1","1","1","1","1"
"250020","img/neutralC/CFD-BM-247-240-N.jpg","img/neutralC/CFD-BF-208-266-N.jpg","img/neutralC/CFD-BM-211-174-N.jpg","1","1","1","0","0","0","0.477617500000633","0.640290800016373","0.43531990001793","1","1","1","1","1","1","1","1","1"
"250020","img/neutralC/CFD-BM-211-174-N.jpg","img/neutralC/CFD-BM-247-240-N.jpg","img/neutralC/CFD-WM-040-022-N.jpg","1","1","1","0","0","0","0.43531990001793","0.477617500000633","0.578086399997119","1","1","1","1","1","1","1","1","1"
"250020","img/neutralC/CFD-WM-040-022-N.jpg","img/neutralC/CFD-BM-211-174-N.jpg","img/neutralC/CFD-LM-252-076-N.jpg","1","1","1","0","0","1","0.578086399997119","0.43531990001793","0.423700899991672","1","1","1","1","1","1","1","1","1"
"250020","img/neutralC/CFD-LM-252-076-N.jpg","img/neutralC/CFD-WM-040-022-N.jpg","img/neutralC/CFD-BM-027-001-N.jpg","1","1","1","1","0","0","0.423700899991672","0.578086399997119","0.483753600012278","1","1","1","1","1","1","1","1","1"
"250020","img/neutralC/CFD-BM-027-001-N.jpg","img/neutralC/CFD-LM-252-076-N.jpg","img/neutralC/CFD-BF-023-010-N.jpg","1","1","1","0","1","1","0.483753600012278","0.423700899991672","0.533082999987528","1","1","1","1","1","1","1","1","1"
"250020","img/neutralC/CFD-BF-023-010-N.jpg","img/neutralC/CFD-BM-027-001-N.jpg","img/neutralC/CFD-WM-225-127-N.jpg","1","1","1","1","0","0","0.533082999987528","0.483753600012278","0.529446599975927","1","1","1","1","1","1","1","1","1"
"250020","img/neutralC/CFD-WM-225-127-N.jpg","img/neutralC/CFD-BF-023-010-N.jpg","img/neutralC/CFD-AM-215-120-N.jpg","1","1","1","0","1","1","0.529446599975927","0.533082999987528","0.507396100001642","1","1","1","1","1","1","1","1","1"
"250020","img/neutralC/CFD-AM-215-120-N.jpg","img/neutralC/CFD-WM-225-127-N.jpg","img/neutralC/CFD-AM-235-241-N.jpg","1","1","1","1","0","0","0.507396100001642","0.529446599975927","0.480700199987041","1","1","1","1","1","1","1","1","1"
"250020","img/neutralC/CFD-AM-235-241-N.jpg","img/neutralC/CFD-AM-215-120-N.jpg","img/neutralC/CFD-WM-038-003-N.jpg","1","1","1","0","1","0","0.480700199987041","0.507396100001642","0.52803629997652","1","1","1","1","1","1","1","1","1"
"250020","img/neutralC/CFD-WM-038-003-N.jpg","img/neutralC/CFD-AM-235-241-N.jpg","img/neutralC/CFD-IM-639-263-N.jpg","1","1","1","0","0","1","0.52803629997652","0.480700199987041","0.455848899990087","1","1","1","1","1","1","1","1","1"
"250020","img/neutralC/CFD-IM-639-263-N.jpg","img/neutralC/CFD-WM-038-003-N.jpg","img/neutralC/CFD-IM-674-281-N.jpg","1","1","1","1","0","1","0.455848899990087","0.52803629997652","0.546005300013348","1","1","1","1","1","1","1","1","1"
"250020","img/neutralC/CFD-IM-674-281-N.jpg","img/neutralC/CFD-IM-639-263-N.jpg","img/neutralC/CFD-WF-026-002-N.jpg","1","1","1","1","1","1","0.546005300013348","0.455848899990087","0.544017300009727","1","1","1","1","1","1","1","1","1"
"250020","img/neutralC/CFD-WF-026-002-N.jpg","img/neutralC/CFD-IM-674-281-N.jpg",NA,"1","1",NA,"1","1",NA,"0.544017300009727","0.546005300013348",NA,"1","1",NA,"1","1",NA,"1","1",NA
"250020","img/neutralC/CFD-AM-211-052-N.jpg",NA,"img/neutralC/CFD-BF-232-187-N.jpg","1",NA,"1","1",NA,"1","0.548500600008992",NA,"0.42913239999325","1",NA,"1","1",NA,"1","1",NA,"1"
"250020","img/neutralC/CFD-BF-232-187-N.jpg","img/neutralC/CFD-AM-211-052-N.jpg","img/neutralC/CFD-MF-333-012-N.jpg","1","1","1","1","1","0","0.42913239999325","0.548500600008992","0.510500600008527","1","1","1","1","1","1","1","1","1"
"250020","img/neutralC/CFD-MF-333-012-N.jpg","img/neutralC/CFD-BF-232-187-N.jpg","img/neutralC/CFD-IM-616-214-N.jpg","1","1","1","0","1","0","0.510500600008527","0.42913239999325","0.488376299996162","1","1","1","1","1","1","1","1","1"
"250020","img/neutralC/CFD-IM-616-214-N.jpg","img/neutralC/CFD-MF-333-012-N.jpg","img/neutralC/CFD-WM-219-008-N.jpg","1","1","1","0","0","0","0.488376299996162","0.510500600008527","0.512928000011016","1","1","1","1","1","1","1","1","1"
"250020","img/neutralC/CFD-WM-219-008-N.jpg","img/neutralC/CFD-IM-616-214-N.jpg","img/neutralC/CFD-BF-038-037-N.jpg","1","1","1","0","0","1","0.512928000011016","0.488376299996162","0.435718499997165","1","1","1","1","1","1","1","1","1"
"250020","img/neutralC/CFD-BF-038-037-N.jpg","img/neutralC/CFD-WM-219-008-N.jpg","img/neutralC/CFD-WF-036-023-N.jpg","1","1","1","1","0","0","0.435718499997165","0.512928000011016","0.477888900000835","1","1","1","1","1","1","1","1","1"
"250020","img/neutralC/CFD-WF-036-023-N.jpg","img/neutralC/CFD-BF-038-037-N.jpg","img/neutralC/CFD-WF-001-003-N.jpg","1","1","1","0","1","1","0.477888900000835","0.435718499997165","0.445742699987022","1","1","1","1","1","1","1","1","1"
"250020","img/neutralC/CFD-WF-001-003-N.jpg","img/neutralC/CFD-WF-036-023-N.jpg","img/neutralC/CFD-LF-220-120-N.jpg","1","1","1","1","0","1","0.445742699987022","0.477888900000835","0.401497000013478","1","1","1","1","1","1","1","1","1"
"250020","img/neutralC/CFD-LF-220-120-N.jpg","img/neutralC/CFD-WF-001-003-N.jpg","img/neutralC/CFD-MF-352-054-N.jpg","1","1","1","1","1","0","0.401497000013478","0.445742699987022","0.428521800000453","1","1","1","1","1","1","1","1","1"
"250020","img/neutralC/CFD-MF-352-054-N.jpg","img/neutralC/CFD-LF-220-120-N.jpg","img/neutralC/CFD-WM-033-025-N.jpg","1","1","1","0","1","1","0.428521800000453","0.401497000013478","0.381609000003664","1","1","1","1","1","1","1","1","1"
"250020","img/neutralC/CFD-WM-033-025-N.jpg","img/neutralC/CFD-MF-352-054-N.jpg","img/neutralC/CFD-IM-671-601-N.jpg","1","1","1","1","0","0","0.381609000003664","0.428521800000453","0.578170599997975","1","1","1","1","1","1","1","1","1"
"250020","img/neutralC/CFD-IM-671-601-N.jpg","img/neutralC/CFD-WM-033-025-N.jpg","img/neutralC/CFD-AM-242-176-N.jpg","1","1","1","0","1","1","0.578170599997975","0.381609000003664","0.374583999975585","1","1","1","1","1","1","1","1","1"
"250020","img/neutralC/CFD-AM-242-176-N.jpg","img/neutralC/CFD-IM-671-601-N.jpg","img/neutralC/CFD-AM-251-124-N.jpg","1","1","1","1","0","0","0.374583999975585","0.578170599997975","0.506679100013571","1","1","1","1","1","1","1","1","1"
"250020","img/neutralC/CFD-AM-251-124-N.jpg","img/neutralC/CFD-AM-242-176-N.jpg","img/neutralC/CFD-MF-359-019-N.jpg","1","1","1","0","1","0","0.506679100013571","0.374583999975585","0.896116999996593","1","1","1","1","1","1","1","1","1"
"250020","img/neutralC/CFD-MF-359-019-N.jpg","img/neutralC/CFD-AM-251-124-N.jpg","img/neutralC/CFD-WM-004-010-N.jpg","1","1","1","0","0","0","0.896116999996593","0.506679100013571","0.513833300006809","1","1","1","1","1","1","1","1","1"
"250020","img/neutralC/CFD-WM-004-010-N.jpg","img/neutralC/CFD-MF-359-019-N.jpg","img/neutralC/CFD-IM-743-006-N.jpg","1","1","1","0","0","1","0.513833300006809","0.896116999996593","0.382289700006368","1","1","1","1","1","1","1","1","1"
"250020","img/neutralC/CFD-IM-743-006-N.jpg","img/neutralC/CFD-WM-004-010-N.jpg","img/neutralC/CFD-BF-226-119-N.jpg","1","1","1","1","0","1","0.382289700006368","0.513833300006809","0.456797699996969","1","1","1","1","1","1","1","1","1"
"250020","img/neutralC/CFD-BF-226-119-N.jpg","img/neutralC/CFD-IM-743-006-N.jpg","img/neutralC/CFD-IM-645-001-N.jpg","1","1","1","1","1","0","0.456797699996969","0.382289700006368","0.435118900000816","1","1","1","1","1","1","1","1","1"
"250020","img/neutralC/CFD-IM-645-001-N.jpg","img/neutralC/CFD-BF-226-119-N.jpg","img/neutralC/CFD-IF-623-129-N.jpg","1","1","1","0","1","1","0.435118900000816","0.456797699996969","0.391446599998744","1","1","1","1","1","1","1","1","1"
"250020","img/neutralC/CFD-IF-623-129-N.jpg","img/neutralC/CFD-IM-645-001-N.jpg","img/neutralC/CFD-BM-253-004-N.jpg","1","1","1","1","0","1","0.391446599998744","0.435118900000816","0.490460399974836","1","1","1","1","1","1","1","1","1"
"250020","img/neutralC/CFD-BM-253-004-N.jpg","img/neutralC/CFD-IF-623-129-N.jpg","img/neutralC/CFD-WM-235-147-N.jpg","1","1","1","1","1","0","0.490460399974836","0.391446599998744","0.601680199994007","1","1","1","1","1","1","1","1","1"
"250020","img/neutralC/CFD-WM-235-147-N.jpg","img/neutralC/CFD-BM-253-004-N.jpg","img/neutralC/CFD-LF-218-072-N.jpg","1","1","1","0","1","0","0.601680199994007","0.490460399974836","0.625717699993402","1","1","1","1","1","1","1","1","1"
"250020","img/neutralC/CFD-LF-218-072-N.jpg","img/neutralC/CFD-WM-235-147-N.jpg","img/neutralC/CFD-IM-703-182-N.jpg","1","1","1","0","0","1","0.625717699993402","0.601680199994007","0.661917899997206","1","1","1","1","1","1","1","1","1"
"250020","img/neutralC/CFD-IM-703-182-N.jpg","img/neutralC/CFD-LF-218-072-N.jpg","img/neutralC/CFD-BM-225-154-N.jpg","1","1","1","1","0","1","0.661917899997206","0.625717699993402","0.389266399986809","1","1","1","1","1","1","1","1","1"
"250020","img/neutralC/CFD-BM-225-154-N.jpg","img/neutralC/CFD-IM-703-182-N.jpg","img/neutralC/CFD-WF-200-099-N.jpg","1","1","0","1","1","0","0.389266399986809","0.661917899997206","0.385746899992228","1","1","1","1","1","1","1","1","2"
"250020","img/neutralC/CFD-WF-200-099-N.jpg","img/neutralC/CFD-BM-225-154-N.jpg","img/neutralC/CFD-WF-214-122-N.jpg","0","1","1","0","1","1","0.385746899992228","0.389266399986809","0.683554999995977","1","1","1","1","1","1","2","1","1"
"250020","img/neutralC/CFD-WF-214-122-N.jpg","img/neutralC/CFD-WF-200-099-N.jpg","img/neutralC/CFD-IF-650-315-N.jpg","1","0","1","1","0","0","0.683554999995977","0.385746899992228","0.62169480000739","1","1","1","1","1","1","1","2","1"
"250020","img/neutralC/CFD-IF-650-315-N.jpg","img/neutralC/CFD-WF-214-122-N.jpg","img/neutralC/CFD-LM-237-264-N.jpg","1","1","1","0","1","0","0.62169480000739","0.683554999995977","0.545876499993028","1","1","1","1","1","1","1","1","1"
"250020","img/neutralC/CFD-LM-237-264-N.jpg","img/neutralC/CFD-IF-650-315-N.jpg","img/neutralC/CFD-LM-228-188-N.jpg","1","1","1","0","0","1","0.545876499993028","0.62169480000739","0.522892800014233","1","1","1","1","1","1","1","1","1"
"250020","img/neutralC/CFD-LM-228-188-N.jpg","img/neutralC/CFD-LM-237-264-N.jpg","img/neutralC/CFD-WM-020-001-N.jpg","1","1","1","1","0","1","0.522892800014233","0.545876499993028","0.569772799994098","1","1","1","1","1","1","1","1","1"
"250020","img/neutralC/CFD-WM-020-001-N.jpg","img/neutralC/CFD-LM-228-188-N.jpg","img/neutralC/CFD-BF-229-179-N.jpg","1","1","1","1","1","0","0.569772799994098","0.522892800014233","0.672203099995386","1","1","1","1","1","1","1","1","1"
"250020","img/neutralC/CFD-BF-229-179-N.jpg","img/neutralC/CFD-WM-020-001-N.jpg",NA,"1","1",NA,"0","1",NA,"0.672203099995386","0.569772799994098",NA,"1","1",NA,"1","1",NA,"1","1",NA
"250020","img/neutralC/CFD-AF-221-147-N.jpg",NA,"img/neutralC/CFD-LF-211-003-N.jpg","0",NA,"1","0",NA,"0","1.27789699999266",NA,"0.529470000008587","1",NA,"1","1",NA,"1","1",NA,"1"
"250020","img/neutralC/CFD-LF-211-003-N.jpg","img/neutralC/CFD-AF-221-147-N.jpg","img/neutralC/CFD-IM-627-178-N.jpg","1","0","1","0","0","1","0.529470000008587","1.27789699999266","0.437820099992678","1","1","1","1","1","1","1","1","1"
"250020","img/neutralC/CFD-IM-627-178-N.jpg","img/neutralC/CFD-LF-211-003-N.jpg","img/neutralC/CFD-WF-018-017-N.jpg","1","1","1","1","0","1","0.437820099992678","0.529470000008587","0.419988499983447","1","1","1","1","1","1","1","1","1"
"250020","img/neutralC/CFD-WF-018-017-N.jpg","img/neutralC/CFD-IM-627-178-N.jpg","img/neutralC/CFD-WM-237-052-N.jpg","1","1","1","1","1","1","0.419988499983447","0.437820099992678","0.417429399996763","1","1","1","1","1","1","1","1","1"
"250020","img/neutralC/CFD-WM-237-052-N.jpg","img/neutralC/CFD-WF-018-017-N.jpg","img/neutralC/CFD-BM-200-046-N.jpg","1","1","1","1","1","0","0.417429399996763","0.419988499983447","0.609052900021197","1","1","1","1","1","1","1","1","1"
"250020","img/neutralC/CFD-BM-200-046-N.jpg","img/neutralC/CFD-WM-237-052-N.jpg","img/neutralC/CFD-LF-215-157-N.jpg","1","1","1","0","1","0","0.609052900021197","0.417429399996763","0.549860900006024","1","1","1","1","1","1","1","1","1"
"250020","img/neutralC/CFD-LF-215-157-N.jpg","img/neutralC/CFD-BM-200-046-N.jpg","img/neutralC/CFD-WM-013-001-N.jpg","1","1","1","0","0","1","0.549860900006024","0.609052900021197","0.426790199999232","1","1","1","1","1","1","1","1","1"
"250020","img/neutralC/CFD-WM-013-001-N.jpg","img/neutralC/CFD-LF-215-157-N.jpg","img/neutralC/CFD-MF-342-022-N.jpg","1","1","1","1","0","1","0.426790199999232","0.549860900006024","0.506697999982862","1","1","1","1","1","1","1","1","1"
"250020","img/neutralC/CFD-MF-342-022-N.jpg","img/neutralC/CFD-WM-013-001-N.jpg","img/neutralC/CFD-WM-201-063-N.jpg","1","1","1","1","1","1","0.506697999982862","0.426790199999232","0.497024099982809","1","1","1","1","1","1","1","1","1"
"250020","img/neutralC/CFD-WM-201-063-N.jpg","img/neutralC/CFD-MF-342-022-N.jpg","img/neutralC/CFD-IF-629-234-N.jpg","1","1","1","1","1","0","0.497024099982809","0.506697999982862","0.480095900013112","1","1","1","1","1","1","1","1","1"
"250020","img/neutralC/CFD-IF-629-234-N.jpg","img/neutralC/CFD-WM-201-063-N.jpg","img/neutralC/CFD-LM-253-075-N.jpg","1","1","1","0","1","0","0.480095900013112","0.497024099982809","0.452053500019247","1","1","1","1","1","1","1","1","1"
"250020","img/neutralC/CFD-LM-253-075-N.jpg","img/neutralC/CFD-IF-629-234-N.jpg","img/neutralC/CFD-WM-221-091-N.jpg","1","1","1","0","0","0","0.452053500019247","0.480095900013112","0.519431399996392","1","1","1","1","1","1","1","1","1"
"250020","img/neutralC/CFD-WM-221-091-N.jpg","img/neutralC/CFD-LM-253-075-N.jpg","img/neutralC/CFD-WM-009-002-N.jpg","1","1","1","0","0","0","0.519431399996392","0.452053500019247","0.510148400004255","1","1","1","1","1","1","1","1","1"
"250020","img/neutralC/CFD-WM-009-002-N.jpg","img/neutralC/CFD-WM-221-091-N.jpg","img/neutralC/CFD-AM-244-222-N.jpg","1","1","1","0","0","0","0.510148400004255","0.519431399996392","0.624770999973407","1","1","1","1","1","1","1","1","1"
"250020","img/neutralC/CFD-AM-244-222-N.jpg","img/neutralC/CFD-WM-009-002-N.jpg","img/neutralC/CFD-IM-719-221-N.jpg","1","1","1","0","0","0","0.624770999973407","0.510148400004255","0.506675099983113","1","1","1","1","1","1","1","1","1"
"250020","img/neutralC/CFD-IM-719-221-N.jpg","img/neutralC/CFD-AM-244-222-N.jpg","img/neutralC/CFD-WM-255-219-N.jpg","1","1","1","0","0","0","0.506675099983113","0.624770999973407","0.529350099997828","1","1","1","1","1","1","1","1","1"
"250020","img/neutralC/CFD-WM-255-219-N.jpg","img/neutralC/CFD-IM-719-221-N.jpg","img/neutralC/CFD-WF-027-003-N.jpg","1","1","1","0","0","1","0.529350099997828","0.506675099983113","0.474602400005097","1","1","1","1","1","1","1","1","1"
"250020","img/neutralC/CFD-WF-027-003-N.jpg","img/neutralC/CFD-WM-255-219-N.jpg","img/neutralC/CFD-BM-204-003-N.jpg","1","1","1","1","0","0","0.474602400005097","0.529350099997828","0.520052000007126","1","1","1","1","1","1","1","1","1"
"250020","img/neutralC/CFD-BM-204-003-N.jpg","img/neutralC/CFD-WF-027-003-N.jpg","img/neutralC/CFD-WF-226-095-N.jpg","1","1","1","0","1","1","0.520052000007126","0.474602400005097","0.531468400004087","1","1","1","1","1","1","1","1","1"
"250020","img/neutralC/CFD-WF-226-095-N.jpg","img/neutralC/CFD-BM-204-003-N.jpg","img/neutralC/CFD-BF-254-201-N.jpg","1","1","1","1","0","0","0.531468400004087","0.520052000007126","1.42245240000193","1","1","1","1","1","1","1","1","1"
"250020","img/neutralC/CFD-BF-254-201-N.jpg","img/neutralC/CFD-WF-226-095-N.jpg","img/neutralC/CFD-WF-245-084-N.jpg","1","1","1","0","1","1","1.42245240000193","0.531468400004087","0.51985660000355","1","1","1","1","1","1","1","1","1"
"250020","img/neutralC/CFD-WF-245-084-N.jpg","img/neutralC/CFD-BF-254-201-N.jpg","img/neutralC/CFD-BF-018-039-N.jpg","1","1","1","1","0","1","0.51985660000355","1.42245240000193","0.525495200010482","1","1","1","1","1","1","1","1","1"
"250020","img/neutralC/CFD-BF-018-039-N.jpg","img/neutralC/CFD-WF-245-084-N.jpg","img/neutralC/CFD-MF-321-003-N.jpg","1","1","1","1","1","0","0.525495200010482","0.51985660000355","0.492368000006536","1","1","1","1","1","1","1","1","1"
"250020","img/neutralC/CFD-MF-321-003-N.jpg","img/neutralC/CFD-BF-018-039-N.jpg","img/neutralC/CFD-AF-232-078-N.jpg","1","1","1","0","1","1","0.492368000006536","0.525495200010482","0.555925600026967","1","1","1","1","1","1","1","1","1"
"250020","img/neutralC/CFD-AF-232-078-N.jpg","img/neutralC/CFD-MF-321-003-N.jpg","img/neutralC/CFD-MM-321-021-N.jpg","1","1","1","1","0","0","0.555925600026967","0.492368000006536","0.611220599996159","1","1","1","1","1","1","1","1","1"
"250020","img/neutralC/CFD-MM-321-021-N.jpg","img/neutralC/CFD-AF-232-078-N.jpg","img/neutralC/CFD-BM-023-029-N.jpg","1","1","1","0","1","1","0.611220599996159","0.555925600026967","0.451507699996","1","1","1","1","1","1","1","1","1"
"250020","img/neutralC/CFD-BM-023-029-N.jpg","img/neutralC/CFD-MM-321-021-N.jpg","img/neutralC/CFD-IM-700-009-N.jpg","1","1","1","1","0","1","0.451507699996","0.611220599996159","0.496685699996306","1","1","1","1","1","1","1","1","1"
"250020","img/neutralC/CFD-IM-700-009-N.jpg","img/neutralC/CFD-BM-023-029-N.jpg","img/neutralC/CFD-WF-023-003-N.jpg","1","1","1","1","1","1","0.496685699996306","0.451507699996","0.457276600005571","1","1","1","1","1","1","1","1","1"
"250020","img/neutralC/CFD-WF-023-003-N.jpg","img/neutralC/CFD-IM-700-009-N.jpg","img/neutralC/CFD-MF-318-022-N.jpg","1","1","1","1","1","1","0.457276600005571","0.496685699996306","0.498994299996411","1","1","1","1","1","1","1","1","1"
"250020","img/neutralC/CFD-MF-318-022-N.jpg","img/neutralC/CFD-WF-023-003-N.jpg","img/neutralC/CFD-WF-238-023-N.jpg","1","1","1","1","1","0","0.498994299996411","0.457276600005571","1.2177111999772","1","1","1","1","1","1","1","1","1"
"250020","img/neutralC/CFD-WF-238-023-N.jpg","img/neutralC/CFD-MF-318-022-N.jpg","img/neutralC/CFD-BF-218-207-N.jpg","1","1","1","0","1","1","1.2177111999772","0.498994299996411","0.526160699984757","1","1","1","1","1","1","1","1","1"
"250020","img/neutralC/CFD-BF-218-207-N.jpg","img/neutralC/CFD-WF-238-023-N.jpg",NA,"1","1",NA,"1","0",NA,"0.526160699984757","1.2177111999772",NA,"1","1",NA,"1","1",NA,"1","1",NA
"250020","img/neutralC/CFD-BF-040-003-N.jpg",NA,"img/neutralC/CFD-AF-234-208-N.jpg","1",NA,"1","1",NA,"1","1.01403039999423",NA,"0.615057900024112","1",NA,"1","1",NA,"1","1",NA,"1"
"250020","img/neutralC/CFD-AF-234-208-N.jpg","img/neutralC/CFD-BF-040-003-N.jpg","img/neutralC/CFD-WM-253-119-N.jpg","1","1","1","1","1","1","0.615057900024112","1.01403039999423","0.472292799997376","1","1","1","1","1","1","1","1","1"
"250020","img/neutralC/CFD-WM-253-119-N.jpg","img/neutralC/CFD-AF-234-208-N.jpg","img/neutralC/CFD-BM-215-155-N.jpg","1","1","1","1","1","0","0.472292799997376","0.615057900024112","0.534556099999463","1","1","1","1","1","1","1","1","1"
"250020","img/neutralC/CFD-BM-215-155-N.jpg","img/neutralC/CFD-WM-253-119-N.jpg","img/neutralC/CFD-AF-205-155-N.jpg","1","1","1","0","1","0","0.534556099999463","0.472292799997376","0.443105799990008","1","1","1","1","1","1","1","1","1"
"250020","img/neutralC/CFD-AF-205-155-N.jpg","img/neutralC/CFD-BM-215-155-N.jpg","img/neutralC/CFD-MF-307-002-N.jpg","1","1","1","0","0","1","0.443105799990008","0.534556099999463","0.400313000020105","1","1","1","1","1","1","1","1","1"
"250020","img/neutralC/CFD-MF-307-002-N.jpg","img/neutralC/CFD-AF-205-155-N.jpg","img/neutralC/CFD-IF-732-260-N.jpg","1","1","1","1","0","0","0.400313000020105","0.443105799990008","0.517789700010326","1","1","1","1","1","1","1","1","1"
"250020","img/neutralC/CFD-IF-732-260-N.jpg","img/neutralC/CFD-MF-307-002-N.jpg","img/neutralC/CFD-IM-632-097-N.jpg","1","1","1","0","1","0","0.517789700010326","0.400313000020105","0.536154200002784","1","1","1","1","1","1","1","1","1"
"250020","img/neutralC/CFD-IM-632-097-N.jpg","img/neutralC/CFD-IF-732-260-N.jpg","img/neutralC/CFD-AF-244-168-N.jpg","1","1","1","0","0","0","0.536154200002784","0.517789700010326","0.69159169998602","1","1","1","1","1","1","1","1","1"
"250020","img/neutralC/CFD-AF-244-168-N.jpg","img/neutralC/CFD-IM-632-097-N.jpg","img/neutralC/CFD-IM-669-111-N.jpg","1","1","1","0","0","1","0.69159169998602","0.536154200002784","0.499991299991962","1","1","1","1","1","1","1","1","1"
"250020","img/neutralC/CFD-IM-669-111-N.jpg","img/neutralC/CFD-AF-244-168-N.jpg","img/neutralC/CFD-LM-204-001-N.jpg","1","1","1","1","0","0","0.499991299991962","0.69159169998602","0.554803200007882","1","1","1","1","1","1","1","1","1"
"250020","img/neutralC/CFD-LM-204-001-N.jpg","img/neutralC/CFD-IM-669-111-N.jpg","img/neutralC/CFD-WF-235-121-N.jpg","1","1","1","0","1","0","0.554803200007882","0.499991299991962","0.547477199987043","1","1","1","1","1","1","1","1","1"
"250020","img/neutralC/CFD-WF-235-121-N.jpg","img/neutralC/CFD-LM-204-001-N.jpg","img/neutralC/CFD-WF-210-086-N.jpg","1","1","1","0","0","0","0.547477199987043","0.554803200007882","0.478349899989553","1","1","1","1","1","1","1","1","1"
"250020","img/neutralC/CFD-WF-210-086-N.jpg","img/neutralC/CFD-WF-235-121-N.jpg","img/neutralC/CFD-IM-678-482-N.jpg","1","1","1","0","0","0","0.478349899989553","0.547477199987043","0.587522699992405","1","1","1","1","1","1","1","1","1"
"250020","img/neutralC/CFD-IM-678-482-N.jpg","img/neutralC/CFD-WF-210-086-N.jpg","img/neutralC/CFD-LF-239-148-N.jpg","1","1","1","0","0","0","0.587522699992405","0.478349899989553","0.555599900020752","1","1","1","1","1","1","1","1","1"
"250020","img/neutralC/CFD-LF-239-148-N.jpg","img/neutralC/CFD-IM-678-482-N.jpg","img/neutralC/CFD-BF-206-143-N.jpg","1","1","1","0","0","1","0.555599900020752","0.587522699992405","0.494201499997871","1","1","1","1","1","1","1","1","1"
"250020","img/neutralC/CFD-BF-206-143-N.jpg","img/neutralC/CFD-LF-239-148-N.jpg","img/neutralC/CFD-BF-020-002-N.jpg","1","1","1","1","0","1","0.494201499997871","0.555599900020752","0.523838399996748","1","1","1","1","1","1","1","1","1"
"250020","img/neutralC/CFD-BF-020-002-N.jpg","img/neutralC/CFD-BF-206-143-N.jpg","img/neutralC/CFD-BM-004-002-N.jpg","1","1","1","1","1","0","0.523838399996748","0.494201499997871","0.511822000000393","1","1","1","1","1","1","1","1","1"
"250020","img/neutralC/CFD-BM-004-002-N.jpg","img/neutralC/CFD-BF-020-002-N.jpg","img/neutralC/CFD-AF-246-242-N.jpg","1","1","1","0","1","0","0.511822000000393","0.523838399996748","0.576075399992988","1","1","1","1","1","1","1","1","1"
"250020","img/neutralC/CFD-AF-246-242-N.jpg","img/neutralC/CFD-BM-004-002-N.jpg","img/neutralC/CFD-BF-217-189-N.jpg","1","1","1","0","0","0","0.576075399992988","0.511822000000393","0.707031300000381","1","1","1","1","1","1","1","1","1"
"250020","img/neutralC/CFD-BF-217-189-N.jpg","img/neutralC/CFD-AF-246-242-N.jpg","img/neutralC/CFD-IM-635-010-N.jpg","1","1","1","0","0","1","0.707031300000381","0.576075399992988","0.444969199976185","1","1","1","1","1","1","1","1","1"
"250020","img/neutralC/CFD-IM-635-010-N.jpg","img/neutralC/CFD-BF-217-189-N.jpg","img/neutralC/CFD-BF-042-026-N.jpg","1","1","1","1","0","1","0.444969199976185","0.707031300000381","0.445052199997008","1","1","1","1","1","1","1","1","1"
"250020","img/neutralC/CFD-BF-042-026-N.jpg","img/neutralC/CFD-IM-635-010-N.jpg","img/neutralC/CFD-AM-245-111-N.jpg","1","1","1","1","1","1","0.445052199997008","0.444969199976185","0.535761600011028","1","1","1","1","1","1","1","1","1"
"250020","img/neutralC/CFD-AM-245-111-N.jpg","img/neutralC/CFD-BF-042-026-N.jpg","img/neutralC/CFD-AM-233-236-N.jpg","1","1","1","1","1","1","0.535761600011028","0.445052199997008","0.455775299982633","1","1","1","1","1","1","1","1","1"
"250020","img/neutralC/CFD-AM-233-236-N.jpg","img/neutralC/CFD-AM-245-111-N.jpg","img/neutralC/CFD-WM-018-002-N.jpg","1","1","1","1","1","0","0.455775299982633","0.535761600011028","0.497692100005224","1","1","1","1","1","1","1","1","1"
"250020","img/neutralC/CFD-WM-018-002-N.jpg","img/neutralC/CFD-AM-233-236-N.jpg","img/neutralC/CFD-AM-225-102-N.jpg","1","1","1","0","1","0","0.497692100005224","0.455775299982633","0.447427000006428","1","1","1","1","1","1","1","1","1"
"250020","img/neutralC/CFD-AM-225-102-N.jpg","img/neutralC/CFD-WM-018-002-N.jpg","img/neutralC/CFD-MF-302-027-N.jpg","1","1","1","0","0","0","0.447427000006428","0.497692100005224","0.58928700000979","1","1","1","1","1","1","1","1","1"
"250020","img/neutralC/CFD-MF-302-027-N.jpg","img/neutralC/CFD-AM-225-102-N.jpg","img/neutralC/CFD-IF-636-011-N.jpg","1","1","1","0","0","1","0.58928700000979","0.447427000006428","0.552786199987167","1","1","1","1","1","1","1","1","1"
"250020","img/neutralC/CFD-IF-636-011-N.jpg","img/neutralC/CFD-MF-302-027-N.jpg","img/neutralC/CFD-BF-235-168-N.jpg","1","1","1","1","0","1","0.552786199987167","0.58928700000979","0.563425000000279","1","1","1","1","1","1","1","1","1"
"250020","img/neutralC/CFD-BF-235-168-N.jpg","img/neutralC/CFD-IF-636-011-N.jpg","img/neutralC/CFD-LM-241-125-N.jpg","1","1","1","1","1","1","0.563425000000279","0.552786199987167","0.497606000019005","1","1","1","1","1","1","1","1","1"
"250020","img/neutralC/CFD-LM-241-125-N.jpg","img/neutralC/CFD-BF-235-168-N.jpg","img/neutralC/CFD-AF-213-126-N.jpg","1","1","1","1","1","1","0.497606000019005","0.563425000000279","0.499815699993633","1","1","1","1","1","1","1","1","1"
"250020","img/neutralC/CFD-AF-213-126-N.jpg","img/neutralC/CFD-LM-241-125-N.jpg","img/neutralC/CFD-AF-250-200-N.jpg","1","1","1","1","1","1","0.499815699993633","0.497606000019005","0.421336999977939","1","1","1","1","1","1","1","1","1"
"250020","img/neutralC/CFD-AF-250-200-N.jpg","img/neutralC/CFD-AF-213-126-N.jpg",NA,"1","1",NA,"1","1",NA,"0.421336999977939","0.499815699993633",NA,"1","1",NA,"1","1",NA,"1","1",NA
"250020","img/neutralC/CFD-IM-697-015-N.jpg",NA,"img/neutralC/CFD-BM-021-021-N.jpg","1",NA,"1","1",NA,"1","0.692238500021631",NA,"0.451977499993518","1",NA,"1","1",NA,"1","1",NA,"1"
"250020","img/neutralC/CFD-BM-021-021-N.jpg","img/neutralC/CFD-IM-697-015-N.jpg","img/neutralC/CFD-BM-020-001-N.jpg","1","1","1","1","1","0","0.451977499993518","0.692238500021631","0.456719299982069","1","1","1","1","1","1","1","1","1"
"250020","img/neutralC/CFD-BM-020-001-N.jpg","img/neutralC/CFD-BM-021-021-N.jpg","img/neutralC/CFD-IM-689-263-N.jpg","1","1","1","0","1","1","0.456719299982069","0.451977499993518","0.461829799984116","1","1","1","1","1","1","1","1","1"
"250020","img/neutralC/CFD-IM-689-263-N.jpg","img/neutralC/CFD-BM-020-001-N.jpg","img/neutralC/CFD-AF-237-223-N.jpg","1","1","1","1","0","0","0.461829799984116","0.456719299982069","0.571185199980391","1","1","1","1","1","1","1","1","1"
"250020","img/neutralC/CFD-AF-237-223-N.jpg","img/neutralC/CFD-IM-689-263-N.jpg","img/neutralC/CFD-MM-306-010-N.jpg","1","1","1","0","1","0","0.571185199980391","0.461829799984116","0.552297499991255","1","1","1","1","1","1","1","1","1"
"250020","img/neutralC/CFD-MM-306-010-N.jpg","img/neutralC/CFD-AF-237-223-N.jpg","img/neutralC/CFD-LF-222-147-N.jpg","1","1","1","0","0","0","0.552297499991255","0.571185199980391","0.582976699981373","1","1","1","1","1","1","1","1","1"
"250020","img/neutralC/CFD-LF-222-147-N.jpg","img/neutralC/CFD-MM-306-010-N.jpg","img/neutralC/CFD-WF-207-014-N.jpg","1","1","1","0","0","1","0.582976699981373","0.552297499991255","0.421470200002659","1","1","1","1","1","1","1","1","1"
"250020","img/neutralC/CFD-WF-207-014-N.jpg","img/neutralC/CFD-LF-222-147-N.jpg","img/neutralC/CFD-WM-023-001-N.jpg","1","1","1","1","0","0","0.421470200002659","0.582976699981373","0.530639599979622","1","1","1","1","1","1","1","1","1"
"250020","img/neutralC/CFD-WM-023-001-N.jpg","img/neutralC/CFD-WF-207-014-N.jpg","img/neutralC/CFD-WF-241-210-N.jpg","1","1","1","0","1","0","0.530639599979622","0.421470200002659","0.570327299996279","1","1","1","1","1","1","1","1","1"
"250020","img/neutralC/CFD-WF-241-210-N.jpg","img/neutralC/CFD-WM-023-001-N.jpg","img/neutralC/CFD-AM-249-163-N.jpg","1","1","1","0","0","1","0.570327299996279","0.530639599979622","0.433442000008654","1","1","1","1","1","1","1","1","1"
"250020","img/neutralC/CFD-AM-249-163-N.jpg","img/neutralC/CFD-WF-241-210-N.jpg","img/neutralC/CFD-LF-212-066-N.jpg","1","1","1","1","0","1","0.433442000008654","0.570327299996279","0.475641699973494","1","1","1","1","1","1","1","1","1"
"250020","img/neutralC/CFD-LF-212-066-N.jpg","img/neutralC/CFD-AM-249-163-N.jpg","img/neutralC/CFD-BM-030-003-N.jpg","1","1","1","1","1","0","0.475641699973494","0.433442000008654","0.565896400017664","1","1","1","1","1","1","1","1","1"
"250020","img/neutralC/CFD-BM-030-003-N.jpg","img/neutralC/CFD-LF-212-066-N.jpg","img/neutralC/CFD-AM-243-212-N.jpg","1","1","1","0","1","1","0.565896400017664","0.475641699973494","0.546193800022593","1","1","1","1","1","1","1","1","1"
"250020","img/neutralC/CFD-AM-243-212-N.jpg","img/neutralC/CFD-BM-030-003-N.jpg","img/neutralC/CFD-WF-243-148-N.jpg","1","1","1","1","0","0","0.546193800022593","0.565896400017664","0.527433399984147","1","1","1","1","1","1","1","1","1"
"250020","img/neutralC/CFD-WF-243-148-N.jpg","img/neutralC/CFD-AM-243-212-N.jpg","img/neutralC/CFD-BF-244-231-N.jpg","1","1","1","0","1","1","0.527433399984147","0.546193800022593","0.403401999996277","1","1","1","1","1","1","1","1","1"
"250020","img/neutralC/CFD-BF-244-231-N.jpg","img/neutralC/CFD-WF-243-148-N.jpg","img/neutralC/CFD-MF-328-020-N.jpg","1","1","1","1","0","0","0.403401999996277","0.527433399984147","0.592734899983043","1","1","1","1","1","1","1","1","1"
"250020","img/neutralC/CFD-MF-328-020-N.jpg","img/neutralC/CFD-BF-244-231-N.jpg","img/neutralC/CFD-IM-615-167-N.jpg","1","1","1","0","1","0","0.592734899983043","0.403401999996277","0.455269800004316","1","1","1","1","1","1","1","1","1"
"250020","img/neutralC/CFD-IM-615-167-N.jpg","img/neutralC/CFD-MF-328-020-N.jpg","img/neutralC/CFD-WM-025-002-N.jpg","1","1","1","0","0","0","0.455269800004316","0.592734899983043","0.528380299976561","1","1","1","1","1","1","1","1","1"
"250020","img/neutralC/CFD-WM-025-002-N.jpg","img/neutralC/CFD-IM-615-167-N.jpg","img/neutralC/CFD-WF-009-001-N.jpg","1","1","1","0","0","1","0.528380299976561","0.455269800004316","0.534347999986494","1","1","1","1","1","1","1","1","1"
"250020","img/neutralC/CFD-WF-009-001-N.jpg","img/neutralC/CFD-WM-025-002-N.jpg","img/neutralC/CFD-BF-012-001-N.jpg","1","1","1","1","0","0","0.534347999986494","0.528380299976561","0.597817700006999","1","1","1","1","1","1","1","1","1"
"250020","img/neutralC/CFD-BF-012-001-N.jpg","img/neutralC/CFD-WF-009-001-N.jpg","img/neutralC/CFD-BM-227-191-N.jpg","1","1","1","0","1","1","0.597817700006999","0.534347999986494","0.4467905999918","1","1","1","1","1","1","1","1","1"
"250020","img/neutralC/CFD-BM-227-191-N.jpg","img/neutralC/CFD-BF-012-001-N.jpg","img/neutralC/CFD-AM-205-153-N.jpg","1","1","1","1","0","1","0.4467905999918","0.597817700006999","0.583997699985048","1","1","1","1","1","1","1","1","1"
"250020","img/neutralC/CFD-AM-205-153-N.jpg","img/neutralC/CFD-BM-227-191-N.jpg","img/neutralC/CFD-IM-606-008-N.jpg","1","1","1","1","1","0","0.583997699985048","0.4467905999918","0.699114300019573","1","1","1","1","1","1","1","1","1"
"250020","img/neutralC/CFD-IM-606-008-N.jpg","img/neutralC/CFD-AM-205-153-N.jpg","img/neutralC/CFD-BM-009-002-N.jpg","1","1","1","0","1","1","0.699114300019573","0.583997699985048","0.6352659999975","1","1","1","1","1","1","1","1","1"
"250020","img/neutralC/CFD-BM-009-002-N.jpg","img/neutralC/CFD-IM-606-008-N.jpg","img/neutralC/CFD-AM-219-101-N.jpg","1","1","1","1","0","0","0.6352659999975","0.699114300019573","0.48596120000002","1","1","1","1","1","1","1","1","1"
"250020","img/neutralC/CFD-AM-219-101-N.jpg","img/neutralC/CFD-BM-009-002-N.jpg","img/neutralC/CFD-LF-238-154-N.jpg","1","1","1","0","1","1","0.48596120000002","0.6352659999975","0.460707999998704","1","1","1","1","1","1","1","1","1"
"250020","img/neutralC/CFD-LF-238-154-N.jpg","img/neutralC/CFD-AM-219-101-N.jpg","img/neutralC/CFD-IF-676-017-N.jpg","1","1","1","1","0","1","0.460707999998704","0.48596120000002","0.449973099981435","1","1","1","1","1","1","1","1","1"
"250020","img/neutralC/CFD-IF-676-017-N.jpg","img/neutralC/CFD-LF-238-154-N.jpg","img/neutralC/CFD-BM-043-071-N.jpg","1","1","1","1","1","0","0.449973099981435","0.460707999998704","0.435907000006409","1","1","1","1","1","1","1","1","1"
"250020","img/neutralC/CFD-BM-043-071-N.jpg","img/neutralC/CFD-IF-676-017-N.jpg","img/neutralC/CFD-LM-240-013-N.jpg","1","1","1","0","1","1","0.435907000006409","0.449973099981435","0.554998999985401","1","1","1","1","1","1","1","1","1"
"250020","img/neutralC/CFD-LM-240-013-N.jpg","img/neutralC/CFD-BM-043-071-N.jpg","img/neutralC/CFD-WF-221-005-N.jpg","1","1","1","1","0","0","0.554998999985401","0.435907000006409","0.57531780001591","1","1","1","1","1","1","1","1","1"
"250020","img/neutralC/CFD-WF-221-005-N.jpg","img/neutralC/CFD-LM-240-013-N.jpg","img/neutralC/CFD-WM-028-003-N.jpg","1","1","1","0","1","1","0.57531780001591","0.554998999985401","0.634202500019455","1","1","1","1","1","1","1","1","1"
"250020","img/neutralC/CFD-WM-028-003-N.jpg","img/neutralC/CFD-WF-221-005-N.jpg",NA,"1","1",NA,"1","0",NA,"0.634202500019455","0.57531780001591",NA,"1","1",NA,"1","1",NA,"1","1",NA
"250020","img/neutralC/CFD-LF-230-203-N.jpg",NA,"img/neutralC/CFD-IF-710-016-N.jpg","1",NA,"0","0",NA,"0","0.690837800008012",NA,"2.51974589997553","1",NA,"1","1",NA,"1","1",NA,"1"
"250020","img/neutralC/CFD-IF-710-016-N.jpg","img/neutralC/CFD-LF-230-203-N.jpg","img/neutralC/CFD-AM-201-076-N.jpg","0","1","1","0","0","1","2.51974589997553","0.690837800008012","0.411771000013687","1","1","1","1","1","1","1","1","1"
"250020","img/neutralC/CFD-AM-201-076-N.jpg","img/neutralC/CFD-IF-710-016-N.jpg","img/neutralC/CFD-BF-029-031-N.jpg","1","0","1","1","0","1","0.411771000013687","2.51974589997553","0.389543199999025","1","1","1","1","1","1","1","1","1"
"250020","img/neutralC/CFD-BF-029-031-N.jpg","img/neutralC/CFD-AM-201-076-N.jpg","img/neutralC/CFD-BF-253-202-N.jpg","1","1","1","1","1","0","0.389543199999025","0.411771000013687","0.515671499975724","1","1","1","1","1","1","1","1","1"
"250020","img/neutralC/CFD-BF-253-202-N.jpg","img/neutralC/CFD-BF-029-031-N.jpg","img/neutralC/CFD-LM-218-183-N.jpg","1","1","1","0","1","1","0.515671499975724","0.389543199999025","0.425300300004892","1","1","1","1","1","1","1","1","1"
"250020","img/neutralC/CFD-LM-218-183-N.jpg","img/neutralC/CFD-BF-253-202-N.jpg","img/neutralC/CFD-BM-239-136-N.jpg","1","1","1","1","0","1","0.425300300004892","0.515671499975724","0.498654199996963","1","1","1","1","1","1","1","1","1"
"250020","img/neutralC/CFD-BM-239-136-N.jpg","img/neutralC/CFD-LM-218-183-N.jpg","img/neutralC/CFD-WM-041-021-N.jpg","1","1","1","1","1","0","0.498654199996963","0.425300300004892","0.481326300010551","1","1","1","1","1","1","1","1","1"
"250020","img/neutralC/CFD-WM-041-021-N.jpg","img/neutralC/CFD-BM-239-136-N.jpg","img/neutralC/CFD-AF-231-357-N.jpg","1","1","1","0","1","1","0.481326300010551","0.498654199996963","0.420323300000746","1","1","1","1","1","1","1","1","1"
"250020","img/neutralC/CFD-AF-231-357-N.jpg","img/neutralC/CFD-WM-041-021-N.jpg","img/neutralC/CFD-IM-684-008-N.jpg","1","1","1","1","0","1","0.420323300000746","0.481326300010551","0.461399499996333","1","1","1","1","1","1","1","1","1"
"250020","img/neutralC/CFD-IM-684-008-N.jpg","img/neutralC/CFD-AF-231-357-N.jpg","img/neutralC/CFD-BF-213-188-N.jpg","1","1","1","1","1","1","0.461399499996333","0.420323300000746","0.543015600007493","1","1","1","1","1","1","1","1","1"
"250020","img/neutralC/CFD-BF-213-188-N.jpg","img/neutralC/CFD-IM-684-008-N.jpg","img/neutralC/CFD-IF-634-382-N.jpg","1","1","1","1","1","1","0.543015600007493","0.461399499996333","0.559631799987983","1","1","1","1","1","1","1","1","1"
"250020","img/neutralC/CFD-IF-634-382-N.jpg","img/neutralC/CFD-BF-213-188-N.jpg","img/neutralC/CFD-WM-021-001-N.jpg","1","1","1","1","1","1","0.559631799987983","0.543015600007493","0.353922600013902","1","1","1","1","1","1","1","1","1"
"250020","img/neutralC/CFD-WM-021-001-N.jpg","img/neutralC/CFD-IF-634-382-N.jpg","img/neutralC/CFD-LF-203-066-N.jpg","1","1","1","1","1","0","0.353922600013902","0.559631799987983","0.496671900007641","1","1","1","1","1","1","1","1","1"
"250020","img/neutralC/CFD-LF-203-066-N.jpg","img/neutralC/CFD-WM-021-001-N.jpg","img/neutralC/CFD-MF-337-026-N.jpg","1","1","1","0","1","1","0.496671900007641","0.353922600013902","0.424040200014133","1","1","1","1","1","1","1","1","1"
"250020","img/neutralC/CFD-MF-337-026-N.jpg","img/neutralC/CFD-LF-203-066-N.jpg","img/neutralC/CFD-WM-011-002-N.jpg","1","1","1","1","0","0","0.424040200014133","0.496671900007641","0.454262099985499","1","1","1","1","1","1","1","1","1"
"250020","img/neutralC/CFD-WM-011-002-N.jpg","img/neutralC/CFD-MF-337-026-N.jpg","img/neutralC/CFD-WF-224-099-N.jpg","1","1","1","0","1","0","0.454262099985499","0.424040200014133","0.57557149999775","1","1","1","1","1","1","1","1","1"
"250020","img/neutralC/CFD-WF-224-099-N.jpg","img/neutralC/CFD-WM-011-002-N.jpg","img/neutralC/CFD-IF-693-172-N.jpg","1","1","1","0","0","0","0.57557149999775","0.454262099985499","0.483386899984907","1","1","1","1","1","1","1","1","1"
"250020","img/neutralC/CFD-IF-693-172-N.jpg","img/neutralC/CFD-WF-224-099-N.jpg","img/neutralC/CFD-LM-215-247-N.jpg","1","1","1","0","0","0","0.483386899984907","0.57557149999775","0.553634099982446","1","1","1","1","1","1","1","1","1"
"250020","img/neutralC/CFD-LM-215-247-N.jpg","img/neutralC/CFD-IF-693-172-N.jpg","img/neutralC/CFD-WF-250-167-N.jpg","1","1","1","0","0","1","0.553634099982446","0.483386899984907","0.684333800018067","1","1","1","1","1","1","1","1","1"
"250020","img/neutralC/CFD-WF-250-167-N.jpg","img/neutralC/CFD-LM-215-247-N.jpg","img/neutralC/CFD-AM-212-050-N.jpg","1","1","1","1","0","1","0.684333800018067","0.553634099982446","0.543061199976364","1","1","1","1","1","1","1","1","1"
"250020","img/neutralC/CFD-AM-212-050-N.jpg","img/neutralC/CFD-WF-250-167-N.jpg","img/neutralC/CFD-MM-316-156-N.jpg","1","1","1","1","1","1","0.543061199976364","0.684333800018067","0.473268800007645","1","1","1","1","1","1","1","1","1"
"250020","img/neutralC/CFD-MM-316-156-N.jpg","img/neutralC/CFD-AM-212-050-N.jpg","img/neutralC/CFD-BM-019-002-N.jpg","1","1","1","1","1","0","0.473268800007645","0.543061199976364","0.594429699995089","1","1","1","1","1","1","1","1","1"
"250020","img/neutralC/CFD-BM-019-002-N.jpg","img/neutralC/CFD-MM-316-156-N.jpg","img/neutralC/CFD-BM-041-035-N.jpg","1","1","1","0","1","0","0.594429699995089","0.473268800007645","0.551476200023899","1","1","1","1","1","1","1","1","1"
"250020","img/neutralC/CFD-BM-041-035-N.jpg","img/neutralC/CFD-BM-019-002-N.jpg","img/neutralC/CFD-LF-214-090-N.jpg","1","1","1","0","0","0","0.551476200023899","0.594429699995089","0.552097000007052","1","1","1","1","1","1","1","1","1"
"250020","img/neutralC/CFD-LF-214-090-N.jpg","img/neutralC/CFD-BM-041-035-N.jpg","img/neutralC/CFD-BF-039-031-N.jpg","1","1","1","0","0","1","0.552097000007052","0.551476200023899","0.464456799993059","1","1","1","1","1","1","1","1","1"
"250020","img/neutralC/CFD-BF-039-031-N.jpg","img/neutralC/CFD-LF-214-090-N.jpg","img/neutralC/CFD-WF-213-031-N.jpg","1","1","1","1","0","1","0.464456799993059","0.552097000007052","0.41082579997601","1","1","1","1","1","1","1","1","1"
"250020","img/neutralC/CFD-WF-213-031-N.jpg","img/neutralC/CFD-BF-039-031-N.jpg","img/neutralC/CFD-LF-205-100-N.jpg","1","1","1","1","1","1","0.41082579997601","0.464456799993059","0.708770600002026","1","1","1","1","1","1","1","1","1"
"250020","img/neutralC/CFD-LF-205-100-N.jpg","img/neutralC/CFD-WF-213-031-N.jpg","img/neutralC/CFD-IM-651-308-N.jpg","1","1","1","1","1","0","0.708770600002026","0.41082579997601","0.666479300009087","1","1","1","1","1","1","1","1","1"
"250020","img/neutralC/CFD-IM-651-308-N.jpg","img/neutralC/CFD-LF-205-100-N.jpg","img/neutralC/CFD-LF-224-176-N.jpg","1","1","1","0","1","0","0.666479300009087","0.708770600002026","0.593198399990797","1","1","1","1","1","1","1","1","1"
"250020","img/neutralC/CFD-LF-224-176-N.jpg","img/neutralC/CFD-IM-651-308-N.jpg","img/neutralC/CFD-BM-033-003-N.jpg","1","1","1","0","0","0","0.593198399990797","0.666479300009087","0.582473999995273","1","1","1","1","1","1","1","1","1"
"250020","img/neutralC/CFD-BM-033-003-N.jpg","img/neutralC/CFD-LF-224-176-N.jpg","img/neutralC/CFD-BF-205-141-N.jpg","1","1","1","0","0","0","0.582473999995273","0.593198399990797","0.643927800003439","1","1","1","1","1","1","1","1","1"
"250020","img/neutralC/CFD-BF-205-141-N.jpg","img/neutralC/CFD-BM-033-003-N.jpg",NA,"1","1",NA,"0","0",NA,"0.643927800003439","0.582473999995273",NA,"1","1",NA,"1","1",NA,"1","1",NA
"250020","img/neutralC/CFD-IF-665-015-N.jpg",NA,"img/neutralC/CFD-BM-212-117-N.jpg","1",NA,"1","0",NA,"0","0.65681900002528",NA,"0.780300499987788","1",NA,"1","1",NA,"1","1",NA,"1"
"250020","img/neutralC/CFD-BM-212-117-N.jpg","img/neutralC/CFD-IF-665-015-N.jpg","img/neutralC/CFD-WM-258-125-N.jpg","1","1","1","0","0","0","0.780300499987788","0.65681900002528","0.447050700022373","1","1","1","1","1","1","1","1","1"
"250020","img/neutralC/CFD-WM-258-125-N.jpg","img/neutralC/CFD-BM-212-117-N.jpg","img/neutralC/CFD-AF-241-141-N.jpg","1","1","1","0","0","1","0.447050700022373","0.780300499987788","0.43828649999341","1","1","1","1","1","1","1","1","1"
"250020","img/neutralC/CFD-AF-241-141-N.jpg","img/neutralC/CFD-WM-258-125-N.jpg","img/neutralC/CFD-WF-209-052-N.jpg","1","1","1","1","0","1","0.43828649999341","0.447050700022373","0.427068399993004","1","1","1","1","1","1","1","1","1"
"250020","img/neutralC/CFD-WF-209-052-N.jpg","img/neutralC/CFD-AF-241-141-N.jpg","img/neutralC/CFD-BF-010-001-N.jpg","1","1","1","1","1","1","0.427068399993004","0.43828649999341","0.466489499987802","1","1","1","1","1","1","1","1","1"
"250020","img/neutralC/CFD-BF-010-001-N.jpg","img/neutralC/CFD-WF-209-052-N.jpg","img/neutralC/CFD-BM-018-001-N.jpg","1","1","1","1","1","1","0.466489499987802","0.427068399993004","0.413286700000754","1","1","1","1","1","1","1","1","1"
"250020","img/neutralC/CFD-BM-018-001-N.jpg","img/neutralC/CFD-BF-010-001-N.jpg","img/neutralC/CFD-IM-617-174-N.jpg","1","1","1","1","1","0","0.413286700000754","0.466489499987802","0.524348000006285","1","1","1","1","1","1","1","1","1"
"250020","img/neutralC/CFD-IM-617-174-N.jpg","img/neutralC/CFD-BM-018-001-N.jpg","img/neutralC/CFD-AF-202-122-N.jpg","1","1","1","0","1","1","0.524348000006285","0.413286700000754","0.475181199988583","1","1","1","1","1","1","1","1","1"
"250020","img/neutralC/CFD-AF-202-122-N.jpg","img/neutralC/CFD-IM-617-174-N.jpg","img/neutralC/CFD-LM-219-295-N.jpg","1","1","1","1","0","1","0.475181199988583","0.524348000006285","0.621291599993128","1","1","1","1","1","1","1","1","1"
"250020","img/neutralC/CFD-LM-219-295-N.jpg","img/neutralC/CFD-AF-202-122-N.jpg","img/neutralC/CFD-IM-657-308-N.jpg","1","1","1","1","1","0","0.621291599993128","0.475181199988583","0.434932499978459","1","1","1","1","1","1","1","1","1"
"250020","img/neutralC/CFD-IM-657-308-N.jpg","img/neutralC/CFD-LM-219-295-N.jpg","img/neutralC/CFD-IF-620-218-N.jpg","1","1","1","0","1","0","0.434932499978459","0.621291599993128","0.68746519999695","1","1","1","1","1","1","1","1","1"
"250020","img/neutralC/CFD-IF-620-218-N.jpg","img/neutralC/CFD-IM-657-308-N.jpg","img/neutralC/CFD-WM-227-099-N.jpg","1","1","1","0","0","1","0.68746519999695","0.434932499978459","0.567298600013601","1","1","1","1","1","1","1","1","1"
"250020","img/neutralC/CFD-WM-227-099-N.jpg","img/neutralC/CFD-IF-620-218-N.jpg","img/neutralC/CFD-LF-242-121-N.jpg","1","1","1","1","0","0","0.567298600013601","0.68746519999695","0.579353899986017","1","1","1","1","1","1","1","1","1"
"250020","img/neutralC/CFD-LF-242-121-N.jpg","img/neutralC/CFD-WM-227-099-N.jpg","img/neutralC/CFD-BM-005-003-N.jpg","1","1","1","0","1","1","0.579353899986017","0.567298600013601","0.732924000010826","1","1","1","1","1","1","1","1","1"
"250020","img/neutralC/CFD-BM-005-003-N.jpg","img/neutralC/CFD-LF-242-121-N.jpg","img/neutralC/CFD-MF-313-002-N.jpg","1","1","1","1","0","0","0.732924000010826","0.579353899986017","0.579041100019822","1","1","1","1","1","1","1","1","1"
"250020","img/neutralC/CFD-MF-313-002-N.jpg","img/neutralC/CFD-BM-005-003-N.jpg","img/neutralC/CFD-LF-247-051-N.jpg","1","1","1","0","1","1","0.579041100019822","0.732924000010826","0.818790899997111","1","1","1","1","1","1","1","1","1"
"250020","img/neutralC/CFD-LF-247-051-N.jpg","img/neutralC/CFD-MF-313-002-N.jpg","img/neutralC/CFD-IM-727-195-N.jpg","1","1","1","1","0","1","0.818790899997111","0.579041100019822","0.434453499998199","1","1","1","1","1","1","1","1","1"
"250020","img/neutralC/CFD-IM-727-195-N.jpg","img/neutralC/CFD-LF-247-051-N.jpg","img/neutralC/CFD-BM-231-155-N.jpg","1","1","1","1","1","1","0.434453499998199","0.818790899997111","0.582167200016556","1","1","1","1","1","1","1","1","1"
"250020","img/neutralC/CFD-BM-231-155-N.jpg","img/neutralC/CFD-IM-727-195-N.jpg","img/neutralC/CFD-LF-245-166-N.jpg","1","1","1","1","1","1","0.582167200016556","0.434453499998199","0.455747100000735","1","1","1","1","1","1","1","1","1"
"250020","img/neutralC/CFD-LF-245-166-N.jpg","img/neutralC/CFD-BM-231-155-N.jpg","img/neutralC/CFD-LF-250-169-N.jpg","1","1","1","1","1","1","0.455747100000735","0.582167200016556","0.45352070001536","1","1","1","1","1","1","1","1","1"
"250020","img/neutralC/CFD-LF-250-169-N.jpg","img/neutralC/CFD-LF-245-166-N.jpg","img/neutralC/CFD-IM-686-097-N.jpg","1","1","1","1","1","0","0.45352070001536","0.455747100000735","0.487319000007119","1","1","1","1","1","1","1","1","1"
"250020","img/neutralC/CFD-IM-686-097-N.jpg","img/neutralC/CFD-LF-250-169-N.jpg","img/neutralC/CFD-WM-017-002-N.jpg","1","1","1","0","1","0","0.487319000007119","0.45352070001536","0.542631299991626","1","1","1","1","1","1","1","1","1"
"250020","img/neutralC/CFD-WM-017-002-N.jpg","img/neutralC/CFD-IM-686-097-N.jpg","img/neutralC/CFD-IM-653-008-N.jpg","1","1","1","0","0","0","0.542631299991626","0.487319000007119","0.547107400023378","1","1","1","1","1","1","1","1","1"
"250020","img/neutralC/CFD-IM-653-008-N.jpg","img/neutralC/CFD-WM-017-002-N.jpg","img/neutralC/CFD-IM-638-250-1-N.jpg","1","1","1","0","0","1","0.547107400023378","0.542631299991626","0.457634099991992","1","1","1","1","1","1","1","1","1"
"250020","img/neutralC/CFD-IM-638-250-1-N.jpg","img/neutralC/CFD-IM-653-008-N.jpg","img/neutralC/CFD-WM-242-011-N.jpg","1","1","1","1","0","0","0.457634099991992","0.547107400023378","0.617497800005367","1","1","1","1","1","1","1","1","1"
"250020","img/neutralC/CFD-WM-242-011-N.jpg","img/neutralC/CFD-IM-638-250-1-N.jpg","img/neutralC/CFD-LM-233-171-N.jpg","1","1","1","0","1","0","0.617497800005367","0.457634099991992","0.506968999980018","1","1","1","1","1","1","1","1","1"
"250020","img/neutralC/CFD-LM-233-171-N.jpg","img/neutralC/CFD-WM-242-011-N.jpg","img/neutralC/CFD-BF-033-028-N.jpg","1","1","1","0","0","0","0.506968999980018","0.617497800005367","0.527762899990194","1","1","1","1","1","1","1","1","1"
"250020","img/neutralC/CFD-BF-033-028-N.jpg","img/neutralC/CFD-LM-233-171-N.jpg","img/neutralC/CFD-BF-238-190-N.jpg","1","1","1","0","0","1","0.527762899990194","0.506968999980018","0.482837199990172","1","1","1","1","1","1","1","1","1"
"250020","img/neutralC/CFD-BF-238-190-N.jpg","img/neutralC/CFD-BF-033-028-N.jpg","img/neutralC/CFD-LM-226-175-N.jpg","1","1","1","1","0","0","0.482837199990172","0.527762899990194","0.501110300014261","1","1","1","1","1","1","1","1","1"
"250020","img/neutralC/CFD-LM-226-175-N.jpg","img/neutralC/CFD-BF-238-190-N.jpg","img/neutralC/CFD-AF-206-079-N.jpg","1","1","1","0","1","1","0.501110300014261","0.482837199990172","0.52942289999919","1","1","1","1","1","1","1","1","1"
"250020","img/neutralC/CFD-AF-206-079-N.jpg","img/neutralC/CFD-LM-226-175-N.jpg","img/neutralC/CFD-BM-026-002-N.jpg","1","1","1","1","0","0","0.52942289999919","0.501110300014261","0.564710800012108","1","1","1","1","1","1","1","1","1"
"250020","img/neutralC/CFD-BM-026-002-N.jpg","img/neutralC/CFD-AF-206-079-N.jpg",NA,"1","1",NA,"0","1",NA,"0.564710800012108","0.52942289999919",NA,"1","1",NA,"1","1",NA,"1","1",NA
"250020","img/neutralC/CFD-BF-027-002-N.jpg",NA,"img/neutralC/CFD-IF-729-393-N.jpg","1",NA,"1","1",NA,"0","0.506082500010962",NA,"0.459351800003788","1",NA,"1","1",NA,"1","1",NA,"1"
"250020","img/neutralC/CFD-IF-729-393-N.jpg","img/neutralC/CFD-BF-027-002-N.jpg","img/neutralC/CFD-IM-721-341-N.jpg","1","1","1","0","1","1","0.459351800003788","0.506082500010962","0.377139300020644","1","1","1","1","1","1","1","1","1"
"250020","img/neutralC/CFD-IM-721-341-N.jpg","img/neutralC/CFD-IF-729-393-N.jpg","img/neutralC/CFD-BF-236-177-N.jpg","1","1","1","1","0","0","0.377139300020644","0.459351800003788","0.638858999998774","1","1","1","1","1","1","1","1","1"
"250020","img/neutralC/CFD-BF-236-177-N.jpg","img/neutralC/CFD-IM-721-341-N.jpg","img/neutralC/CFD-IM-696-001-N.jpg","1","1","1","0","1","0","0.638858999998774","0.377139300020644","0.570152100000996","1","1","1","1","1","1","1","1","1"
"250020","img/neutralC/CFD-IM-696-001-N.jpg","img/neutralC/CFD-BF-236-177-N.jpg","img/neutralC/CFD-IF-742-103-N.jpg","1","1","1","0","0","1","0.570152100000996","0.638858999998774","0.330460500001209","1","1","1","1","1","1","1","1","1"
"250020","img/neutralC/CFD-IF-742-103-N.jpg","img/neutralC/CFD-IM-696-001-N.jpg","img/neutralC/CFD-BF-002-001-N.jpg","1","1","1","1","0","0","0.330460500001209","0.570152100000996","0.445302099979017","1","1","1","1","1","1","1","1","1"
"250020","img/neutralC/CFD-BF-002-001-N.jpg","img/neutralC/CFD-IF-742-103-N.jpg","img/neutralC/CFD-BM-207-024-N.jpg","1","1","1","0","1","1","0.445302099979017","0.330460500001209","0.516193699993892","1","1","1","1","1","1","1","1","1"
"250020","img/neutralC/CFD-BM-207-024-N.jpg","img/neutralC/CFD-BF-002-001-N.jpg","img/neutralC/CFD-BF-214-308-N.jpg","1","1","1","1","0","1","0.516193699993892","0.445302099979017","0.466498800000409","1","1","1","1","1","1","1","1","1"
"250020","img/neutralC/CFD-BF-214-308-N.jpg","img/neutralC/CFD-BM-207-024-N.jpg","img/neutralC/CFD-WM-034-030-N.jpg","1","1","1","1","1","1","0.466498800000409","0.516193699993892","0.382384700002149","1","1","1","1","1","1","1","1","1"
"250020","img/neutralC/CFD-WM-034-030-N.jpg","img/neutralC/CFD-BF-214-308-N.jpg","img/neutralC/CFD-BM-241-235-N.jpg","1","1","1","1","1","0","0.382384700002149","0.466498800000409","0.590109299984761","1","1","1","1","1","1","1","1","1"
"250020","img/neutralC/CFD-BM-241-235-N.jpg","img/neutralC/CFD-WM-034-030-N.jpg","img/neutralC/CFD-LF-204-133-N.jpg","1","1","1","0","1","1","0.590109299984761","0.382384700002149","0.542932999989716","1","1","1","1","1","1","1","1","1"
"250020","img/neutralC/CFD-LF-204-133-N.jpg","img/neutralC/CFD-BM-241-235-N.jpg","img/neutralC/CFD-WF-029-002-N.jpg","1","1","1","1","0","0","0.542932999989716","0.590109299984761","0.491791400010698","1","1","1","1","1","1","1","1","1"
"250020","img/neutralC/CFD-WF-029-002-N.jpg","img/neutralC/CFD-LF-204-133-N.jpg","img/neutralC/CFD-AM-230-150-N.jpg","1","1","1","0","1","0","0.491791400010698","0.542932999989716","0.46117540000705","1","1","1","1","1","1","1","1","1"
"250020","img/neutralC/CFD-AM-230-150-N.jpg","img/neutralC/CFD-WF-029-002-N.jpg","img/neutralC/CFD-BM-036-003-N.jpg","1","1","1","0","0","1","0.46117540000705","0.491791400010698","0.700353000022005","1","1","1","1","1","1","1","1","1"
"250020","img/neutralC/CFD-BM-036-003-N.jpg","img/neutralC/CFD-AM-230-150-N.jpg","img/neutralC/CFD-WF-234-086-N.jpg","1","1","1","1","0","1","0.700353000022005","0.46117540000705","0.593598499981454","1","1","1","1","1","1","1","1","1"
"250020","img/neutralC/CFD-WF-234-086-N.jpg","img/neutralC/CFD-BM-036-003-N.jpg","img/neutralC/CFD-WF-233-112-N.jpg","1","1","1","1","1","1","0.593598499981454","0.700353000022005","0.46097600000212","1","1","1","1","1","1","1","1","1"
"250020","img/neutralC/CFD-WF-233-112-N.jpg","img/neutralC/CFD-WF-234-086-N.jpg","img/neutralC/CFD-BM-238-242-N.jpg","1","1","1","1","1","0","0.46097600000212","0.593598499981454","0.50907709999592","1","1","1","1","1","1","1","1","1"
"250020","img/neutralC/CFD-BM-238-242-N.jpg","img/neutralC/CFD-WF-233-112-N.jpg","img/neutralC/CFD-BF-036-027-N.jpg","1","1","1","0","1","0","0.50907709999592","0.46097600000212","0.574770199978957","1","1","1","1","1","1","1","1","1"
"250020","img/neutralC/CFD-BF-036-027-N.jpg","img/neutralC/CFD-BM-238-242-N.jpg","img/neutralC/CFD-IM-726-248-N.jpg","1","1","1","0","0","0","0.574770199978957","0.50907709999592","0.58339210000122","1","1","1","1","1","1","1","1","1"
"250020","img/neutralC/CFD-IM-726-248-N.jpg","img/neutralC/CFD-BF-036-027-N.jpg","img/neutralC/CFD-BF-207-004-N.jpg","1","1","1","0","0","1","0.58339210000122","0.574770199978957","0.405774099985138","1","1","1","1","1","1","1","1","1"
"250020","img/neutralC/CFD-BF-207-004-N.jpg","img/neutralC/CFD-IM-726-248-N.jpg","img/neutralC/CFD-IM-707-105-N.jpg","1","1","1","1","0","1","0.405774099985138","0.58339210000122","0.52906339999754","1","1","1","1","1","1","1","1","1"
"250020","img/neutralC/CFD-IM-707-105-N.jpg","img/neutralC/CFD-BF-207-004-N.jpg","img/neutralC/CFD-IF-677-452-1-N.jpg","1","1","1","1","1","1","0.52906339999754","0.405774099985138","0.489907700015465","1","1","1","1","1","1","1","1","1"
"250020","img/neutralC/CFD-IF-677-452-1-N.jpg","img/neutralC/CFD-IM-707-105-N.jpg","img/neutralC/CFD-BF-044-034-N.jpg","1","1","1","1","1","0","0.489907700015465","0.52906339999754","0.541189299983671","1","1","1","1","1","1","1","1","1"
"250020","img/neutralC/CFD-BF-044-034-N.jpg","img/neutralC/CFD-IF-677-452-1-N.jpg","img/neutralC/CFD-MF-301-024-N.jpg","1","1","1","0","1","0","0.541189299983671","0.489907700015465","0.448666899988893","1","1","1","1","1","1","1","1","1"
"250020","img/neutralC/CFD-MF-301-024-N.jpg","img/neutralC/CFD-BF-044-034-N.jpg","img/neutralC/CFD-WM-014-002-N.jpg","1","1","1","0","0","0","0.448666899988893","0.541189299983671","0.569573799992213","1","1","1","1","1","1","1","1","1"
"250020","img/neutralC/CFD-WM-014-002-N.jpg","img/neutralC/CFD-MF-301-024-N.jpg","img/neutralC/CFD-WF-208-068-N.jpg","1","1","1","0","0","1","0.569573799992213","0.448666899988893","0.572743099997751","1","1","1","1","1","1","1","1","1"
"250020","img/neutralC/CFD-WF-208-068-N.jpg","img/neutralC/CFD-WM-014-002-N.jpg","img/neutralC/CFD-BF-247-179-N.jpg","1","1","1","1","0","0","0.572743099997751","0.569573799992213","0.664182400010759","1","1","1","1","1","1","1","1","1"
"250020","img/neutralC/CFD-BF-247-179-N.jpg","img/neutralC/CFD-WF-208-068-N.jpg","img/neutralC/CFD-BF-011-002-N.jpg","1","1","1","0","1","1","0.664182400010759","0.572743099997751","0.465014799992787","1","1","1","1","1","1","1","1","1"
"250020","img/neutralC/CFD-BF-011-002-N.jpg","img/neutralC/CFD-BF-247-179-N.jpg","img/neutralC/CFD-LM-213-061-N.jpg","1","1","1","1","0","0","0.465014799992787","0.664182400010759","0.527657099999487","1","1","1","1","1","1","1","1","1"
"250020","img/neutralC/CFD-LM-213-061-N.jpg","img/neutralC/CFD-BF-011-002-N.jpg","img/neutralC/CFD-WM-248-036-N.jpg","1","1","1","0","1","1","0.527657099999487","0.465014799992787","0.411037399986526","1","1","1","1","1","1","1","1","1"
"250020","img/neutralC/CFD-WM-248-036-N.jpg","img/neutralC/CFD-LM-213-061-N.jpg","img/neutralC/CFD-BF-006-017-N.jpg","1","1","1","1","0","0","0.411037399986526","0.527657099999487","0.471526200009976","1","1","1","1","1","1","1","1","1"
"250020","img/neutralC/CFD-BF-006-017-N.jpg","img/neutralC/CFD-WM-248-036-N.jpg",NA,"1","1",NA,"0","1",NA,"0.471526200009976","0.411037399986526",NA,"1","1",NA,"1","1",NA,"1","1",NA
"250020","img/neutralC/CFD-LF-241-188-N.jpg",NA,"img/neutralC/CFD-BF-045-003-N.jpg","1",NA,"1","0",NA,"0","2.52957330000936",NA,"0.7166212000011","1",NA,"1","1",NA,"1","1",NA,"1"
"250020","img/neutralC/CFD-BF-045-003-N.jpg","img/neutralC/CFD-LF-241-188-N.jpg","img/neutralC/CFD-WF-223-133-N.jpg","1","1","1","0","0","0","0.7166212000011","2.52957330000936","0.511080600001151","1","1","1","1","1","1","1","1","1"
"250020","img/neutralC/CFD-WF-223-133-N.jpg","img/neutralC/CFD-BF-045-003-N.jpg","img/neutralC/CFD-AF-210-050-N.jpg","1","1","1","0","0","1","0.511080600001151","0.7166212000011","0.381440800003475","1","1","1","1","1","1","1","1","1"
"250020","img/neutralC/CFD-AF-210-050-N.jpg","img/neutralC/CFD-WF-223-133-N.jpg","img/neutralC/CFD-IM-659-359-N.jpg","1","1","1","1","0","0","0.381440800003475","0.511080600001151","0.450254399998812","1","1","1","1","1","1","1","1","1"
"250020","img/neutralC/CFD-IM-659-359-N.jpg","img/neutralC/CFD-AF-210-050-N.jpg","img/neutralC/CFD-LM-238-129-N.jpg","1","1","1","0","1","1","0.450254399998812","0.381440800003475","0.445768200006569","1","1","1","1","1","1","1","1","1"
"250020","img/neutralC/CFD-LM-238-129-N.jpg","img/neutralC/CFD-IM-659-359-N.jpg","img/neutralC/CFD-BM-013-002-N.jpg","1","1","1","1","0","1","0.445768200006569","0.450254399998812","0.374684899987187","1","1","1","1","1","1","1","1","1"
"250020","img/neutralC/CFD-BM-013-002-N.jpg","img/neutralC/CFD-LM-238-129-N.jpg","img/neutralC/CFD-BM-028-002-N.jpg","1","1","1","1","1","1","0.374684899987187","0.445768200006569","0.305716600007145","1","1","1","1","1","1","1","1","1"
"250020","img/neutralC/CFD-BM-028-002-N.jpg","img/neutralC/CFD-BM-013-002-N.jpg","img/neutralC/CFD-IM-701-312-N.jpg","1","1","0","1","1","0","0.305716600007145","0.374684899987187","0.397253600007389","1","1","1","1","1","1","1","1","2"
"250020","img/neutralC/CFD-IM-701-312-N.jpg","img/neutralC/CFD-BM-028-002-N.jpg","img/neutralC/CFD-BM-003-003-N.jpg","0","1","1","0","1","0","0.397253600007389","0.305716600007145","0.519558100000722","1","1","1","1","1","1","2","1","1"
"250020","img/neutralC/CFD-BM-003-003-N.jpg","img/neutralC/CFD-IM-701-312-N.jpg","img/neutralC/CFD-AM-221-184-N.jpg","1","0","1","0","0","1","0.519558100000722","0.397253600007389","0.494579000020167","1","1","1","1","1","1","1","2","1"
"250020","img/neutralC/CFD-AM-221-184-N.jpg","img/neutralC/CFD-BM-003-003-N.jpg","img/neutralC/CFD-BM-213-134-N.jpg","1","1","1","1","0","1","0.494579000020167","0.519558100000722","0.694959399988875","1","1","1","1","1","1","1","1","1"
"250020","img/neutralC/CFD-BM-213-134-N.jpg","img/neutralC/CFD-AM-221-184-N.jpg","img/neutralC/CFD-IF-673-389-N.jpg","1","1","1","1","1","0","0.694959399988875","0.494579000020167","0.585109999985434","1","1","1","1","1","1","1","1","1"
"250020","img/neutralC/CFD-IF-673-389-N.jpg","img/neutralC/CFD-BM-213-134-N.jpg","img/neutralC/CFD-WF-033-002-N.jpg","1","1","1","0","1","1","0.585109999985434","0.694959399988875","0.487386399996467","1","1","1","1","1","1","1","1","1"
"250020","img/neutralC/CFD-WF-033-002-N.jpg","img/neutralC/CFD-IF-673-389-N.jpg","img/neutralC/CFD-LM-247-095-N.jpg","1","1","1","1","0","0","0.487386399996467","0.585109999985434","0.565690099989297","1","1","1","1","1","1","1","1","1"
"250020","img/neutralC/CFD-LM-247-095-N.jpg","img/neutralC/CFD-WF-033-002-N.jpg","img/neutralC/CFD-AF-239-171-N.jpg","1","1","1","0","1","1","0.565690099989297","0.487386399996467","0.732278400013456","1","1","1","1","1","1","1","1","1"
"250020","img/neutralC/CFD-AF-239-171-N.jpg","img/neutralC/CFD-LM-247-095-N.jpg","img/neutralC/CFD-WM-202-107-N.jpg","1","1","1","1","0","1","0.732278400013456","0.565690099989297","0.600572700001067","1","1","1","1","1","1","1","1","1"
"250020","img/neutralC/CFD-WM-202-107-N.jpg","img/neutralC/CFD-AF-239-171-N.jpg","img/neutralC/CFD-LF-208-127-N.jpg","1","1","1","1","1","0","0.600572700001067","0.732278400013456","0.590345700009493","1","1","1","1","1","1","1","1","1"
"250020","img/neutralC/CFD-LF-208-127-N.jpg","img/neutralC/CFD-WM-202-107-N.jpg","img/neutralC/CFD-MF-312-002-N.jpg","1","1","1","0","1","1","0.590345700009493","0.600572700001067","0.441558799997438","1","1","1","1","1","1","1","1","1"
"250020","img/neutralC/CFD-MF-312-002-N.jpg","img/neutralC/CFD-LF-208-127-N.jpg","img/neutralC/CFD-IF-625-225-N.jpg","1","1","1","1","0","0","0.441558799997438","0.590345700009493","0.59474160001264","1","1","1","1","1","1","1","1","1"
"250020","img/neutralC/CFD-IF-625-225-N.jpg","img/neutralC/CFD-MF-312-002-N.jpg","img/neutralC/CFD-MF-336-016-N.jpg","1","1","1","0","1","1","0.59474160001264","0.441558799997438","0.423434099997394","1","1","1","1","1","1","1","1","1"
"250020","img/neutralC/CFD-MF-336-016-N.jpg","img/neutralC/CFD-IF-625-225-N.jpg","img/neutralC/CFD-BM-010-003-N.jpg","1","1","1","1","0","0","0.423434099997394","0.59474160001264","0.543543000007048","1","1","1","1","1","1","1","1","1"
"250020","img/neutralC/CFD-BM-010-003-N.jpg","img/neutralC/CFD-MF-336-016-N.jpg","img/neutralC/CFD-BF-004-014-N.jpg","1","1","1","0","1","1","0.543543000007048","0.423434099997394","0.428690999979153","1","1","1","1","1","1","1","1","1"
"250020","img/neutralC/CFD-BF-004-014-N.jpg","img/neutralC/CFD-BM-010-003-N.jpg","img/neutralC/CFD-LF-210-220-N.jpg","1","1","1","1","0","1","0.428690999979153","0.543543000007048","0.42826210000203","1","1","1","1","1","1","1","1","1"
"250020","img/neutralC/CFD-LF-210-220-N.jpg","img/neutralC/CFD-BF-004-014-N.jpg","img/neutralC/CFD-WF-006-002-N.jpg","1","1","1","1","1","0","0.42826210000203","0.428690999979153","0.632884099992225","1","1","1","1","1","1","1","1","1"
"250020","img/neutralC/CFD-WF-006-002-N.jpg","img/neutralC/CFD-LF-210-220-N.jpg","img/neutralC/CFD-IM-738-191-N.jpg","1","1","1","0","1","0","0.632884099992225","0.42826210000203","0.478648299991619","1","1","1","1","1","1","1","1","1"
"250020","img/neutralC/CFD-IM-738-191-N.jpg","img/neutralC/CFD-WF-006-002-N.jpg","img/neutralC/CFD-WM-254-152-N.jpg","1","1","1","0","0","1","0.478648299991619","0.632884099992225","0.477047099993797","1","1","1","1","1","1","1","1","1"
"250020","img/neutralC/CFD-WM-254-152-N.jpg","img/neutralC/CFD-IM-738-191-N.jpg","img/neutralC/CFD-AF-227-207-N.jpg","1","1","1","1","0","1","0.477047099993797","0.478648299991619","0.473171299992828","1","1","1","1","1","1","1","1","1"
"250020","img/neutralC/CFD-AF-227-207-N.jpg","img/neutralC/CFD-WM-254-152-N.jpg","img/neutralC/CFD-IF-744-114-N.jpg","1","1","1","1","1","0","0.473171299992828","0.477047099993797","0.568672699999297","1","1","1","1","1","1","1","1","1"
"250020","img/neutralC/CFD-IF-744-114-N.jpg","img/neutralC/CFD-AF-227-207-N.jpg","img/neutralC/CFD-LF-225-164-N.jpg","1","1","1","0","1","1","0.568672699999297","0.473171299992828","0.451754800014896","1","1","1","1","1","1","1","1","1"
"250020","img/neutralC/CFD-LF-225-164-N.jpg","img/neutralC/CFD-IF-744-114-N.jpg","img/neutralC/CFD-BF-222-240-N.jpg","1","1","1","1","0","0","0.451754800014896","0.568672699999297","0.669448000000557","1","1","1","1","1","1","1","1","1"
"250020","img/neutralC/CFD-BF-222-240-N.jpg","img/neutralC/CFD-LF-225-164-N.jpg","img/neutralC/CFD-WM-228-065-N.jpg","1","1","1","0","1","0","0.669448000000557","0.451754800014896","0.520745999994688","1","1","1","1","1","1","1","1","1"
"250020","img/neutralC/CFD-WM-228-065-N.jpg","img/neutralC/CFD-BF-222-240-N.jpg",NA,"1","1",NA,"0","0",NA,"0.520745999994688","0.669448000000557",NA,"1","1",NA,"1","1",NA,"1","1",NA
