"participant_id","face","surpAcc","memory_surp_responses","memory_surp_rt","keep_surp_memory_trial_based_on_rt","surp_block_num","exclude_block","number_of_surp_resp_items_used","num_blocks_excluded"
"250053","img/neutralC/CFD-BM-239-136-N.jpg","0","k","4.41894100001082",1,1,0,2,0
"250053","img/neutralC/CFD-BF-012-001-N.jpg","0","s","2.30059539998183",1,1,0,2,0
"250053","img/neutralC/CFD-LF-225-164-N.jpg","0","s","2.05123810001533",1,1,0,2,0
"250053","img/neutralC/CFD-WM-212-097-N.jpg","1","s","1.85782470001141",1,1,0,2,0
"250053","img/neutralC/CFD-BM-213-134-N.jpg","1","s","1.70397600001888",1,1,0,2,0
"250053","img/neutralC/CFD-MF-300-002-N.jpg","0","k","2.84580189999542",1,1,0,2,0
"250053","img/neutralC/CFD-AM-219-101-N.jpg","0","k","2.15356750000501",1,1,0,2,0
"250053","img/neutralC/CFD-IF-660-464-N.jpg","1","s","2.61833950001164",1,1,0,2,0
"250053","img/neutralC/CFD-WM-215-041-N.jpg","0","k","2.78248749999329",1,1,0,2,0
"250053","img/neutralC/CFD-MF-307-002-N.jpg","1","k","1.01740380001138",1,1,0,2,0
"250053","img/neutralC/CFD-LF-245-166-N.jpg","0","s","1.69470749999164",1,1,0,2,0
"250053","img/neutralC/CFD-BM-253-004-N.jpg","0","s","1.1649374999979",1,1,0,2,0
"250053","img/neutralC/CFD-IM-700-009-N.jpg","0","s","1.75506349999341",1,1,0,2,0
"250053","img/neutralC/CFD-BM-020-001-N.jpg","1","k","3.49971429997822",1,1,0,2,0
"250053","img/neutralC/CFD-MM-304-002-N.jpg","0","s","2.20348499997635",1,1,0,2,0
"250053","img/neutralC/CFD-WM-227-099-N.jpg","1","s","1.1341883999994",1,1,0,2,0
"250053","img/neutralC/CFD-BM-238-242-N.jpg","1","k","1.76705850000144",1,1,0,2,0
"250053","img/neutralC/CFD-WF-213-031-N.jpg","0","s","1.78671730001224",1,1,0,2,0
"250053","img/neutralC/CFD-WM-034-030-N.jpg","1","k","2.26787020001211",1,1,0,2,0
"250053","img/neutralC/CFD-WM-012-001-N.jpg","1","s","0.993005700001959",1,1,0,2,0
"250053","img/neutralC/CFD-BM-004-002-N.jpg","1","k","1.92991190002067",1,1,0,2,0
"250053","img/neutralC/CFD-BM-009-002-N.jpg","0","s","1.64294289998361",1,1,0,2,0
"250053","img/neutralC/CFD-WM-020-001-N.jpg","0","s","1.68083669999032",1,1,0,2,0
"250053","img/neutralC/CFD-MF-305-014-N.jpg","1","s","1.82207270001527",1,1,0,2,0
"250053","img/neutralC/CFD-BM-227-191-N.jpg","1","s","1.56395370000973",1,1,0,2,0
"250053","img/neutralC/CFD-IM-632-097-N.jpg","1","k","1.08244840000407",1,1,0,2,0
"250053","img/neutralC/CFD-AF-246-242-N.jpg","1","s","2.15615860000253",1,1,0,2,0
"250053","img/neutralC/CFD-AM-233-236-N.jpg","1","s","1.13360179998563",1,1,0,2,0
"250053","img/neutralC/CFD-IM-707-105-N.jpg","0","k","0.943211899982998",1,1,0,2,0
"250053","img/neutralC/CFD-BF-205-141-N.jpg","1","s","1.47854940002435",1,1,0,2,0
"250053","img/neutralC/CFD-IM-657-308-N.jpg","0","k","1.80206210000324",1,1,0,2,0
"250053","img/neutralC/CFD-WM-033-025-N.jpg","1","k","1.22909629999776",1,1,0,2,0
"250053","img/neutralC/CFD-LM-247-095-N.jpg","1","k","1.72081569998409",1,1,0,2,0
"250053","img/neutralC/CFD-WM-004-010-N.jpg","1","s","2.13030469999649",1,1,0,2,0
"250053","img/neutralC/CFD-WM-023-001-N.jpg","0","k","4.07694490000722",1,1,0,2,0
"250053","img/neutralC/CFD-IM-674-281-N.jpg","1","k","1.4487427000131",1,1,0,2,0
"250053","img/neutralC/CFD-WF-244-163-N.jpg","0","s","0.984856100025354",1,1,0,2,0
"250053","img/neutralC/CFD-WF-001-003-N.jpg","1","s","1.18895660000271",1,1,0,2,0
"250053","img/neutralC/CFD-WM-028-003-N.jpg","1","s","1.75452260000748",1,1,0,2,0
"250053","img/neutralC/CFD-WF-250-167-N.jpg","0","k","1.26631510001607",1,1,0,2,0
"250053","img/neutralC/CFD-WF-030-002-N.jpg","0","k","1.05514050001511",1,1,0,2,0
"250053","img/neutralC/CFD-WF-234-086-N.jpg","0","k","1.43113809998613",1,1,0,2,0
"250053","img/neutralC/CFD-LF-204-133-N.jpg","0","k","1.42366050000419",1,1,0,2,0
"250053","img/neutralC/CFD-IM-617-174-N.jpg","0","s","3.56297260001884",1,1,0,2,0
"250053","img/neutralC/CFD-AF-253-130-N.jpg","1","s","2.78563649998978",1,1,0,2,0
"250053","img/neutralC/CFD-IM-671-601-N.jpg","1","s","0.97409350000089",1,1,0,2,0
"250053","img/neutralC/CFD-IF-744-114-N.jpg","0","k","3.87324200000148",1,1,0,2,0
"250053","img/neutralC/CFD-WF-233-112-N.jpg","1","s","1.78832560000592",1,1,0,2,0
"250053","img/neutralC/CFD-BF-051-035-N.jpg","1","k","1.23257749999175",1,2,0,2,0
"250053","img/neutralC/CFD-AM-211-052-N.jpg","1","s","1.18951530000777",1,2,0,2,0
"250053","img/neutralC/CFD-IM-627-178-N.jpg","1","k","3.3796153999865",1,2,0,2,0
"250053","img/neutralC/CFD-MM-319-052-N.jpg","1","s","4.36116639999091",1,2,0,2,0
"250053","img/neutralC/CFD-IM-664-651-N.jpg","0","s","2.25033000000985",1,2,0,2,0
"250053","img/neutralC/CFD-BM-026-002-N.jpg","1","s","1.88293490000069",1,2,0,2,0
"250053","img/neutralC/CFD-BM-023-029-N.jpg","0","k","2.27682179998374",1,2,0,2,0
"250053","img/neutralC/CFD-LF-224-176-N.jpg","1","s","3.36287929999526",1,2,0,2,0
"250053","img/neutralC/CFD-BM-003-003-N.jpg","0","s","2.62033919998794",1,2,0,2,0
"250053","img/neutralC/CFD-MF-321-003-N.jpg","0","k","0.944039900001371",1,2,0,2,0
"250053","img/neutralC/CFD-WF-208-068-N.jpg","1","k","1.01716230000602",1,2,0,2,0
"250053","img/neutralC/CFD-LM-213-061-N.jpg","0","s","0.338430400006473",1,2,0,2,0
"250053","img/neutralC/CFD-BM-207-024-N.jpg","0","s","1.37037000001874",1,2,0,2,0
"250053","img/neutralC/CFD-IM-667-369-N.jpg","0","k","3.38973250001436",1,2,0,2,0
"250053","img/neutralC/CFD-WF-023-003-N.jpg","1","s","4.13672769998084",1,2,0,2,0
"250053","img/neutralC/CFD-AF-250-200-N.jpg","0","s","1.22597460000543",1,2,0,2,0
"250053","img/neutralC/CFD-WF-240-083-N.jpg","0","k","3.04039300000295",1,2,0,2,0
"250053","img/neutralC/CFD-MM-306-010-N.jpg","0","s","3.85383829998318",1,2,0,2,0
"250053","img/neutralC/CFD-IF-693-172-N.jpg","1","s","2.71304410000448",1,2,0,2,0
"250053","img/neutralC/CFD-BF-044-034-N.jpg","0","s","1.15870940001332",1,2,0,2,0
"250053","img/neutralC/CFD-IM-669-111-N.jpg","1","s","1.06396810000297",1,2,0,2,0
"250053","img/neutralC/CFD-WM-015-002-N.jpg","1","k","1.52616690000286",1,2,0,2,0
"250053","img/neutralC/CFD-IF-634-382-N.jpg","0","k","1.16207039999426",1,2,0,2,0
"250053","img/neutralC/CFD-WM-242-011-N.jpg","1","s","0.724339200009126",1,2,0,2,0
"250053","img/neutralC/CFD-IM-651-308-N.jpg","0","k","0.537959000008414",1,2,0,2,0
"250053","img/neutralC/CFD-BM-030-003-N.jpg","1","s","1.36199710000074",1,2,0,2,0
"250053","img/neutralC/CFD-BM-015-015-N.jpg","0","s","1.46430479999981",1,2,0,2,0
"250053","img/neutralC/CFD-AF-239-171-N.jpg","1","k","1.4544343999878",1,2,0,2,0
"250053","img/neutralC/CFD-IF-710-016-N.jpg","0","s","0.598950700019486",1,2,0,2,0
"250053","img/neutralC/CFD-BM-217-082-N.jpg","0","k","0.547950899985153",1,2,0,2,0
"250053","img/neutralC/CFD-WM-248-036-N.jpg","1","s","1.43292380002094",1,2,0,2,0
"250053","img/neutralC/CFD-WM-219-008-N.jpg","1","s","1.20116749999579",1,2,0,2,0
"250053","img/neutralC/CFD-BM-036-003-N.jpg","0","s","0.737883400026476",1,2,0,2,0
"250053","img/neutralC/CFD-IF-718-001-N.jpg","1","k","1.26714020001236",1,2,0,2,0
"250053","img/neutralC/CFD-LM-241-125-N.jpg","0","k","2.3175893999869",1,2,0,2,0
"250053","img/neutralC/CFD-WM-228-065-N.jpg","0","k","1.00884029999725",1,2,0,2,0
"250053","img/neutralC/CFD-IF-672-305-N.jpg","1","k","1.97995040001115",1,2,0,2,0
"250053","img/neutralC/CFD-BF-218-207-N.jpg","0","s","1.19004269997822",1,2,0,2,0
"250053","img/neutralC/CFD-LM-237-264-N.jpg","0","s","1.56105399999069",1,2,0,2,0
"250053","img/neutralC/CFD-IM-689-263-N.jpg","0","k","1.48253769997973",1,2,0,2,0
"250053","img/neutralC/CFD-IF-665-015-N.jpg","1","k","3.98598909997963",1,2,0,2,0
"250053","img/neutralC/CFD-WF-200-099-N.jpg","0","k","2.10475629998837",1,2,0,2,0
"250053","img/neutralC/CFD-WM-019-003-N.jpg","0","k","5.58040080001228",1,2,0,2,0
"250053","img/neutralC/CFD-WF-033-002-N.jpg","0","s","2.96405530002085",1,2,0,2,0
"250053","img/neutralC/CFD-WM-017-002-N.jpg","0","k","0.879199400020298",1,2,0,2,0
"250053","img/neutralC/CFD-BF-043-003-N.jpg","0","k","1.81195650002337",1,2,0,2,0
"250053","img/neutralC/CFD-MF-313-002-N.jpg","1","k","6.85032590001356",1,2,0,2,0
"250053","img/neutralC/CFD-WM-009-002-N.jpg","0","k","1.40786899998784",1,2,0,2,0
"250053","img/neutralC/CFD-LF-241-188-N.jpg","0","s","1.24178030001349",1,3,0,2,0
"250053","img/neutralC/CFD-AM-225-102-N.jpg","0","k","4.10026629999629",1,3,0,2,0
"250053","img/neutralC/CFD-AM-242-176-N.jpg","1","s","1.36978089998593",1,3,0,2,0
"250053","img/neutralC/CFD-LM-204-001-N.jpg","1","s","1.58219439999084",1,3,0,2,0
"250053","img/neutralC/CFD-AF-227-207-N.jpg","1","s","3.32352139998693",1,3,0,2,0
"250053","img/neutralC/CFD-BM-251-013-N.jpg","1","k","2.63330829999177",1,3,0,2,0
"250053","img/neutralC/CFD-WM-038-003-N.jpg","1","s","2.73114250000799",1,3,0,2,0
"250053","img/neutralC/CFD-BF-045-003-N.jpg","0","k","1.09249539999291",1,3,0,2,0
"250053","img/neutralC/CFD-BM-039-029-N.jpg","1","k","2.39522969999234",1,3,0,2,0
"250053","img/neutralC/CFD-AM-251-124-N.jpg","1","k","3.66966129999491",1,3,0,2,0
"250053","img/neutralC/CFD-AF-213-126-N.jpg","0","s","1.30759010001202",1,3,0,2,0
"250053","img/neutralC/CFD-BF-238-190-N.jpg","0","s","1.39245280000614",1,3,0,2,0
"250053","img/neutralC/CFD-WM-202-107-N.jpg","0","k","1.8961298999784",1,3,0,2,0
"250053","img/neutralC/CFD-IM-639-263-N.jpg","1","s","2.06936120000319",1,3,0,2,0
"250053","img/neutralC/CFD-IM-738-191-N.jpg","0","s","1.17046779999509",1,3,0,2,0
"250053","img/neutralC/CFD-BF-033-028-N.jpg","1","k","1.54540400000405",1,3,0,2,0
"250053","img/neutralC/CFD-WM-213-076-N.jpg","1","k","1.60738920001313",1,3,0,2,0
"250053","img/neutralC/CFD-AF-232-078-N.jpg","1","k","1.52758329999051",1,3,0,2,0
"250053","img/neutralC/CFD-AF-244-168-N.jpg","1","s","0.959708599984879",1,3,0,2,0
"250053","img/neutralC/CFD-BM-005-003-N.jpg","0","s","2.98891620000359",1,3,0,2,0
"250053","img/neutralC/CFD-BF-208-266-N.jpg","1","s","1.38519420000375",1,3,0,2,0
"250053","img/neutralC/CFD-WM-255-219-N.jpg","0","k","0.987773000000743",1,3,0,2,0
"250053","img/neutralC/CFD-WM-014-002-N.jpg","1","k","1.55063370001153",1,3,0,2,0
"250053","img/neutralC/CFD-IM-680-369-N.jpg","0","k","1.50751549997949",1,3,0,2,0
"250053","img/neutralC/CFD-AM-212-050-N.jpg","1","s","1.13456120001501",1,3,0,2,0
"250053","img/neutralC/CFD-BF-038-037-N.jpg","0","k","2.86010920000263",1,3,0,2,0
"250053","img/neutralC/CFD-LM-216-082-N.jpg","1","s","0.543851099995663",1,3,0,2,0
"250053","img/neutralC/CFD-LF-255-088-N.jpg","1","s","1.22921320001478",1,3,0,2,0
"250053","img/neutralC/CFD-BF-025-002-N.jpg","0","k","1.06604780000634",1,3,0,2,0
"250053","img/neutralC/CFD-MM-316-156-N.jpg","1","s","1.2143575999944",1,3,0,2,0
"250053","img/neutralC/CFD-LF-206-078-N.jpg","1","k","0.636166200012667",1,3,0,2,0
"250053","img/neutralC/CFD-WF-026-002-N.jpg","1","s","0.162412100005895",0,3,0,2,0
"250053","img/neutralC/CFD-WF-008-002-N.jpg","1","k","2.41280759999063",1,3,0,2,0
"250053","img/neutralC/CFD-WM-209-038-N.jpg","1","k","1.54648299998371",1,3,0,2,0
"250053","img/neutralC/CFD-LM-217-162-N.jpg","0","k","2.91975100000855",1,3,0,2,0
"250053","img/neutralC/CFD-IM-701-312-N.jpg","1","k","1.85736069999984",1,3,0,2,0
"250053","img/neutralC/CFD-IF-673-389-N.jpg","1","k","1.70746659999713",1,3,0,2,0
"250053","img/neutralC/CFD-IF-677-452-1-N.jpg","0","s","1.35499100000015",1,3,0,2,0
"250053","img/neutralC/CFD-MM-321-021-N.jpg","1","s","1.30791870001121",1,3,0,2,0
"250053","img/neutralC/CFD-WM-254-152-N.jpg","1","k","2.11705739999888",1,3,0,2,0
"250053","img/neutralC/CFD-BF-027-002-N.jpg","0","k","1.12643609999213",1,3,0,2,0
"250053","img/neutralC/CFD-WF-036-023-N.jpg","0","k","3.42713329999242",1,3,0,2,0
"250053","img/neutralC/CFD-BF-003-003-N.jpg","0","s","1.06661209999584",1,3,0,2,0
"250053","img/neutralC/CFD-WM-258-125-N.jpg","0","s","1.34058960000402",1,3,0,2,0
"250053","img/neutralC/CFD-IM-659-359-N.jpg","1","k","1.06745179998688",1,3,0,2,0
"250053","img/neutralC/CFD-BF-004-014-N.jpg","1","s","1.21456399999443",1,3,0,2,0
"250053","img/neutralC/CFD-BF-018-039-N.jpg","1","k","1.20620789998793",1,3,0,2,0
"250053","img/neutralC/CFD-BF-255-140-N.jpg","0","s","0.65428270000848",1,3,0,2,0
"250053","img/neutralC/CFD-BF-039-031-N.jpg","1","s","3.69896239999798",1,4,0,2,0
"250053","img/neutralC/CFD-IM-696-001-N.jpg","1","k","0.278638499992667",1,4,0,2,0
"250053","img/neutralC/CFD-WM-253-119-N.jpg","0","s","0.235185600002296",1,4,0,2,0
"250053","img/neutralC/CFD-BM-247-240-N.jpg","1","s","0.992335200018715",1,4,0,2,0
"250053","img/neutralC/CFD-LF-212-066-N.jpg","1","s","2.22073189998628",1,4,0,2,0
"250053","img/neutralC/CFD-AM-247-165-N.jpg","1","s","1.2534408000065",1,4,0,2,0
"250053","img/neutralC/CFD-LM-238-129-N.jpg","0","s","1.17945279998821",1,4,0,2,0
"250053","img/neutralC/CFD-WF-238-023-N.jpg","0","k","2.03615479997825",1,4,0,2,0
"250053","img/neutralC/CFD-LM-226-175-N.jpg","0","k","1.90767660000711",1,4,0,2,0
"250053","img/neutralC/CFD-WF-006-002-N.jpg","1","k","1.28751380002359",1,4,0,2,0
"250053","img/neutralC/CFD-BM-001-014-N.jpg","0","s","0.788131199980853",1,4,0,2,0
"250053","img/neutralC/CFD-BM-018-001-N.jpg","1","s","1.03882119999616",1,4,0,2,0
"250053","img/neutralC/CFD-MF-318-022-N.jpg","1","s","1.19538150000153",1,4,0,2,0
"250053","img/neutralC/CFD-AF-237-223-N.jpg","0","k","1.99958860001061",1,4,0,2,0
"250053","img/neutralC/CFD-BF-212-315-N.jpg","0","s","0.834473399998387",1,4,0,2,0
"250053","img/neutralC/CFD-WM-024-015-N.jpg","1","k","0.359374699997716",1,4,0,2,0
"250053","img/neutralC/CFD-AM-245-111-N.jpg","0","s","1.03166849998524",1,4,0,2,0
"250053","img/neutralC/CFD-LM-243-075-N.jpg","0","k","1.62758060000488",1,4,0,2,0
"250053","img/neutralC/CFD-BF-226-119-N.jpg","1","s","1.20936529999017",1,4,0,2,0
"250053","img/neutralC/CFD-BM-250-170-N.jpg","0","s","0.98693590000039",1,4,0,2,0
"250053","img/neutralC/CFD-AM-235-241-N.jpg","1","s","1.37274920000345",1,4,0,2,0
"250053","img/neutralC/CFD-AF-221-147-N.jpg","0","s","1.27019790001214",1,4,0,2,0
"250053","img/neutralC/CFD-WM-018-002-N.jpg","1","k","2.82567200000631",1,4,0,2,0
"250053","img/neutralC/CFD-MF-335-002-N.jpg","1","k","1.2756698000012",1,4,0,2,0
"250053","img/neutralC/CFD-BM-013-002-N.jpg","0","k","1.20504359999904",1,4,0,2,0
"250053","img/neutralC/CFD-WF-007-001-N.jpg","0","s","1.11526709998725",1,4,0,2,0
"250053","img/neutralC/CFD-MF-309-002-N.jpg","0","s","2.42262130000745",1,4,0,2,0
"250053","img/neutralC/CFD-LM-219-295-N.jpg","1","k","1.40699119999772",1,4,0,2,0
"250053","img/neutralC/CFD-LM-218-183-N.jpg","0","s","1.58220790000632",1,4,0,2,0
"250053","img/neutralC/CFD-IM-675-015-N.jpg","1","k","1.89607769998838",1,4,0,2,0
"250053","img/neutralC/CFD-BF-020-002-N.jpg","0","k","1.25215630000457",1,4,0,2,0
"250053","img/neutralC/CFD-WF-235-121-N.jpg","0","s","1.09119839998311",1,4,0,2,0
"250053","img/neutralC/CFD-AF-215-70-N.jpg","1","k","2.45675219999976",1,4,0,2,0
"250053","img/neutralC/CFD-LF-214-090-N.jpg","1","s","0.653665299993008",1,4,0,2,0
"250053","img/neutralC/CFD-BF-028-001-N.jpg","1","k","0.987459299998591",1,4,0,2,0
"250053","img/neutralC/CFD-AM-230-150-N.jpg","1","s","0.596107400022447",1,4,0,2,0
"250053","img/neutralC/CFD-LM-200-045-N.jpg","0","k","1.85686840000562",1,4,0,2,0
"250053","img/neutralC/CFD-LF-208-127-N.jpg","1","s","1.07187099999283",1,4,0,2,0
"250053","img/neutralC/CFD-WF-226-095-N.jpg","0","k","1.08902590000071",1,4,0,2,0
"250053","img/neutralC/CFD-LF-222-147-N.jpg","1","s","1.32704340000055",1,4,0,2,0
"250053","img/neutralC/CFD-IM-703-182-N.jpg","1","s","2.08515959998476",1,4,0,2,0
"250053","img/neutralC/CFD-MF-301-024-N.jpg","0","s","1.04023210000014",1,4,0,2,0
"250053","img/neutralC/CFD-AF-229-160-N.jpg","0","s","1.8439319000172",1,4,0,2,0
"250053","img/neutralC/CFD-BF-002-001-N.jpg","1","s","1.25123530000565",1,4,0,2,0
"250053","img/neutralC/CFD-BF-232-187-N.jpg","0","k","1.39356319999206",1,4,0,2,0
"250053","img/neutralC/CFD-BF-010-001-N.jpg","0","s","1.08815690001938",1,4,0,2,0
"250053","img/neutralC/CFD-WF-209-052-N.jpg","1","s","2.77754130001995",1,4,0,2,0
"250053","img/neutralC/CFD-WM-006-002-N.jpg","1","k","1.35342990001664",1,4,0,2,0
"250053","img/neutralC/CFD-WM-249-239-N.jpg","1","k","1.600225400005",1,5,0,2,0
"250053","img/neutralC/CFD-WM-221-091-N.jpg","0","k","1.39329639999778",1,5,0,2,0
"250053","img/neutralC/CFD-BF-201-080-N.jpg","0","k","1.25809930000105",1,5,0,2,0
"250053","img/neutralC/CFD-MF-336-016-N.jpg","1","k","1.06806180000422",1,5,0,2,0
"250053","img/neutralC/CFD-BF-207-004-N.jpg","1","s","0.909563799999887",1,5,0,2,0
"250053","img/neutralC/CFD-MF-328-020-N.jpg","1","s","1.28755420001107",1,5,0,2,0
"250053","img/neutralC/CFD-LF-242-121-N.jpg","0","s","1.79012490002788",1,5,0,2,0
"250053","img/neutralC/CFD-IM-638-250-1-N.jpg","1","s","0.506432299996959",1,5,0,2,0
"250053","img/neutralC/CFD-WF-027-003-N.jpg","0","k","0.314710299979197",1,5,0,2,0
"250053","img/neutralC/CFD-LM-244-068-N.jpg","0","s","0.428956599993398",1,5,0,2,0
"250053","img/neutralC/CFD-BF-236-177-N.jpg","1","s","1.24933960000635",1,5,0,2,0
"250053","img/neutralC/CFD-WF-224-099-N.jpg","0","k","0.471269800007576",1,5,0,2,0
"250053","img/neutralC/CFD-WF-243-148-N.jpg","0","s","1.41450280000572",1,5,0,2,0
"250053","img/neutralC/CFD-AM-236-090-N.jpg","1","s","1.62913349998416",1,5,0,2,0
"250053","img/neutralC/CFD-WM-021-001-N.jpg","0","k","0.28683440000168",1,5,0,2,0
"250053","img/neutralC/CFD-BM-029-024-N.jpg","0","s","0.268917500012321",1,5,0,2,0
"250053","img/neutralC/CFD-WF-002-004-N.jpg","0","s","0.924807999981567",1,5,0,2,0
"250053","img/neutralC/CFD-WM-225-127-N.jpg","1","k","1.23434269998688",1,5,0,2,0
"250053","img/neutralC/CFD-AF-254-167-N.jpg","1","s","2.0456056999974",1,5,0,2,0
"250053","img/neutralC/CFD-AF-240-206-N.jpg","0","k","0.278445100004319",1,5,0,2,0
"250053","img/neutralC/CFD-AM-221-184-N.jpg","0","s","0.0220588000083808",0,5,0,2,0
"250053","img/neutralC/CFD-WF-228-196-N.jpg","0","s","1.08513659998425",1,5,0,2,0
"250053","img/neutralC/CFD-IM-635-010-N.jpg","1","k","0.303734600020107",1,5,0,2,0
"250053","img/neutralC/CFD-BM-027-001-N.jpg","1","s","0.248702899989439",1,5,0,2,0
"250053","img/neutralC/CFD-IM-743-006-N.jpg","0","k","0.299700000003213",1,5,0,2,0
"250053","img/neutralC/CFD-WF-207-014-N.jpg","0","k","1.21900389998336",1,5,0,2,0
"250053","img/neutralC/CFD-BF-202-109-N.jpg","1","s","1.97211179998703",1,5,0,2,0
"250053","img/neutralC/CFD-LM-252-076-N.jpg","1","s","0.974774999980582",1,5,0,2,0
"250053","img/neutralC/CFD-BF-041-001-N.jpg","1","k","0.995075100014219",1,5,0,2,0
"250053","img/neutralC/CFD-WF-029-002-N.jpg","0","s","0.00893419998465106",0,5,0,2,0
"250053","img/neutralC/CFD-IF-625-225-N.jpg","0","k","0.22455740001169",1,5,0,2,0
"250053","img/neutralC/CFD-AM-220-134-N.jpg","1","s","1.20209960002103",1,5,0,2,0
"250053","img/neutralC/CFD-WF-221-005-N.jpg","0","k","0.37773870001547",1,5,0,2,0
"250053","img/neutralC/CFD-WF-005-010-N.jpg","1","s","1.38005840001279",1,5,0,2,0
"250053","img/neutralC/CFD-IF-642-295-N.jpg","1","k","0.315987499983748",1,5,0,2,0
"250053","img/neutralC/CFD-LF-239-148-N.jpg","1","s","0.669603399990592",1,5,0,2,0
"250053","img/neutralC/CFD-LF-203-066-N.jpg","0","k","0.628310899977805",1,5,0,2,0
"250053","img/neutralC/CFD-IM-684-008-N.jpg","0","s","0.693830300006084",1,5,0,2,0
"250053","img/neutralC/CFD-BM-010-003-N.jpg","1","k","0.326514499989571",1,5,0,2,0
"250053","img/neutralC/CFD-LF-211-003-N.jpg","0","s","0.0933276000141632",0,5,0,2,0
"250053","img/neutralC/CFD-WF-245-084-N.jpg","1","k","3.9121412000095",1,5,0,2,0
"250053","img/neutralC/CFD-IM-606-008-N.jpg","1","s","2.04815049999161",1,5,0,2,0
"250053","img/neutralC/CFD-BF-217-189-N.jpg","0","s","2.04655759999878",1,5,0,2,0
"250053","img/neutralC/CFD-AF-205-155-N.jpg","0","s","3.5947473999986",1,5,0,2,0
"250053","img/neutralC/CFD-AF-233-190-N.jpg","0","s","2.42388570000185",1,5,0,2,0
"250053","img/neutralC/CFD-BF-014-002-N.jpg","1","k","1.33474479999859",1,5,0,2,0
"250053","img/neutralC/CFD-BF-237-172-N.jpg","1","s","0.915287999989232",1,5,0,2,0
"250053","img/neutralC/CFD-MF-340-026-N.jpg","1","k","1.11369359999662",1,5,0,2,0
"250053","img/neutralC/CFD-BF-254-201-N.jpg","1","s","1.82315109999035",1,6,0,2,0
"250053","img/neutralC/CFD-LM-233-171-N.jpg","1","k","1.49780519999331",1,6,0,2,0
"250053","img/neutralC/CFD-LF-247-051-N.jpg","1","s","1.28664879998541",1,6,0,2,0
"250053","img/neutralC/CFD-IF-676-017-N.jpg","0","k","1.71218510001199",1,6,0,2,0
"250053","img/neutralC/CFD-LM-214-165-N.jpg","1","s","1.14123040001141",1,6,0,2,0
"250053","img/neutralC/CFD-IF-620-218-N.jpg","1","k","0.850128799997037",1,6,0,2,0
"250053","img/neutralC/CFD-WF-223-133-N.jpg","1","s","1.21953199998825",1,6,0,2,0
"250053","img/neutralC/CFD-IM-616-214-N.jpg","1","k","0.918849400011823",1,6,0,2,0
"250053","img/neutralC/CFD-IF-629-234-N.jpg","1","s","0.281088599993382",1,6,0,2,0
"250053","img/neutralC/CFD-AM-244-222-N.jpg","1","k","0.311800600000424",1,6,0,2,0
"250053","img/neutralC/CFD-WF-222-092-N.jpg","1","k","0.941043300001184",1,6,0,2,0
"250053","img/neutralC/CFD-BM-241-235-N.jpg","0","k","0.738969900005031",1,6,0,2,0
"250053","img/neutralC/CFD-LF-250-169-N.jpg","1","s","0.457063900015783",1,6,0,2,0
"250053","img/neutralC/CFD-IM-646-023-N.jpg","1","s","1.38915299999644",1,6,0,2,0
"250053","img/neutralC/CFD-LF-236-221-N.jpg","1","k","1.1334896000044",1,6,0,2,0
"250053","img/neutralC/CFD-BF-222-240-N.jpg","1","k","3.03155569999944",1,6,0,2,0
"250053","img/neutralC/CFD-MF-337-026-N.jpg","1","k","3.54365829998278",1,6,0,2,0
"250053","img/neutralC/CFD-IM-702-101-N.jpg","1","k","1.21598240002641",1,6,0,2,0
"250053","img/neutralC/CFD-WF-241-210-N.jpg","0","s","1.1589008999872",1,6,0,2,0
"250053","img/neutralC/CFD-WM-041-021-N.jpg","1","s","1.18091450000065",1,6,0,2,0
"250053","img/neutralC/CFD-IF-608-390-N.jpg","0","k","0.958156800013967",1,6,0,2,0
"250053","img/neutralC/CFD-AF-202-122-N.jpg","1","k","1.64976229998865",1,6,0,2,0
"250053","img/neutralC/CFD-MF-343-001-N.jpg","0","s","1.37536510001519",1,6,0,2,0
"250053","img/neutralC/CFD-IM-719-221-N.jpg","0","s","1.23007819999475",1,6,0,2,0
"250053","img/neutralC/CFD-BM-225-154-N.jpg","0","s","1.06277779999073",1,6,0,2,0
"250053","img/neutralC/CFD-IM-604-014-N.jpg","1","k","0.93313560000388",1,6,0,2,0
"250053","img/neutralC/CFD-BM-019-002-N.jpg","0","s","0.251924200012581",1,6,0,2,0
"250053","img/neutralC/CFD-IM-637-007-N.jpg","0","k","0.308136799983913",1,6,0,2,0
"250053","img/neutralC/CFD-IM-615-167-N.jpg","0","s","1.23205349998898",1,6,0,2,0
"250053","img/neutralC/CFD-WM-002-009-N.jpg","0","k","1.39882260002196",1,6,0,2,0
"250053","img/neutralC/CFD-LM-215-247-N.jpg","1","s","1.47590330001549",1,6,0,2,0
"250053","img/neutralC/CFD-BF-042-026-N.jpg","1","k","1.82746229998884",1,6,0,2,0
"250053","img/neutralC/CFD-BF-253-202-N.jpg","0","k","1.39099980000174",1,6,0,2,0
"250053","img/neutralC/CFD-LF-218-072-N.jpg","1","k","5.83717870002147",1,6,0,2,0
"250053","img/neutralC/CFD-BM-021-021-N.jpg","1","k","1.12602850000258",1,6,0,2,0
"250053","img/neutralC/CFD-IM-697-015-N.jpg","1","k","0.945074999995995",1,6,0,2,0
"250053","img/neutralC/CFD-BM-215-155-N.jpg","1","k","1.14270759999636",1,6,0,2,0
"250053","img/neutralC/CFD-WF-018-017-N.jpg","0","s","1.4670907999971",1,6,0,2,0
"250053","img/neutralC/CFD-LF-210-220-N.jpg","0","k","1.54581179999514",1,6,0,2,0
"250053","img/neutralC/CFD-WM-237-052-N.jpg","0","k","1.31338769997819",1,6,0,2,0
"250053","img/neutralC/CFD-AF-206-079-N.jpg","0","s","1.09544289999758",1,6,0,2,0
"250053","img/neutralC/CFD-BF-006-017-N.jpg","1","k","1.01340130000608",1,6,0,2,0
"250053","img/neutralC/CFD-BF-214-308-N.jpg","1","s","1.69233689998509",1,6,0,2,0
"250053","img/neutralC/CFD-BM-243-218-N.jpg","0","k","1.11894289997872",1,6,0,2,0
"250053","img/neutralC/CFD-LF-230-203-N.jpg","0","k","1.81250070000533",1,6,0,2,0
"250053","img/neutralC/CFD-MF-302-027-N.jpg","1","s","2.19174510001903",1,6,0,2,0
"250053","img/neutralC/CFD-LF-238-154-N.jpg","0","k","3.4441278000013",1,6,0,2,0
"250053","img/neutralC/CFD-LM-253-075-N.jpg","0","s","0.996686900005443",1,6,0,2,0
"250053","img/neutralC/CFD-BM-200-046-N.jpg","1","s","3.3065656000108",1,7,0,2,0
"250053","img/neutralC/CFD-MF-329-001-N.jpg","0","s","1.793760200002",1,7,0,2,0
"250053","img/neutralC/CFD-MF-316-001-N.jpg","0","s","1.80374309999752",1,7,0,2,0
"250053","img/neutralC/CFD-BF-206-143-N.jpg","1","k","1.22194600000512",1,7,0,2,0
"250053","img/neutralC/CFD-WF-210-086-N.jpg","0","s","1.03650400001789",1,7,0,2,0
"250053","img/neutralC/CFD-BF-029-031-N.jpg","1","k","1.09677590001957",1,7,0,2,0
"250053","img/neutralC/CFD-AF-241-141-N.jpg","0","k","0.853919899993343",1,7,0,2,0
"250053","img/neutralC/CFD-WF-214-122-N.jpg","0","s","0.818667299987283",1,7,0,2,0
"250053","img/neutralC/CFD-BF-213-188-N.jpg","1","k","0.94489430001704",1,7,0,2,0
"250053","img/neutralC/CFD-AF-210-050-N.jpg","1","s","1.4402086000191",1,7,0,2,0
"250053","img/neutralC/CFD-AM-201-076-N.jpg","0","s","1.17960390000371",1,7,0,2,0
"250053","img/neutralC/CFD-WM-232-070-N.jpg","0","s","2.44398380001076",1,7,0,2,0
"250053","img/neutralC/CFD-IM-653-008-N.jpg","1","k","1.35251460000291",1,7,0,2,0
"250053","img/neutralC/CFD-LF-205-100-N.jpg","0","s","1.01101039999048",1,7,0,2,0
"250053","img/neutralC/CFD-WM-025-002-N.jpg","0","s","1.20434039999964",1,7,0,2,0
"250053","img/neutralC/CFD-IF-732-260-N.jpg","0","s","1.4800178000005",1,7,0,2,0
"250053","img/neutralC/CFD-BM-212-117-N.jpg","1","k","0.998628200002713",1,7,0,2,0
"250053","img/neutralC/CFD-IM-709-103-N.jpg","1","s","0.710555499972543",1,7,0,2,0
"250053","img/neutralC/CFD-BM-033-003-N.jpg","1","s","0.702579600008903",1,7,0,2,0
"250053","img/neutralC/CFD-WM-026-001-N.jpg","0","s","0.858004300011089",1,7,0,2,0
"250053","img/neutralC/CFD-IM-706-002-N.jpg","0","k","0.803019500017399",1,7,0,2,0
"250053","img/neutralC/CFD-WM-257-161-N.jpg","1","s","1.4383732000133",1,7,0,2,0
"250053","img/neutralC/CFD-AM-205-153-N.jpg","1","k","1.08750200000941",1,7,0,2,0
"250053","img/neutralC/CFD-WM-040-022-N.jpg","0","s","1.38348580000456",1,7,0,2,0
"250053","img/neutralC/CFD-IF-650-315-N.jpg","1","k","1.20297939999728",1,7,0,2,0
"250053","img/neutralC/CFD-IM-685-004-N.jpg","1","s","1.72007320000557",1,7,0,2,0
"250053","img/neutralC/CFD-LM-225-130-N.jpg","0","s","0.99603019998176",1,7,0,2,0
"250053","img/neutralC/CFD-IF-742-103-N.jpg","1","s","0.688079099985771",1,7,0,2,0
"250053","img/neutralC/CFD-MF-327-002-N.jpg","1","k","0.269371300004423",1,7,0,2,0
"250053","img/neutralC/CFD-AM-243-212-N.jpg","1","s","2.33438159999787",1,7,0,2,0
"250053","img/neutralC/CFD-MF-342-022-N.jpg","0","k","0.232875999994576",1,7,0,2,0
"250053","img/neutralC/CFD-WF-009-001-N.jpg","0","s","0.283707700000377",1,7,0,2,0
"250053","img/neutralC/CFD-WF-248-129-N.jpg","0","s","3.15990739999688",1,7,0,2,0
"250053","img/neutralC/CFD-BM-211-174-N.jpg","0","s","2.34966310000164",1,7,0,2,0
"250053","img/neutralC/CFD-WF-012-002-N.jpg","0","s","1.80877319999854",1,7,0,2,0
"250053","img/neutralC/CFD-MF-303-013-N.jpg","0","s","0.421910700009903",1,7,0,2,0
"250053","img/neutralC/CFD-LF-220-120-N.jpg","0","s","0.800830900028814",1,7,0,2,0
"250053","img/neutralC/CFD-BM-204-003-N.jpg","0","s","0.706124199990882",1,7,0,2,0
"250053","img/neutralC/CFD-IM-648-337-N.jpg","1","s","1.06986099999631",1,7,0,2,0
"250053","img/neutralC/CFD-IM-727-195-N.jpg","0","k","1.49215839998215",1,7,0,2,0
"250053","img/neutralC/CFD-LF-226-174-N.jpg","1","k","1.47824880000553",1,7,0,2,0
"250053","img/neutralC/CFD-MF-357-002-N.jpg","0","k","2.69192929999554",1,7,0,2,0
"250053","img/neutralC/CFD-IM-721-341-N.jpg","0","s","2.13995889999205",1,7,0,2,0
"250053","img/neutralC/CFD-IF-729-393-N.jpg","0","s","1.15288690000307",1,7,0,2,0
"250053","img/neutralC/CFD-MF-312-002-N.jpg","1","k","0.954107700003078",1,7,0,2,0
"250053","img/neutralC/CFD-BM-248-128-N.jpg","0","s","0.720031599979848",1,7,0,2,0
"250053","img/neutralC/CFD-AM-249-163-N.jpg","0","s","1.35989820002578",1,7,0,2,0
"250053","img/neutralC/CFD-BF-224-002-N.jpg","1","s","1.6128620999807",1,7,0,2,0
"250053","img/neutralC/CFD-MM-324-069-N.jpg","1","k","1.18406759999925",1,8,0,2,0
"250053","img/neutralC/CFD-WM-218-074-N.jpg","1","s","1.2323779000144",1,8,0,2,0
"250053","img/neutralC/CFD-WM-235-147-N.jpg","1","k","0.364459400007036",1,8,0,2,0
"250053","img/neutralC/CFD-BF-244-231-N.jpg","0","k","0.951512299972819",1,8,0,2,0
"250053","img/neutralC/CFD-MF-359-019-N.jpg","0","s","0.879867800016655",1,8,0,2,0
"250053","img/neutralC/CFD-AF-234-208-N.jpg","0","k","0.20611870000721",1,8,0,2,0
"250053","img/neutralC/CFD-AM-215-120-N.jpg","0","s","0.923179400007939",1,8,0,2,0
"250053","img/neutralC/CFD-IF-619-197-N.jpg","0","s","0.868387700000312",1,8,0,2,0
"250053","img/neutralC/CFD-BM-028-002-N.jpg","1","k","0.724286300013773",1,8,0,2,0
"250053","img/neutralC/CFD-WM-013-001-N.jpg","1","s","0.241554699983681",1,8,0,2,0
"250053","img/neutralC/CFD-IM-645-001-N.jpg","0","k","0.0221117000037339",0,8,0,2,0
"250053","img/neutralC/CFD-IF-636-011-N.jpg","1","s","1.91087170000537",1,8,0,2,0
"250053","img/neutralC/CFD-MF-333-012-N.jpg","0","k","1.28500600002008",1,8,0,2,0
"250053","img/neutralC/CFD-BM-205-001-N.jpg","1","s","0.832778400013922",1,8,0,2,0
"250053","img/neutralC/CFD-BF-011-002-N.jpg","1","k","0.932226699980674",1,8,0,2,0
"250053","img/neutralC/CFD-BF-040-003-N.jpg","1","s","0.989571400015848",1,8,0,2,0
"250053","img/neutralC/CFD-WM-201-063-N.jpg","0","s","1.28709599998547",1,8,0,2,0
"250053","img/neutralC/CFD-BF-204-189-N.jpg","1","k","1.35990480001783",1,8,0,2,0
"250053","img/neutralC/CFD-BF-229-179-N.jpg","1","k","1.13178799999878",1,8,0,2,0
"250053","img/neutralC/CFD-AF-231-357-N.jpg","0","s","1.21708020000369",1,8,0,2,0
"250053","img/neutralC/CFD-WF-217-085-N.jpg","1","s","0.866272799990838",1,8,0,2,0
"250053","img/neutralC/CFD-MM-317-061-N.jpg","0","k","0.815291300008539",1,8,0,2,0
"250053","img/neutralC/CFD-BF-247-179-N.jpg","0","s","1.1082705000008",1,8,0,2,0
"250053","img/neutralC/CFD-IM-678-482-N.jpg","1","s","1.00119260000065",1,8,0,2,0
"250053","img/neutralC/CFD-IM-728-041-N.jpg","1","s","0.911959399993066",1,8,0,2,0
"250053","img/neutralC/CFD-BF-023-010-N.jpg","1","s","2.46075989998644",1,8,0,2,0
"250053","img/neutralC/CFD-IM-726-248-N.jpg","1","s","0.918710199999623",1,8,0,2,0
"250053","img/neutralC/CFD-BM-231-155-N.jpg","1","s","1.94078789997729",1,8,0,2,0
"250053","img/neutralC/CFD-WM-011-002-N.jpg","1","s","1.68706789999851",1,8,0,2,0
"250053","img/neutralC/CFD-BF-036-027-N.jpg","1","s","1.0273382999876",1,8,0,2,0
"250053","img/neutralC/CFD-LF-215-157-N.jpg","1","s","1.37393699999666",1,8,0,2,0
"250053","img/neutralC/CFD-IF-623-129-N.jpg","1","s","1.17043690002174",1,8,0,2,0
"250053","img/neutralC/CFD-BM-041-035-N.jpg","1","s","1.90905469999416",1,8,0,2,0
"250053","img/neutralC/CFD-BM-043-071-N.jpg","1","k","0.973265300010098",1,8,0,2,0
"250053","img/neutralC/CFD-BF-228-212-N.jpg","0","s","1.14797059999546",1,8,0,2,0
"250053","img/neutralC/CFD-IF-626-375-N.jpg","1","k","1.31998189998558",1,8,0,2,0
"250053","img/neutralC/CFD-IM-686-097-N.jpg","0","s","0.87924040001235",1,8,0,2,0
"250053","img/neutralC/CFD-AM-217-085-N.jpg","0","s","3.44157219998306",1,8,0,2,0
"250053","img/neutralC/CFD-LM-228-188-N.jpg","1","k","1.7392519999994",1,8,0,2,0
"250053","img/neutralC/CFD-MF-352-054-N.jpg","0","s","0.69542270002421",1,8,0,2,0
"250053","img/neutralC/CFD-BF-235-168-N.jpg","0","k","1.43320820000372",1,8,0,2,0
"250053","img/neutralC/CFD-WF-212-050-N.jpg","1","s","1.20571700000437",1,8,0,2,0
"250053","img/neutralC/CFD-LM-240-013-N.jpg","0","k","1.02975420001894",1,8,0,2,0
"250053","img/neutralC/CFD-WF-017-003-N.jpg","0","k","1.30048389997683",1,8,0,2,0
"250053","img/neutralC/CFD-WF-022-017-N.jpg","1","s","1.14730589999817",1,8,0,2,0
"250053","img/neutralC/CFD-LF-201-035-N.jpg","1","k","1.18318049999652",1,8,0,2,0
"250053","img/neutralC/CFD-LM-201-057-N.jpg","1","s","1.19379450002452",1,8,0,2,0
"250053","img/neutralC/CFD-LF-216-121-N.jpg","1","s","0.848925500002224",1,8,0,2,0
