"participant_id","current_trial_face","pre_trial_face","post_trial_face","current_trial_accuracy","pre_trial_accuracy","post_trial_accuracy","current_trial_congruency","pre_trial_congruency","post_trial_congruency","current_trial_rt","pre_trial_rt","post_trial_rt","current_trial_responded","pre_trial_responded","post_trial_responded","current_trial_legitResponse","pre_trial_legitResponse","post_trial_legitResponse","current_trial_resp_nums","pre_trial_resp_nums","post_trial_resp_nums"
"250023","img/neutralC/CFD-LM-215-247-N.jpg",NA,"img/neutralC/CFD-BM-041-035-N.jpg","1",NA,"1","0",NA,"0","0.557180500000868",NA,"0.534878299999946","1",NA,"1","1",NA,"1","1",NA,"1"
"250023","img/neutralC/CFD-BM-041-035-N.jpg","img/neutralC/CFD-LM-215-247-N.jpg","img/neutralC/CFD-WM-021-001-N.jpg","1","1","1","0","0","1","0.534878299999946","0.557180500000868","0.465466600000582","1","1","1","1","1","1","1","1","1"
"250023","img/neutralC/CFD-WM-021-001-N.jpg","img/neutralC/CFD-BM-041-035-N.jpg","img/neutralC/CFD-BF-029-031-N.jpg","1","1","1","1","0","1","0.465466600000582","0.534878299999946","0.448074500000985","1","1","1","1","1","1","1","1","1"
"250023","img/neutralC/CFD-BF-029-031-N.jpg","img/neutralC/CFD-WM-021-001-N.jpg","img/neutralC/CFD-IM-684-008-N.jpg","1","1","1","1","1","1","0.448074500000985","0.465466600000582","0.522741700000552","1","1","1","1","1","1","1","1","1"
"250023","img/neutralC/CFD-IM-684-008-N.jpg","img/neutralC/CFD-BF-029-031-N.jpg","img/neutralC/CFD-BF-205-141-N.jpg","1","1","1","1","1","0","0.522741700000552","0.448074500000985","0.514968900000895","1","1","1","1","1","1","1","1","1"
"250023","img/neutralC/CFD-BF-205-141-N.jpg","img/neutralC/CFD-IM-684-008-N.jpg","img/neutralC/CFD-WF-250-167-N.jpg","1","1","1","0","1","1","0.514968900000895","0.522741700000552","0.606465000000753","1","1","1","1","1","1","1","1","1"
"250023","img/neutralC/CFD-WF-250-167-N.jpg","img/neutralC/CFD-BF-205-141-N.jpg","img/neutralC/CFD-LF-214-090-N.jpg","1","1","1","1","0","0","0.606465000000753","0.514968900000895","0.587285999999949","1","1","1","1","1","1","1","1","1"
"250023","img/neutralC/CFD-LF-214-090-N.jpg","img/neutralC/CFD-WF-250-167-N.jpg","img/neutralC/CFD-BM-019-002-N.jpg","1","1","1","0","1","0","0.587285999999949","0.606465000000753","0.617631899999651","1","1","1","1","1","1","1","1","1"
"250023","img/neutralC/CFD-BM-019-002-N.jpg","img/neutralC/CFD-LF-214-090-N.jpg","img/neutralC/CFD-AM-201-076-N.jpg","1","1","1","0","0","1","0.617631899999651","0.587285999999949","0.42922230000022","1","1","1","1","1","1","1","1","1"
"250023","img/neutralC/CFD-AM-201-076-N.jpg","img/neutralC/CFD-BM-019-002-N.jpg","img/neutralC/CFD-WM-011-002-N.jpg","1","1","1","1","0","0","0.42922230000022","0.617631899999651","0.440620299999864","1","1","1","1","1","1","1","1","1"
"250023","img/neutralC/CFD-WM-011-002-N.jpg","img/neutralC/CFD-AM-201-076-N.jpg","img/neutralC/CFD-WF-213-031-N.jpg","1","1","1","0","1","1","0.440620299999864","0.42922230000022","0.464393600000221","1","1","1","1","1","1","1","1","1"
"250023","img/neutralC/CFD-WF-213-031-N.jpg","img/neutralC/CFD-WM-011-002-N.jpg","img/neutralC/CFD-BM-033-003-N.jpg","1","1","1","1","0","0","0.464393600000221","0.440620299999864","0.453525300000365","1","1","1","1","1","1","1","1","1"
"250023","img/neutralC/CFD-BM-033-003-N.jpg","img/neutralC/CFD-WF-213-031-N.jpg","img/neutralC/CFD-IF-693-172-N.jpg","1","1","1","0","1","0","0.453525300000365","0.464393600000221","0.596248500000002","1","1","1","1","1","1","1","1","1"
"250023","img/neutralC/CFD-IF-693-172-N.jpg","img/neutralC/CFD-BM-033-003-N.jpg","img/neutralC/CFD-MM-316-156-N.jpg","1","1","1","0","0","1","0.596248500000002","0.453525300000365","0.578689400000258","1","1","1","1","1","1","1","1","1"
"250023","img/neutralC/CFD-MM-316-156-N.jpg","img/neutralC/CFD-IF-693-172-N.jpg","img/neutralC/CFD-IF-710-016-N.jpg","1","1","1","1","0","0","0.578689400000258","0.596248500000002","0.560958400000345","1","1","1","1","1","1","1","1","1"
"250023","img/neutralC/CFD-IF-710-016-N.jpg","img/neutralC/CFD-MM-316-156-N.jpg","img/neutralC/CFD-LF-203-066-N.jpg","1","1","1","0","1","0","0.560958400000345","0.578689400000258","0.514487200000985","1","1","1","1","1","1","1","1","1"
"250023","img/neutralC/CFD-LF-203-066-N.jpg","img/neutralC/CFD-IF-710-016-N.jpg","img/neutralC/CFD-AM-212-050-N.jpg","1","1","1","0","0","1","0.514487200000985","0.560958400000345","0.462299900000289","1","1","1","1","1","1","1","1","1"
"250023","img/neutralC/CFD-AM-212-050-N.jpg","img/neutralC/CFD-LF-203-066-N.jpg","img/neutralC/CFD-IM-651-308-N.jpg","1","1","1","1","0","0","0.462299900000289","0.514487200000985","0.478608100000201","1","1","1","1","1","1","1","1","1"
"250023","img/neutralC/CFD-IM-651-308-N.jpg","img/neutralC/CFD-AM-212-050-N.jpg","img/neutralC/CFD-AF-231-357-N.jpg","1","1","1","0","1","1","0.478608100000201","0.462299900000289","0.491240700000162","1","1","1","1","1","1","1","1","1"
"250023","img/neutralC/CFD-AF-231-357-N.jpg","img/neutralC/CFD-IM-651-308-N.jpg","img/neutralC/CFD-BF-039-031-N.jpg","1","1","1","1","0","1","0.491240700000162","0.478608100000201","0.558963500000573","1","1","1","1","1","1","1","1","1"
"250023","img/neutralC/CFD-BF-039-031-N.jpg","img/neutralC/CFD-AF-231-357-N.jpg","img/neutralC/CFD-MF-337-026-N.jpg","1","1","1","1","1","1","0.558963500000573","0.491240700000162","0.418729400000302","1","1","1","1","1","1","1","1","1"
"250023","img/neutralC/CFD-MF-337-026-N.jpg","img/neutralC/CFD-BF-039-031-N.jpg","img/neutralC/CFD-BF-253-202-N.jpg","1","1","1","1","1","0","0.418729400000302","0.558963500000573","0.702942100000655","1","1","1","1","1","1","1","1","1"
"250023","img/neutralC/CFD-BF-253-202-N.jpg","img/neutralC/CFD-MF-337-026-N.jpg","img/neutralC/CFD-WM-041-021-N.jpg","1","1","1","0","1","0","0.702942100000655","0.418729400000302","0.449071400000321","1","1","1","1","1","1","1","1","1"
"250023","img/neutralC/CFD-WM-041-021-N.jpg","img/neutralC/CFD-BF-253-202-N.jpg","img/neutralC/CFD-LF-230-203-N.jpg","1","1","1","0","0","0","0.449071400000321","0.702942100000655","0.540906000000177","1","1","1","1","1","1","1","1","1"
"250023","img/neutralC/CFD-LF-230-203-N.jpg","img/neutralC/CFD-WM-041-021-N.jpg","img/neutralC/CFD-LF-224-176-N.jpg","1","1","1","0","0","0","0.540906000000177","0.449071400000321","0.661948899999516","1","1","1","1","1","1","1","1","1"
"250023","img/neutralC/CFD-LF-224-176-N.jpg","img/neutralC/CFD-LF-230-203-N.jpg","img/neutralC/CFD-BM-239-136-N.jpg","1","1","1","0","0","1","0.661948899999516","0.540906000000177","0.485151700000643","1","1","1","1","1","1","1","1","1"
"250023","img/neutralC/CFD-BM-239-136-N.jpg","img/neutralC/CFD-LF-224-176-N.jpg","img/neutralC/CFD-IF-634-382-N.jpg","1","1","1","1","0","1","0.485151700000643","0.661948899999516","0.488516299999901","1","1","1","1","1","1","1","1","1"
"250023","img/neutralC/CFD-IF-634-382-N.jpg","img/neutralC/CFD-BM-239-136-N.jpg","img/neutralC/CFD-LM-218-183-N.jpg","1","1","1","1","1","1","0.488516299999901","0.485151700000643","0.470736300000681","1","1","1","1","1","1","1","1","1"
"250023","img/neutralC/CFD-LM-218-183-N.jpg","img/neutralC/CFD-IF-634-382-N.jpg","img/neutralC/CFD-LF-205-100-N.jpg","1","1","1","1","1","1","0.470736300000681","0.488516299999901","0.428672500000175","1","1","1","1","1","1","1","1","1"
"250023","img/neutralC/CFD-LF-205-100-N.jpg","img/neutralC/CFD-LM-218-183-N.jpg","img/neutralC/CFD-WF-224-099-N.jpg","1","1","1","1","1","0","0.428672500000175","0.470736300000681","0.561027700000523","1","1","1","1","1","1","1","1","1"
"250023","img/neutralC/CFD-WF-224-099-N.jpg","img/neutralC/CFD-LF-205-100-N.jpg","img/neutralC/CFD-BF-213-188-N.jpg","1","1","1","0","1","1","0.561027700000523","0.428672500000175","0.565151900000274","1","1","1","1","1","1","1","1","1"
"250023","img/neutralC/CFD-BF-213-188-N.jpg","img/neutralC/CFD-WF-224-099-N.jpg",NA,"1","1",NA,"1","0",NA,"0.565151900000274","0.561027700000523",NA,"1","1",NA,"1","1",NA,"1","1",NA
"250023","img/neutralC/CFD-BM-029-024-N.jpg",NA,"img/neutralC/CFD-AM-217-085-N.jpg","1",NA,"1","1",NA,"0","0.47245649999968",NA,"0.380666100000781","1",NA,"1","1",NA,"1","1",NA,"1"
"250023","img/neutralC/CFD-AM-217-085-N.jpg","img/neutralC/CFD-BM-029-024-N.jpg","img/neutralC/CFD-BM-015-015-N.jpg","1","1","1","0","1","0","0.380666100000781","0.47245649999968","0.410722200000237","1","1","1","1","1","1","1","1","1"
"250023","img/neutralC/CFD-BM-015-015-N.jpg","img/neutralC/CFD-AM-217-085-N.jpg","img/neutralC/CFD-WM-040-022-N.jpg","1","1","1","0","0","0","0.410722200000237","0.380666100000781","0.37472549999984","1","1","1","1","1","1","1","1","1"
"250023","img/neutralC/CFD-WM-040-022-N.jpg","img/neutralC/CFD-BM-015-015-N.jpg","img/neutralC/CFD-BM-247-240-N.jpg","1","1","1","0","0","0","0.37472549999984","0.410722200000237","0.389918099999704","1","1","1","1","1","1","1","1","1"
"250023","img/neutralC/CFD-BM-247-240-N.jpg","img/neutralC/CFD-WM-040-022-N.jpg","img/neutralC/CFD-WF-002-004-N.jpg","1","1","1","0","0","0","0.389918099999704","0.37472549999984","0.527852100000018","1","1","1","1","1","1","1","1","1"
"250023","img/neutralC/CFD-WF-002-004-N.jpg","img/neutralC/CFD-BM-247-240-N.jpg","img/neutralC/CFD-BF-255-140-N.jpg","1","1","1","0","0","1","0.527852100000018","0.389918099999704","0.502679400000488","1","1","1","1","1","1","1","1","1"
"250023","img/neutralC/CFD-BF-255-140-N.jpg","img/neutralC/CFD-WF-002-004-N.jpg","img/neutralC/CFD-BM-027-001-N.jpg","1","1","1","1","0","0","0.502679400000488","0.527852100000018","0.422603600000002","1","1","1","1","1","1","1","1","1"
"250023","img/neutralC/CFD-BM-027-001-N.jpg","img/neutralC/CFD-BF-255-140-N.jpg","img/neutralC/CFD-IF-718-001-N.jpg","1","1","1","0","1","1","0.422603600000002","0.502679400000488","0.398626000001059","1","1","1","1","1","1","1","1","1"
"250023","img/neutralC/CFD-IF-718-001-N.jpg","img/neutralC/CFD-BM-027-001-N.jpg","img/neutralC/CFD-WM-257-161-N.jpg","1","1","1","1","0","1","0.398626000001059","0.422603600000002","0.362547900000209","1","1","1","1","1","1","1","1","1"
"250023","img/neutralC/CFD-WM-257-161-N.jpg","img/neutralC/CFD-IF-718-001-N.jpg","img/neutralC/CFD-BF-023-010-N.jpg","1","1","1","1","1","1","0.362547900000209","0.398626000001059","0.413434600000073","1","1","1","1","1","1","1","1","1"
"250023","img/neutralC/CFD-BF-023-010-N.jpg","img/neutralC/CFD-WM-257-161-N.jpg","img/neutralC/CFD-BF-208-266-N.jpg","1","1","1","1","1","0","0.413434600000073","0.362547900000209","0.425846000000092","1","1","1","1","1","1","1","1","1"
"250023","img/neutralC/CFD-BF-208-266-N.jpg","img/neutralC/CFD-BF-023-010-N.jpg","img/neutralC/CFD-AM-235-241-N.jpg","1","1","1","0","1","0","0.425846000000092","0.413434600000073","0.381905800000823","1","1","1","1","1","1","1","1","1"
"250023","img/neutralC/CFD-AM-235-241-N.jpg","img/neutralC/CFD-BF-208-266-N.jpg","img/neutralC/CFD-IM-674-281-N.jpg","1","1","1","0","0","1","0.381905800000823","0.425846000000092","0.306941900000311","1","1","1","1","1","1","1","1","1"
"250023","img/neutralC/CFD-IM-674-281-N.jpg","img/neutralC/CFD-AM-235-241-N.jpg","img/neutralC/CFD-IM-728-041-N.jpg","1","1","1","1","0","0","0.306941900000311","0.381905800000823","0.476472000000285","1","1","1","1","1","1","1","1","1"
"250023","img/neutralC/CFD-IM-728-041-N.jpg","img/neutralC/CFD-IM-674-281-N.jpg","img/neutralC/CFD-MM-319-052-N.jpg","1","1","1","0","1","1","0.476472000000285","0.306941900000311","0.490505800000392","1","1","1","1","1","1","1","1","1"
"250023","img/neutralC/CFD-MM-319-052-N.jpg","img/neutralC/CFD-IM-728-041-N.jpg","img/neutralC/CFD-BM-211-174-N.jpg","1","1","1","1","0","0","0.490505800000392","0.476472000000285","0.443680500000482","1","1","1","1","1","1","1","1","1"
"250023","img/neutralC/CFD-BM-211-174-N.jpg","img/neutralC/CFD-MM-319-052-N.jpg","img/neutralC/CFD-IM-639-263-N.jpg","1","1","1","0","1","1","0.443680500000482","0.490505800000392","0.363950500000101","1","1","1","1","1","1","1","1","1"
"250023","img/neutralC/CFD-IM-639-263-N.jpg","img/neutralC/CFD-BM-211-174-N.jpg","img/neutralC/CFD-WF-022-017-N.jpg","1","1","1","1","0","0","0.363950500000101","0.443680500000482","0.625053300000218","1","1","1","1","1","1","1","1","1"
"250023","img/neutralC/CFD-WF-022-017-N.jpg","img/neutralC/CFD-IM-639-263-N.jpg","img/neutralC/CFD-WF-026-002-N.jpg","1","1","1","0","1","1","0.625053300000218","0.363950500000101","0.506178300000101","1","1","1","1","1","1","1","1","1"
"250023","img/neutralC/CFD-WF-026-002-N.jpg","img/neutralC/CFD-WF-022-017-N.jpg","img/neutralC/CFD-LF-236-221-N.jpg","1","1","1","1","0","1","0.506178300000101","0.625053300000218","0.463146000000052","1","1","1","1","1","1","1","1","1"
"250023","img/neutralC/CFD-LF-236-221-N.jpg","img/neutralC/CFD-WF-026-002-N.jpg","img/neutralC/CFD-WM-038-003-N.jpg","1","1","1","1","1","0","0.463146000000052","0.506178300000101","0.62041070000032","1","1","1","1","1","1","1","1","1"
"250023","img/neutralC/CFD-WM-038-003-N.jpg","img/neutralC/CFD-LF-236-221-N.jpg","img/neutralC/CFD-IF-672-305-N.jpg","1","1","1","0","1","0","0.62041070000032","0.463146000000052","0.476230400000532","1","1","1","1","1","1","1","1","1"
"250023","img/neutralC/CFD-IF-672-305-N.jpg","img/neutralC/CFD-WM-038-003-N.jpg","img/neutralC/CFD-BF-028-001-N.jpg","1","1","1","0","0","1","0.476230400000532","0.62041070000032","0.416157999999996","1","1","1","1","1","1","1","1","1"
"250023","img/neutralC/CFD-BF-028-001-N.jpg","img/neutralC/CFD-IF-672-305-N.jpg","img/neutralC/CFD-BF-204-189-N.jpg","1","1","1","1","0","1","0.416157999999996","0.476230400000532","0.463237000000845","1","1","1","1","1","1","1","1","1"
"250023","img/neutralC/CFD-BF-204-189-N.jpg","img/neutralC/CFD-BF-028-001-N.jpg","img/neutralC/CFD-BF-003-003-N.jpg","1","1","0","1","1","0","0.463237000000845","0.416157999999996","0.44872900000064","1","1","1","1","1","1","1","1","1"
"250023","img/neutralC/CFD-BF-003-003-N.jpg","img/neutralC/CFD-BF-204-189-N.jpg","img/neutralC/CFD-BF-201-080-N.jpg","0","1","1","0","1","1","0.44872900000064","0.463237000000845","0.402162200000021","1","1","1","1","1","1","1","1","1"
"250023","img/neutralC/CFD-BF-201-080-N.jpg","img/neutralC/CFD-BF-003-003-N.jpg","img/neutralC/CFD-LM-252-076-N.jpg","1","0","1","1","0","1","0.402162200000021","0.44872900000064","0.459922099999858","1","1","1","1","1","1","1","1","1"
"250023","img/neutralC/CFD-LM-252-076-N.jpg","img/neutralC/CFD-BF-201-080-N.jpg","img/neutralC/CFD-WM-002-009-N.jpg","1","1","1","1","1","0","0.459922099999858","0.402162200000021","0.579013100000338","1","1","1","1","1","1","1","1","1"
"250023","img/neutralC/CFD-WM-002-009-N.jpg","img/neutralC/CFD-LM-252-076-N.jpg","img/neutralC/CFD-AM-215-120-N.jpg","1","1","1","0","1","1","0.579013100000338","0.459922099999858","0.480329500000153","1","1","1","1","1","1","1","1","1"
"250023","img/neutralC/CFD-AM-215-120-N.jpg","img/neutralC/CFD-WM-002-009-N.jpg","img/neutralC/CFD-WM-225-127-N.jpg","1","1","1","1","0","0","0.480329500000153","0.579013100000338","0.557550900000024","1","1","1","1","1","1","1","1","1"
"250023","img/neutralC/CFD-WM-225-127-N.jpg","img/neutralC/CFD-AM-215-120-N.jpg","img/neutralC/CFD-LF-216-121-N.jpg","1","1","1","0","1","1","0.557550900000024","0.480329500000153","0.54634679999981","1","1","1","1","1","1","1","1","1"
"250023","img/neutralC/CFD-LF-216-121-N.jpg","img/neutralC/CFD-WM-225-127-N.jpg",NA,"1","1",NA,"1","0",NA,"0.54634679999981","0.557550900000024",NA,"1","1",NA,"1","1",NA,"1","1",NA
"250023","img/neutralC/CFD-IM-686-097-N.jpg",NA,"img/neutralC/CFD-IM-657-308-N.jpg","0",NA,"0","0",NA,"0","0.535450300000775",NA,"0.588584000000083","1",NA,"1","1",NA,"1","1",NA,"1"
"250023","img/neutralC/CFD-IM-657-308-N.jpg","img/neutralC/CFD-IM-686-097-N.jpg","img/neutralC/CFD-BM-026-002-N.jpg","0","0","1","0","0","0","0.588584000000083","0.535450300000775","0.418482700000823","1","1","1","1","1","1","1","1","1"
"250023","img/neutralC/CFD-BM-026-002-N.jpg","img/neutralC/CFD-IM-657-308-N.jpg","img/neutralC/CFD-AF-206-079-N.jpg","1","0","1","0","0","1","0.418482700000823","0.588584000000083","0.443128199999592","1","1","1","1","1","1","1","1","1"
"250023","img/neutralC/CFD-AF-206-079-N.jpg","img/neutralC/CFD-BM-026-002-N.jpg","img/neutralC/CFD-WM-017-002-N.jpg","1","1","1","1","0","0","0.443128199999592","0.418482700000823","0.542753900000207","1","1","1","1","1","1","1","1","1"
"250023","img/neutralC/CFD-WM-017-002-N.jpg","img/neutralC/CFD-AF-206-079-N.jpg","img/neutralC/CFD-BF-010-001-N.jpg","1","1","1","0","1","1","0.542753900000207","0.443128199999592","0.427240600000005","1","1","1","1","1","1","1","1","1"
"250023","img/neutralC/CFD-BF-010-001-N.jpg","img/neutralC/CFD-WM-017-002-N.jpg","img/neutralC/CFD-LM-219-295-N.jpg","1","1","1","1","0","1","0.427240600000005","0.542753900000207","0.477220000000671","1","1","1","1","1","1","1","1","1"
"250023","img/neutralC/CFD-LM-219-295-N.jpg","img/neutralC/CFD-BF-010-001-N.jpg","img/neutralC/CFD-IM-638-250-1-N.jpg","1","1","1","1","1","1","0.477220000000671","0.427240600000005","0.477501200000916","1","1","1","1","1","1","1","1","1"
"250023","img/neutralC/CFD-IM-638-250-1-N.jpg","img/neutralC/CFD-LM-219-295-N.jpg","img/neutralC/CFD-LM-233-171-N.jpg","1","1","1","1","1","0","0.477501200000916","0.477220000000671","0.369117700000061","1","1","1","1","1","1","1","1","1"
"250023","img/neutralC/CFD-LM-233-171-N.jpg","img/neutralC/CFD-IM-638-250-1-N.jpg","img/neutralC/CFD-WM-227-099-N.jpg","1","1","1","0","1","1","0.369117700000061","0.477501200000916","0.345562200000131","1","1","1","1","1","1","1","1","1"
"250023","img/neutralC/CFD-WM-227-099-N.jpg","img/neutralC/CFD-LM-233-171-N.jpg","img/neutralC/CFD-LM-226-175-N.jpg","1","1","1","1","0","0","0.345562200000131","0.369117700000061","0.40291789999992","1","1","1","1","1","1","1","1","1"
"250023","img/neutralC/CFD-LM-226-175-N.jpg","img/neutralC/CFD-WM-227-099-N.jpg","img/neutralC/CFD-MF-313-002-N.jpg","1","1","1","0","1","0","0.40291789999992","0.345562200000131","0.36509709999973","1","1","1","1","1","1","1","1","1"
"250023","img/neutralC/CFD-MF-313-002-N.jpg","img/neutralC/CFD-LM-226-175-N.jpg","img/neutralC/CFD-LF-245-166-N.jpg","1","1","1","0","0","1","0.36509709999973","0.40291789999992","0.532373300000472","1","1","1","1","1","1","1","1","1"
"250023","img/neutralC/CFD-LF-245-166-N.jpg","img/neutralC/CFD-MF-313-002-N.jpg","img/neutralC/CFD-LF-247-051-N.jpg","1","1","0","1","0","1","0.532373300000472","0.36509709999973","0.346244000000297","1","1","1","1","1","1","1","1","1"
"250023","img/neutralC/CFD-LF-247-051-N.jpg","img/neutralC/CFD-LF-245-166-N.jpg","img/neutralC/CFD-BM-231-155-N.jpg","0","1","1","1","1","1","0.346244000000297","0.532373300000472","0.410084500000266","1","1","1","1","1","1","1","1","1"
"250023","img/neutralC/CFD-BM-231-155-N.jpg","img/neutralC/CFD-LF-247-051-N.jpg","img/neutralC/CFD-IM-617-174-N.jpg","1","0","0","1","1","0","0.410084500000266","0.346244000000297","0.426294900000357","1","1","1","1","1","1","1","1","1"
"250023","img/neutralC/CFD-IM-617-174-N.jpg","img/neutralC/CFD-BM-231-155-N.jpg","img/neutralC/CFD-WF-209-052-N.jpg","0","1","1","0","1","1","0.426294900000357","0.410084500000266","0.610365500000626","1","1","1","1","1","1","1","1","1"
"250023","img/neutralC/CFD-WF-209-052-N.jpg","img/neutralC/CFD-IM-617-174-N.jpg","img/neutralC/CFD-BF-033-028-N.jpg","1","0","1","1","0","0","0.610365500000626","0.426294900000357","0.51889729999948","1","1","1","1","1","1","1","1","1"
"250023","img/neutralC/CFD-BF-033-028-N.jpg","img/neutralC/CFD-WF-209-052-N.jpg","img/neutralC/CFD-IM-653-008-N.jpg","1","1","1","0","1","0","0.51889729999948","0.610365500000626","0.486510300000191","1","1","1","1","1","1","1","1","1"
"250023","img/neutralC/CFD-IM-653-008-N.jpg","img/neutralC/CFD-BF-033-028-N.jpg","img/neutralC/CFD-LF-242-121-N.jpg","1","1","1","0","0","0","0.486510300000191","0.51889729999948","0.44144469999992","1","1","1","1","1","1","1","1","1"
"250023","img/neutralC/CFD-LF-242-121-N.jpg","img/neutralC/CFD-IM-653-008-N.jpg","img/neutralC/CFD-WM-258-125-N.jpg","1","1","1","0","0","0","0.44144469999992","0.486510300000191","0.417349800000011","1","1","1","1","1","1","1","1","1"
"250023","img/neutralC/CFD-WM-258-125-N.jpg","img/neutralC/CFD-LF-242-121-N.jpg","img/neutralC/CFD-AF-241-141-N.jpg","1","1","1","0","0","1","0.417349800000011","0.44144469999992","0.43008380000083","1","1","1","1","1","1","1","1","1"
"250023","img/neutralC/CFD-AF-241-141-N.jpg","img/neutralC/CFD-WM-258-125-N.jpg","img/neutralC/CFD-WM-242-011-N.jpg","1","1","1","1","0","0","0.43008380000083","0.417349800000011","0.597227000000203","1","1","1","1","1","1","1","1","1"
"250023","img/neutralC/CFD-WM-242-011-N.jpg","img/neutralC/CFD-AF-241-141-N.jpg","img/neutralC/CFD-LF-250-169-N.jpg","1","1","1","0","1","1","0.597227000000203","0.43008380000083","0.44253690000005","1","1","1","1","1","1","1","1","1"
"250023","img/neutralC/CFD-LF-250-169-N.jpg","img/neutralC/CFD-WM-242-011-N.jpg","img/neutralC/CFD-BM-212-117-N.jpg","1","1","1","1","0","0","0.44253690000005","0.597227000000203","0.50172620000103","1","1","1","1","1","1","1","1","1"
"250023","img/neutralC/CFD-BM-212-117-N.jpg","img/neutralC/CFD-LF-250-169-N.jpg","img/neutralC/CFD-IF-620-218-N.jpg","1","1","1","0","1","0","0.50172620000103","0.44253690000005","0.62919570000031","1","1","1","1","1","1","1","1","1"
"250023","img/neutralC/CFD-IF-620-218-N.jpg","img/neutralC/CFD-BM-212-117-N.jpg","img/neutralC/CFD-BM-018-001-N.jpg","1","1","1","0","0","1","0.62919570000031","0.50172620000103","0.426528900000449","1","1","1","1","1","1","1","1","1"
"250023","img/neutralC/CFD-BM-018-001-N.jpg","img/neutralC/CFD-IF-620-218-N.jpg","img/neutralC/CFD-IM-727-195-N.jpg","1","1","1","1","0","1","0.426528900000449","0.62919570000031","0.447531499999968","1","1","1","1","1","1","1","1","1"
"250023","img/neutralC/CFD-IM-727-195-N.jpg","img/neutralC/CFD-BM-018-001-N.jpg","img/neutralC/CFD-IF-665-015-N.jpg","1","1","1","1","1","0","0.447531499999968","0.426528900000449","0.558530000000246","1","1","1","1","1","1","1","1","1"
"250023","img/neutralC/CFD-IF-665-015-N.jpg","img/neutralC/CFD-IM-727-195-N.jpg","img/neutralC/CFD-BF-238-190-N.jpg","1","1","1","0","1","1","0.558530000000246","0.447531499999968","0.447757900000397","1","1","1","1","1","1","1","1","1"
"250023","img/neutralC/CFD-BF-238-190-N.jpg","img/neutralC/CFD-IF-665-015-N.jpg","img/neutralC/CFD-BM-005-003-N.jpg","1","1","1","1","0","1","0.447757900000397","0.558530000000246","0.434138500000699","1","1","1","1","1","1","1","1","1"
"250023","img/neutralC/CFD-BM-005-003-N.jpg","img/neutralC/CFD-BF-238-190-N.jpg","img/neutralC/CFD-AF-202-122-N.jpg","1","1","1","1","1","1","0.434138500000699","0.447757900000397","0.443796399999883","1","1","1","1","1","1","1","1","1"
"250023","img/neutralC/CFD-AF-202-122-N.jpg","img/neutralC/CFD-BM-005-003-N.jpg",NA,"1","1",NA,"1","1",NA,"0.443796399999883","0.434138500000699",NA,"1","1",NA,"1","1",NA,"1","1",NA
"250023","img/neutralC/CFD-BF-244-231-N.jpg",NA,"img/neutralC/CFD-WF-009-001-N.jpg","1",NA,"1","1",NA,"1","0.47851990000072",NA,"0.336164800000006","1",NA,"1","1",NA,"1","1",NA,"1"
"250023","img/neutralC/CFD-WF-009-001-N.jpg","img/neutralC/CFD-BF-244-231-N.jpg","img/neutralC/CFD-AM-243-212-N.jpg","1","1","1","1","1","1","0.336164800000006","0.47851990000072","0.369599099999505","1","1","1","1","1","1","1","1","1"
"250023","img/neutralC/CFD-AM-243-212-N.jpg","img/neutralC/CFD-WF-009-001-N.jpg","img/neutralC/CFD-IF-676-017-N.jpg","1","1","1","1","1","1","0.369599099999505","0.336164800000006","0.454589300000407","1","1","1","1","1","1","1","1","1"
"250023","img/neutralC/CFD-IF-676-017-N.jpg","img/neutralC/CFD-AM-243-212-N.jpg","img/neutralC/CFD-BM-030-003-N.jpg","1","1","1","1","1","0","0.454589300000407","0.369599099999505","0.411877200000163","1","1","1","1","1","1","1","1","1"
"250023","img/neutralC/CFD-BM-030-003-N.jpg","img/neutralC/CFD-IF-676-017-N.jpg","img/neutralC/CFD-WF-207-014-N.jpg","1","1","0","0","1","1","0.411877200000163","0.454589300000407","0.316257000000405","1","1","1","1","1","1","1","1","1"
"250023","img/neutralC/CFD-WF-207-014-N.jpg","img/neutralC/CFD-BM-030-003-N.jpg","img/neutralC/CFD-LF-238-154-N.jpg","0","1","1","1","0","1","0.316257000000405","0.411877200000163","0.651824400000805","1","1","1","1","1","1","1","1","1"
"250023","img/neutralC/CFD-LF-238-154-N.jpg","img/neutralC/CFD-WF-207-014-N.jpg","img/neutralC/CFD-AF-237-223-N.jpg","1","0","1","1","1","0","0.651824400000805","0.316257000000405","0.479133900000306","1","1","1","1","1","1","1","1","1"
"250023","img/neutralC/CFD-AF-237-223-N.jpg","img/neutralC/CFD-LF-238-154-N.jpg","img/neutralC/CFD-WM-028-003-N.jpg","1","1","1","0","1","1","0.479133900000306","0.651824400000805","0.523518799999692","1","1","1","1","1","1","1","1","1"
"250023","img/neutralC/CFD-WM-028-003-N.jpg","img/neutralC/CFD-AF-237-223-N.jpg","img/neutralC/CFD-WF-241-210-N.jpg","1","1","0","1","0","0","0.523518799999692","0.479133900000306","0.48509550000017","1","1","1","1","1","1","1","1","1"
"250023","img/neutralC/CFD-WF-241-210-N.jpg","img/neutralC/CFD-WM-028-003-N.jpg","img/neutralC/CFD-BM-021-021-N.jpg","0","1","1","0","1","1","0.48509550000017","0.523518799999692","0.519972600000074","1","1","1","1","1","1","1","1","1"
"250023","img/neutralC/CFD-BM-021-021-N.jpg","img/neutralC/CFD-WF-241-210-N.jpg","img/neutralC/CFD-BM-020-001-N.jpg","1","0","1","1","0","0","0.519972600000074","0.48509550000017","0.726375100000041","1","1","1","1","1","1","1","1","1"
"250023","img/neutralC/CFD-BM-020-001-N.jpg","img/neutralC/CFD-BM-021-021-N.jpg","img/neutralC/CFD-IM-689-263-N.jpg","1","1","1","0","1","1","0.726375100000041","0.519972600000074","0.436956499999724","1","1","1","1","1","1","1","1","1"
"250023","img/neutralC/CFD-IM-689-263-N.jpg","img/neutralC/CFD-BM-020-001-N.jpg","img/neutralC/CFD-MM-306-010-N.jpg","1","1","1","1","0","0","0.436956499999724","0.726375100000041","0.612056799999664","1","1","1","1","1","1","1","1","1"
"250023","img/neutralC/CFD-MM-306-010-N.jpg","img/neutralC/CFD-IM-689-263-N.jpg","img/neutralC/CFD-LM-240-013-N.jpg","1","1","1","0","1","1","0.612056799999664","0.436956499999724","0.456575400000474","1","1","1","1","1","1","1","1","1"
"250023","img/neutralC/CFD-LM-240-013-N.jpg","img/neutralC/CFD-MM-306-010-N.jpg","img/neutralC/CFD-BM-009-002-N.jpg","1","1","1","1","0","1","0.456575400000474","0.612056799999664","0.479874499999823","1","1","1","1","1","1","1","1","1"
"250023","img/neutralC/CFD-BM-009-002-N.jpg","img/neutralC/CFD-LM-240-013-N.jpg","img/neutralC/CFD-LF-212-066-N.jpg","1","1","1","1","1","1","0.479874499999823","0.456575400000474","0.426143700000466","1","1","1","1","1","1","1","1","1"
"250023","img/neutralC/CFD-LF-212-066-N.jpg","img/neutralC/CFD-BM-009-002-N.jpg","img/neutralC/CFD-AM-219-101-N.jpg","1","1","1","1","1","0","0.426143700000466","0.479874499999823","0.543182999999772","1","1","1","1","1","1","1","1","1"
"250023","img/neutralC/CFD-AM-219-101-N.jpg","img/neutralC/CFD-LF-212-066-N.jpg","img/neutralC/CFD-LF-222-147-N.jpg","1","1","1","0","1","0","0.543182999999772","0.426143700000466","0.596034600000166","1","1","1","1","1","1","1","1","1"
"250023","img/neutralC/CFD-LF-222-147-N.jpg","img/neutralC/CFD-AM-219-101-N.jpg","img/neutralC/CFD-WM-023-001-N.jpg","1","1","1","0","0","0","0.596034600000166","0.543182999999772","0.426796800000375","1","1","1","1","1","1","1","1","1"
"250023","img/neutralC/CFD-WM-023-001-N.jpg","img/neutralC/CFD-LF-222-147-N.jpg","img/neutralC/CFD-WF-243-148-N.jpg","1","1","1","0","0","0","0.426796800000375","0.596034600000166","0.540675499999452","1","1","1","1","1","1","1","1","1"
"250023","img/neutralC/CFD-WF-243-148-N.jpg","img/neutralC/CFD-WM-023-001-N.jpg","img/neutralC/CFD-WF-221-005-N.jpg","1","1","1","0","0","0","0.540675499999452","0.426796800000375","0.660295599999699","1","1","1","1","1","1","1","1","1"
"250023","img/neutralC/CFD-WF-221-005-N.jpg","img/neutralC/CFD-WF-243-148-N.jpg","img/neutralC/CFD-IM-615-167-N.jpg","1","1","1","0","0","0","0.660295599999699","0.540675499999452","0.456571600000643","1","1","1","1","1","1","1","1","1"
"250023","img/neutralC/CFD-IM-615-167-N.jpg","img/neutralC/CFD-WF-221-005-N.jpg","img/neutralC/CFD-BM-227-191-N.jpg","1","1","1","0","0","1","0.456571600000643","0.660295599999699","0.494101300000693","1","1","1","1","1","1","1","1","1"
"250023","img/neutralC/CFD-BM-227-191-N.jpg","img/neutralC/CFD-IM-615-167-N.jpg","img/neutralC/CFD-WM-025-002-N.jpg","1","1","0","1","0","0","0.494101300000693","0.456571600000643","0.382532399999945","1","1","1","1","1","1","1","1","1"
"250023","img/neutralC/CFD-WM-025-002-N.jpg","img/neutralC/CFD-BM-227-191-N.jpg","img/neutralC/CFD-IM-606-008-N.jpg","0","1","1","0","1","0","0.382532399999945","0.494101300000693","0.616873000000851","1","1","1","1","1","1","1","1","1"
"250023","img/neutralC/CFD-IM-606-008-N.jpg","img/neutralC/CFD-WM-025-002-N.jpg","img/neutralC/CFD-AM-249-163-N.jpg","1","0","1","0","0","1","0.616873000000851","0.382532399999945","0.45680320000065","1","1","1","1","1","1","1","1","1"
"250023","img/neutralC/CFD-AM-249-163-N.jpg","img/neutralC/CFD-IM-606-008-N.jpg","img/neutralC/CFD-IM-697-015-N.jpg","1","1","1","1","0","1","0.45680320000065","0.616873000000851","0.485384000000522","1","1","1","1","1","1","1","1","1"
"250023","img/neutralC/CFD-IM-697-015-N.jpg","img/neutralC/CFD-AM-249-163-N.jpg","img/neutralC/CFD-BM-043-071-N.jpg","1","1","1","1","1","0","0.485384000000522","0.45680320000065","0.532236799999737","1","1","1","1","1","1","1","1","1"
"250023","img/neutralC/CFD-BM-043-071-N.jpg","img/neutralC/CFD-IM-697-015-N.jpg","img/neutralC/CFD-MF-328-020-N.jpg","1","1","1","0","1","0","0.532236799999737","0.485384000000522","0.386638000000858","1","1","1","1","1","1","1","1","1"
"250023","img/neutralC/CFD-MF-328-020-N.jpg","img/neutralC/CFD-BM-043-071-N.jpg","img/neutralC/CFD-AM-205-153-N.jpg","1","1","1","0","0","1","0.386638000000858","0.532236799999737","0.570538500000112","1","1","1","1","1","1","1","1","1"
"250023","img/neutralC/CFD-AM-205-153-N.jpg","img/neutralC/CFD-MF-328-020-N.jpg","img/neutralC/CFD-BF-012-001-N.jpg","1","1","1","1","0","0","0.570538500000112","0.386638000000858","0.658511800000269","1","1","1","1","1","1","1","1","1"
"250023","img/neutralC/CFD-BF-012-001-N.jpg","img/neutralC/CFD-AM-205-153-N.jpg",NA,"1","1",NA,"0","1",NA,"0.658511800000269","0.570538500000112",NA,"1","1",NA,"1","1",NA,"1","1",NA
"250023","img/neutralC/CFD-BM-013-002-N.jpg",NA,"img/neutralC/CFD-WM-254-152-N.jpg","1",NA,"1","1",NA,"1","0.71904319999976",NA,"0.58125949999976","1",NA,"1","1",NA,"1","1",NA,"1"
"250023","img/neutralC/CFD-WM-254-152-N.jpg","img/neutralC/CFD-BM-013-002-N.jpg","img/neutralC/CFD-IM-701-312-N.jpg","1","1","1","1","1","0","0.58125949999976","0.71904319999976","0.409592900000462","1","1","1","1","1","1","1","1","1"
"250023","img/neutralC/CFD-IM-701-312-N.jpg","img/neutralC/CFD-WM-254-152-N.jpg","img/neutralC/CFD-LF-241-188-N.jpg","1","1","1","0","1","0","0.409592900000462","0.58125949999976","0.355325800000173","1","1","1","1","1","1","1","1","1"
"250023","img/neutralC/CFD-LF-241-188-N.jpg","img/neutralC/CFD-IM-701-312-N.jpg","img/neutralC/CFD-AF-239-171-N.jpg","1","1","1","0","0","1","0.355325800000173","0.409592900000462","0.376954700000169","1","1","1","1","1","1","1","1","1"
"250023","img/neutralC/CFD-AF-239-171-N.jpg","img/neutralC/CFD-LF-241-188-N.jpg","img/neutralC/CFD-IF-673-389-N.jpg","1","1","1","1","0","0","0.376954700000169","0.355325800000173","0.457079100000556","1","1","1","1","1","1","1","1","1"
"250023","img/neutralC/CFD-IF-673-389-N.jpg","img/neutralC/CFD-AF-239-171-N.jpg","img/neutralC/CFD-WF-223-133-N.jpg","1","1","0","0","1","0","0.457079100000556","0.376954700000169","0.509740700000293","1","1","1","1","1","1","1","1","1"
"250023","img/neutralC/CFD-WF-223-133-N.jpg","img/neutralC/CFD-IF-673-389-N.jpg","img/neutralC/CFD-AM-221-184-N.jpg","0","1","1","0","0","1","0.509740700000293","0.457079100000556","0.48349380000036","1","1","1","1","1","1","1","1","1"
"250023","img/neutralC/CFD-AM-221-184-N.jpg","img/neutralC/CFD-WF-223-133-N.jpg","img/neutralC/CFD-IM-738-191-N.jpg","1","0","1","1","0","0","0.48349380000036","0.509740700000293","0.537658199999896","1","1","1","1","1","1","1","1","1"
"250023","img/neutralC/CFD-IM-738-191-N.jpg","img/neutralC/CFD-AM-221-184-N.jpg","img/neutralC/CFD-WF-006-002-N.jpg","1","1","1","0","1","0","0.537658199999896","0.48349380000036","0.794776700000511","1","1","1","1","1","1","1","1","1"
"250023","img/neutralC/CFD-WF-006-002-N.jpg","img/neutralC/CFD-IM-738-191-N.jpg","img/neutralC/CFD-WM-202-107-N.jpg","1","1","1","0","0","1","0.794776700000511","0.537658199999896","0.62794170000052","1","1","1","1","1","1","1","1","1"
"250023","img/neutralC/CFD-WM-202-107-N.jpg","img/neutralC/CFD-WF-006-002-N.jpg","img/neutralC/CFD-IM-659-359-N.jpg","1","1","1","1","0","0","0.62794170000052","0.794776700000511","0.594352199999776","1","1","1","1","1","1","1","1","1"
"250023","img/neutralC/CFD-IM-659-359-N.jpg","img/neutralC/CFD-WM-202-107-N.jpg","img/neutralC/CFD-BM-213-134-N.jpg","1","1","1","0","1","1","0.594352199999776","0.62794170000052","0.518688800000746","1","1","1","1","1","1","1","1","1"
"250023","img/neutralC/CFD-BM-213-134-N.jpg","img/neutralC/CFD-IM-659-359-N.jpg","img/neutralC/CFD-LF-225-164-N.jpg","1","1","1","1","0","1","0.518688800000746","0.594352199999776","0.546746900000471","1","1","1","1","1","1","1","1","1"
"250023","img/neutralC/CFD-LF-225-164-N.jpg","img/neutralC/CFD-BM-213-134-N.jpg","img/neutralC/CFD-IF-625-225-N.jpg","1","1","1","1","1","0","0.546746900000471","0.518688800000746","0.511061399999562","1","1","1","1","1","1","1","1","1"
"250023","img/neutralC/CFD-IF-625-225-N.jpg","img/neutralC/CFD-LF-225-164-N.jpg","img/neutralC/CFD-BF-004-014-N.jpg","1","1","1","0","1","1","0.511061399999562","0.546746900000471","0.41802110000026","1","1","1","1","1","1","1","1","1"
"250023","img/neutralC/CFD-BF-004-014-N.jpg","img/neutralC/CFD-IF-625-225-N.jpg","img/neutralC/CFD-WF-033-002-N.jpg","1","1","1","1","0","1","0.41802110000026","0.511061399999562","0.440763300000071","1","1","1","1","1","1","1","1","1"
"250023","img/neutralC/CFD-WF-033-002-N.jpg","img/neutralC/CFD-BF-004-014-N.jpg","img/neutralC/CFD-LF-210-220-N.jpg","1","1","1","1","1","1","0.440763300000071","0.41802110000026","0.510175400000662","1","1","1","1","1","1","1","1","1"
"250023","img/neutralC/CFD-LF-210-220-N.jpg","img/neutralC/CFD-WF-033-002-N.jpg","img/neutralC/CFD-LM-238-129-N.jpg","1","1","1","1","1","1","0.510175400000662","0.440763300000071","0.541393000000426","1","1","1","1","1","1","1","1","1"
"250023","img/neutralC/CFD-LM-238-129-N.jpg","img/neutralC/CFD-LF-210-220-N.jpg","img/neutralC/CFD-BF-045-003-N.jpg","1","1","1","1","1","0","0.541393000000426","0.510175400000662","1.16005580000001","1","1","1","1","1","1","1","1","1"
"250023","img/neutralC/CFD-BF-045-003-N.jpg","img/neutralC/CFD-LM-238-129-N.jpg","img/neutralC/CFD-LM-247-095-N.jpg","1","1","1","0","1","0","1.16005580000001","0.541393000000426","0.502028700000665","1","1","1","1","1","1","1","1","1"
"250023","img/neutralC/CFD-LM-247-095-N.jpg","img/neutralC/CFD-BF-045-003-N.jpg","img/neutralC/CFD-WM-228-065-N.jpg","1","1","1","0","0","0","0.502028700000665","1.16005580000001","0.490313000000242","1","1","1","1","1","1","1","1","1"
"250023","img/neutralC/CFD-WM-228-065-N.jpg","img/neutralC/CFD-LM-247-095-N.jpg","img/neutralC/CFD-LF-208-127-N.jpg","1","1","1","0","0","0","0.490313000000242","0.502028700000665","0.529030300000159","1","1","1","1","1","1","1","1","1"
"250023","img/neutralC/CFD-LF-208-127-N.jpg","img/neutralC/CFD-WM-228-065-N.jpg","img/neutralC/CFD-BM-028-002-N.jpg","1","1","1","0","0","1","0.529030300000159","0.490313000000242","0.507748300000458","1","1","1","1","1","1","1","1","1"
"250023","img/neutralC/CFD-BM-028-002-N.jpg","img/neutralC/CFD-LF-208-127-N.jpg","img/neutralC/CFD-AF-227-207-N.jpg","1","1","1","1","0","1","0.507748300000458","0.529030300000159","1.02182859999994","1","1","1","1","1","1","1","1","1"
"250023","img/neutralC/CFD-AF-227-207-N.jpg","img/neutralC/CFD-BM-028-002-N.jpg","img/neutralC/CFD-IF-744-114-N.jpg","1","1","0","1","1","0","1.02182859999994","0.507748300000458","0.538498300000356","1","1","1","1","1","1","1","1","2"
"250023","img/neutralC/CFD-IF-744-114-N.jpg","img/neutralC/CFD-AF-227-207-N.jpg","img/neutralC/CFD-BM-003-003-N.jpg","0","1","1","0","1","0","0.538498300000356","1.02182859999994","0.693586200000027","1","1","1","1","1","1","2","1","1"
"250023","img/neutralC/CFD-BM-003-003-N.jpg","img/neutralC/CFD-IF-744-114-N.jpg","img/neutralC/CFD-AF-210-050-N.jpg","1","0","1","0","0","1","0.693586200000027","0.538498300000356","0.410527500001081","1","1","1","1","1","1","1","2","1"
"250023","img/neutralC/CFD-AF-210-050-N.jpg","img/neutralC/CFD-BM-003-003-N.jpg","img/neutralC/CFD-MF-336-016-N.jpg","1","1","1","1","0","1","0.410527500001081","0.693586200000027","0.431776000000355","1","1","1","1","1","1","1","1","1"
"250023","img/neutralC/CFD-MF-336-016-N.jpg","img/neutralC/CFD-AF-210-050-N.jpg","img/neutralC/CFD-BF-222-240-N.jpg","1","1","1","1","1","0","0.431776000000355","0.410527500001081","0.428403700000672","1","1","1","1","1","1","1","1","1"
"250023","img/neutralC/CFD-BF-222-240-N.jpg","img/neutralC/CFD-MF-336-016-N.jpg","img/neutralC/CFD-MF-312-002-N.jpg","1","1","1","0","1","1","0.428403700000672","0.431776000000355","0.416855100000248","1","1","1","1","1","1","1","1","1"
"250023","img/neutralC/CFD-MF-312-002-N.jpg","img/neutralC/CFD-BF-222-240-N.jpg","img/neutralC/CFD-BM-010-003-N.jpg","1","1","1","1","0","0","0.416855100000248","0.428403700000672","0.456891500000893","1","1","1","1","1","1","1","1","1"
"250023","img/neutralC/CFD-BM-010-003-N.jpg","img/neutralC/CFD-MF-312-002-N.jpg",NA,"1","1",NA,"0","1",NA,"0.456891500000893","0.416855100000248",NA,"1","1",NA,"1","1",NA,"1","1",NA
"250023","img/neutralC/CFD-IF-608-390-N.jpg",NA,"img/neutralC/CFD-WF-217-085-N.jpg","0",NA,"1","1",NA,"1","1.42482199999995",NA,"0.525033400000211","1",NA,"1","1",NA,"1","1",NA,"1"
"250023","img/neutralC/CFD-WF-217-085-N.jpg","img/neutralC/CFD-IF-608-390-N.jpg","img/neutralC/CFD-LF-226-174-N.jpg","1","0","1","1","1","0","0.525033400000211","1.42482199999995","0.375850100000207","1","1","1","1","1","1","1","1","1"
"250023","img/neutralC/CFD-LF-226-174-N.jpg","img/neutralC/CFD-WF-217-085-N.jpg","img/neutralC/CFD-IM-675-015-N.jpg","1","1","1","0","1","1","0.375850100000207","0.525033400000211","0.377257500000269","1","1","1","1","1","1","1","1","1"
"250023","img/neutralC/CFD-IM-675-015-N.jpg","img/neutralC/CFD-LF-226-174-N.jpg","img/neutralC/CFD-LM-217-162-N.jpg","1","1","1","1","0","0","0.377257500000269","0.375850100000207","0.516379200000301","1","1","1","1","1","1","1","1","1"
"250023","img/neutralC/CFD-LM-217-162-N.jpg","img/neutralC/CFD-IM-675-015-N.jpg","img/neutralC/CFD-BM-039-029-N.jpg","1","1","1","0","1","1","0.516379200000301","0.377257500000269","0.697589200000948","1","1","1","1","1","1","1","1","1"
"250023","img/neutralC/CFD-BM-039-029-N.jpg","img/neutralC/CFD-LM-217-162-N.jpg","img/neutralC/CFD-LF-201-035-N.jpg","1","1","1","1","0","1","0.697589200000948","0.516379200000301","0.506762400000298","1","1","1","1","1","1","1","1","1"
"250023","img/neutralC/CFD-LF-201-035-N.jpg","img/neutralC/CFD-BM-039-029-N.jpg","img/neutralC/CFD-WF-008-002-N.jpg","1","1","1","1","1","1","0.506762400000298","0.697589200000948","0.438143999999738","1","1","1","1","1","1","1","1","1"
"250023","img/neutralC/CFD-WF-008-002-N.jpg","img/neutralC/CFD-LF-201-035-N.jpg","img/neutralC/CFD-AM-236-090-N.jpg","1","1","1","1","1","1","0.438143999999738","0.506762400000298","0.390459400000509","1","1","1","1","1","1","1","1","1"
"250023","img/neutralC/CFD-AM-236-090-N.jpg","img/neutralC/CFD-WF-008-002-N.jpg","img/neutralC/CFD-IM-709-103-N.jpg","1","1","1","1","1","0","0.390459400000509","0.438143999999738","0.481016300000192","1","1","1","1","1","1","1","1","1"
"250023","img/neutralC/CFD-IM-709-103-N.jpg","img/neutralC/CFD-AM-236-090-N.jpg","img/neutralC/CFD-MF-327-002-N.jpg","1","1","1","0","1","0","0.481016300000192","0.390459400000509","0.574277400000938","1","1","1","1","1","1","1","1","1"
"250023","img/neutralC/CFD-MF-327-002-N.jpg","img/neutralC/CFD-IM-709-103-N.jpg","img/neutralC/CFD-IM-604-014-N.jpg","1","1","1","0","0","0","0.574277400000938","0.481016300000192","0.673505600000681","1","1","1","1","1","1","1","1","1"
"250023","img/neutralC/CFD-IM-604-014-N.jpg","img/neutralC/CFD-MF-327-002-N.jpg","img/neutralC/CFD-AF-229-160-N.jpg","1","1","1","0","0","0","0.673505600000681","0.574277400000938","0.483175299999857","1","1","1","1","1","1","1","1","1"
"250023","img/neutralC/CFD-AF-229-160-N.jpg","img/neutralC/CFD-IM-604-014-N.jpg","img/neutralC/CFD-AF-215-70-N.jpg","1","1","1","0","0","0","0.483175299999857","0.673505600000681","0.409238500000356","1","1","1","1","1","1","1","1","1"
"250023","img/neutralC/CFD-AF-215-70-N.jpg","img/neutralC/CFD-AF-229-160-N.jpg","img/neutralC/CFD-AF-254-167-N.jpg","1","1","1","0","0","1","0.409238500000356","0.483175299999857","0.273067199999787","1","1","1","1","1","1","1","1","1"
"250023","img/neutralC/CFD-AF-254-167-N.jpg","img/neutralC/CFD-AF-215-70-N.jpg","img/neutralC/CFD-WM-024-015-N.jpg","1","1","0","1","0","1","0.273067199999787","0.409238500000356","0.273139300000366","1","1","1","1","1","1","1","1","1"
"250023","img/neutralC/CFD-WM-024-015-N.jpg","img/neutralC/CFD-AF-254-167-N.jpg","img/neutralC/CFD-BM-243-218-N.jpg","0","1","1","1","1","1","0.273139300000366","0.273067199999787","0.429437300000245","1","1","1","1","1","1","1","1","1"
"250023","img/neutralC/CFD-BM-243-218-N.jpg","img/neutralC/CFD-WM-024-015-N.jpg","img/neutralC/CFD-BF-051-035-N.jpg","1","0","1","1","1","0","0.429437300000245","0.273139300000366","0.832496099999844","1","1","1","1","1","1","1","1","1"
"250023","img/neutralC/CFD-BF-051-035-N.jpg","img/neutralC/CFD-BM-243-218-N.jpg","img/neutralC/CFD-MF-329-001-N.jpg","1","1","1","0","1","0","0.832496099999844","0.429437300000245","0.538597900000241","1","1","1","1","1","1","1","1","1"
"250023","img/neutralC/CFD-MF-329-001-N.jpg","img/neutralC/CFD-BF-051-035-N.jpg","img/neutralC/CFD-MM-304-002-N.jpg","1","1","1","0","0","1","0.538597900000241","0.832496099999844","0.425877100000434","1","1","1","1","1","1","1","1","1"
"250023","img/neutralC/CFD-MM-304-002-N.jpg","img/neutralC/CFD-MF-329-001-N.jpg","img/neutralC/CFD-BF-043-003-N.jpg","1","1","1","1","0","0","0.425877100000434","0.538597900000241","0.489123700000164","1","1","1","1","1","1","1","1","1"
"250023","img/neutralC/CFD-BF-043-003-N.jpg","img/neutralC/CFD-MM-304-002-N.jpg","img/neutralC/CFD-MF-340-026-N.jpg","1","1","1","0","1","1","0.489123700000164","0.425877100000434","0.503879900000356","1","1","1","1","1","1","1","1","1"
"250023","img/neutralC/CFD-MF-340-026-N.jpg","img/neutralC/CFD-BF-043-003-N.jpg","img/neutralC/CFD-WF-212-050-N.jpg","1","1","1","1","0","0","0.503879900000356","0.489123700000164","0.519518000000971","1","1","1","1","1","1","1","1","1"
"250023","img/neutralC/CFD-WF-212-050-N.jpg","img/neutralC/CFD-MF-340-026-N.jpg","img/neutralC/CFD-IF-619-197-N.jpg","1","1","1","0","1","0","0.519518000000971","0.503879900000356","0.355845800000679","1","1","1","1","1","1","1","1","1"
"250023","img/neutralC/CFD-IF-619-197-N.jpg","img/neutralC/CFD-WF-212-050-N.jpg","img/neutralC/CFD-IM-685-004-N.jpg","1","1","1","0","0","1","0.355845800000679","0.519518000000971","0.423384600000645","1","1","1","1","1","1","1","1","1"
"250023","img/neutralC/CFD-IM-685-004-N.jpg","img/neutralC/CFD-IF-619-197-N.jpg","img/neutralC/CFD-WF-248-129-N.jpg","1","1","1","1","0","0","0.423384600000645","0.355845800000679","0.442704099999901","1","1","1","1","1","1","1","1","1"
"250023","img/neutralC/CFD-WF-248-129-N.jpg","img/neutralC/CFD-IM-685-004-N.jpg","img/neutralC/CFD-WM-213-076-N.jpg","1","1","1","0","1","1","0.442704099999901","0.423384600000645","0.487888100000418","1","1","1","1","1","1","1","1","1"
"250023","img/neutralC/CFD-WM-213-076-N.jpg","img/neutralC/CFD-WF-248-129-N.jpg","img/neutralC/CFD-WF-012-002-N.jpg","1","1","0","1","0","1","0.487888100000418","0.442704099999901","0.429672399999617","1","1","1","1","1","1","1","1","1"
"250023","img/neutralC/CFD-WF-012-002-N.jpg","img/neutralC/CFD-WM-213-076-N.jpg","img/neutralC/CFD-BF-224-002-N.jpg","0","1","1","1","1","1","0.429672399999617","0.487888100000418","0.900532100000419","1","1","1","1","1","1","1","1","1"
"250023","img/neutralC/CFD-BF-224-002-N.jpg","img/neutralC/CFD-WF-012-002-N.jpg","img/neutralC/CFD-WM-232-070-N.jpg","1","0","1","1","1","0","0.900532100000419","0.429672399999617","0.507133199999771","1","1","1","1","1","1","1","1","1"
"250023","img/neutralC/CFD-WM-232-070-N.jpg","img/neutralC/CFD-BF-224-002-N.jpg","img/neutralC/CFD-IM-637-007-N.jpg","1","1","1","0","1","0","0.507133199999771","0.900532100000419","0.783840199999759","1","1","1","1","1","1","1","1","1"
"250023","img/neutralC/CFD-IM-637-007-N.jpg","img/neutralC/CFD-WM-232-070-N.jpg","img/neutralC/CFD-MF-300-002-N.jpg","1","1","1","0","0","0","0.783840199999759","0.507133199999771","0.61237600000004","1","1","1","1","1","1","1","1","1"
"250023","img/neutralC/CFD-MF-300-002-N.jpg","img/neutralC/CFD-IM-637-007-N.jpg",NA,"1","1",NA,"0","0",NA,"0.61237600000004","0.783840199999759",NA,"1","1",NA,"1","1",NA,"1","1",NA
"250023","img/neutralC/CFD-WM-033-025-N.jpg",NA,"img/neutralC/CFD-WF-214-122-N.jpg","1",NA,"1","1",NA,"1","0.457811799999945",NA,"0.421746800000619","1",NA,"1","1",NA,"1","1",NA,"1"
"250023","img/neutralC/CFD-WF-214-122-N.jpg","img/neutralC/CFD-WM-033-025-N.jpg","img/neutralC/CFD-WM-219-008-N.jpg","1","1","0","1","1","0","0.421746800000619","0.457811799999945","0.395365300000776","1","1","1","1","1","1","1","1","1"
"250023","img/neutralC/CFD-WM-219-008-N.jpg","img/neutralC/CFD-WF-214-122-N.jpg","img/neutralC/CFD-LF-220-120-N.jpg","0","1","1","0","1","1","0.395365300000776","0.421746800000619","0.448590000000877","1","1","1","1","1","1","1","1","1"
"250023","img/neutralC/CFD-LF-220-120-N.jpg","img/neutralC/CFD-WM-219-008-N.jpg","img/neutralC/CFD-AM-251-124-N.jpg","1","0","0","1","0","0","0.448590000000877","0.395365300000776","0.396091399999932","1","1","1","1","1","1","1","1","1"
"250023","img/neutralC/CFD-AM-251-124-N.jpg","img/neutralC/CFD-LF-220-120-N.jpg","img/neutralC/CFD-AM-211-052-N.jpg","0","1","1","0","1","1","0.396091399999932","0.448590000000877","0.472288599999956","1","1","1","1","1","1","1","1","1"
"250023","img/neutralC/CFD-AM-211-052-N.jpg","img/neutralC/CFD-AM-251-124-N.jpg","img/neutralC/CFD-IF-623-129-N.jpg","1","0","1","1","0","1","0.472288599999956","0.396091399999932","0.443472700000711","1","1","1","1","1","1","1","1","1"
"250023","img/neutralC/CFD-IF-623-129-N.jpg","img/neutralC/CFD-AM-211-052-N.jpg","img/neutralC/CFD-LM-228-188-N.jpg","1","1","1","1","1","1","0.443472700000711","0.472288599999956","0.397735900000953","1","1","1","1","1","1","1","1","1"
"250023","img/neutralC/CFD-LM-228-188-N.jpg","img/neutralC/CFD-IF-623-129-N.jpg","img/neutralC/CFD-IM-671-601-N.jpg","1","1","1","1","1","0","0.397735900000953","0.443472700000711","0.363726800001132","1","1","1","1","1","1","1","1","1"
"250023","img/neutralC/CFD-IM-671-601-N.jpg","img/neutralC/CFD-LM-228-188-N.jpg","img/neutralC/CFD-MF-333-012-N.jpg","1","1","1","0","1","0","0.363726800001132","0.397735900000953","0.547689600000012","1","1","1","1","1","1","1","1","1"
"250023","img/neutralC/CFD-MF-333-012-N.jpg","img/neutralC/CFD-IM-671-601-N.jpg","img/neutralC/CFD-BF-232-187-N.jpg","1","1","1","0","0","1","0.547689600000012","0.363726800001132","0.437511300000551","1","1","1","1","1","1","1","1","1"
"250023","img/neutralC/CFD-BF-232-187-N.jpg","img/neutralC/CFD-MF-333-012-N.jpg","img/neutralC/CFD-BF-229-179-N.jpg","1","1","0","1","0","0","0.437511300000551","0.547689600000012","0.656202199999825","1","1","1","1","1","1","1","1","1"
"250023","img/neutralC/CFD-BF-229-179-N.jpg","img/neutralC/CFD-BF-232-187-N.jpg","img/neutralC/CFD-IM-616-214-N.jpg","0","1","1","0","1","0","0.656202199999825","0.437511300000551","0.507528699999966","1","1","1","1","1","1","1","1","1"
"250023","img/neutralC/CFD-IM-616-214-N.jpg","img/neutralC/CFD-BF-229-179-N.jpg","img/neutralC/CFD-LF-218-072-N.jpg","1","0","1","0","0","0","0.507528699999966","0.656202199999825","0.460910700000568","1","1","1","1","1","1","1","1","1"
"250023","img/neutralC/CFD-LF-218-072-N.jpg","img/neutralC/CFD-IM-616-214-N.jpg","img/neutralC/CFD-IM-645-001-N.jpg","1","1","1","0","0","0","0.460910700000568","0.507528699999966","0.534301300000152","1","1","1","1","1","1","1","1","1"
"250023","img/neutralC/CFD-IM-645-001-N.jpg","img/neutralC/CFD-LF-218-072-N.jpg","img/neutralC/CFD-BM-225-154-N.jpg","1","1","1","0","0","1","0.534301300000152","0.460910700000568","0.479982800000471","1","1","1","1","1","1","1","1","1"
"250023","img/neutralC/CFD-BM-225-154-N.jpg","img/neutralC/CFD-IM-645-001-N.jpg","img/neutralC/CFD-MF-352-054-N.jpg","1","1","1","1","0","0","0.479982800000471","0.534301300000152","0.50920860000042","1","1","1","1","1","1","1","1","1"
"250023","img/neutralC/CFD-MF-352-054-N.jpg","img/neutralC/CFD-BM-225-154-N.jpg","img/neutralC/CFD-WM-235-147-N.jpg","1","1","1","0","1","0","0.50920860000042","0.479982800000471","0.376781400000255","1","1","1","1","1","1","1","1","1"
"250023","img/neutralC/CFD-WM-235-147-N.jpg","img/neutralC/CFD-MF-352-054-N.jpg","img/neutralC/CFD-BF-226-119-N.jpg","1","1","1","0","0","1","0.376781400000255","0.50920860000042","0.374459600000591","1","1","1","1","1","1","1","1","1"
"250023","img/neutralC/CFD-BF-226-119-N.jpg","img/neutralC/CFD-WM-235-147-N.jpg","img/neutralC/CFD-WF-200-099-N.jpg","1","1","1","1","0","0","0.374459600000591","0.376781400000255","0.418730400000641","1","1","1","1","1","1","1","1","1"
"250023","img/neutralC/CFD-WF-200-099-N.jpg","img/neutralC/CFD-BF-226-119-N.jpg","img/neutralC/CFD-BM-253-004-N.jpg","1","1","1","0","1","1","0.418730400000641","0.374459600000591","0.648185300000478","1","1","1","1","1","1","1","1","1"
"250023","img/neutralC/CFD-BM-253-004-N.jpg","img/neutralC/CFD-WF-200-099-N.jpg","img/neutralC/CFD-WM-004-010-N.jpg","1","1","1","1","0","0","0.648185300000478","0.418730400000641","0.440479699999742","1","1","1","1","1","1","1","1","1"
"250023","img/neutralC/CFD-WM-004-010-N.jpg","img/neutralC/CFD-BM-253-004-N.jpg","img/neutralC/CFD-IF-650-315-N.jpg","1","1","1","0","1","0","0.440479699999742","0.648185300000478","0.500642899999548","1","1","1","1","1","1","1","1","1"
"250023","img/neutralC/CFD-IF-650-315-N.jpg","img/neutralC/CFD-WM-004-010-N.jpg","img/neutralC/CFD-IM-703-182-N.jpg","1","1","1","0","0","1","0.500642899999548","0.440479699999742","0.540362400000959","1","1","1","1","1","1","1","1","1"
"250023","img/neutralC/CFD-IM-703-182-N.jpg","img/neutralC/CFD-IF-650-315-N.jpg","img/neutralC/CFD-MF-359-019-N.jpg","1","1","1","1","0","0","0.540362400000959","0.500642899999548","0.720821100000649","1","1","1","1","1","1","1","1","1"
"250023","img/neutralC/CFD-MF-359-019-N.jpg","img/neutralC/CFD-IM-703-182-N.jpg","img/neutralC/CFD-IM-743-006-N.jpg","1","1","1","0","1","1","0.720821100000649","0.540362400000959","0.530322500000693","1","1","1","1","1","1","1","1","1"
"250023","img/neutralC/CFD-IM-743-006-N.jpg","img/neutralC/CFD-MF-359-019-N.jpg","img/neutralC/CFD-WF-036-023-N.jpg","1","1","1","1","0","0","0.530322500000693","0.720821100000649","0.496526400000221","1","1","1","1","1","1","1","1","1"
"250023","img/neutralC/CFD-WF-036-023-N.jpg","img/neutralC/CFD-IM-743-006-N.jpg","img/neutralC/CFD-WM-020-001-N.jpg","1","1","1","0","1","1","0.496526400000221","0.530322500000693","0.477427300000272","1","1","1","1","1","1","1","1","1"
"250023","img/neutralC/CFD-WM-020-001-N.jpg","img/neutralC/CFD-WF-036-023-N.jpg","img/neutralC/CFD-LM-237-264-N.jpg","1","1","1","1","0","0","0.477427300000272","0.496526400000221","0.561393500000122","1","1","1","1","1","1","1","1","1"
"250023","img/neutralC/CFD-LM-237-264-N.jpg","img/neutralC/CFD-WM-020-001-N.jpg","img/neutralC/CFD-AM-242-176-N.jpg","1","1","1","0","1","1","0.561393500000122","0.477427300000272","0.616432100000566","1","1","1","1","1","1","1","1","1"
"250023","img/neutralC/CFD-AM-242-176-N.jpg","img/neutralC/CFD-LM-237-264-N.jpg","img/neutralC/CFD-BF-038-037-N.jpg","1","1","1","1","0","1","0.616432100000566","0.561393500000122","0.508949200000643","1","1","1","1","1","1","1","1","1"
"250023","img/neutralC/CFD-BF-038-037-N.jpg","img/neutralC/CFD-AM-242-176-N.jpg","img/neutralC/CFD-WF-001-003-N.jpg","1","1","1","1","1","1","0.508949200000643","0.616432100000566","0.74497810000048","1","1","1","1","1","1","1","1","1"
"250023","img/neutralC/CFD-WF-001-003-N.jpg","img/neutralC/CFD-BF-038-037-N.jpg",NA,"1","1",NA,"1","1",NA,"0.74497810000048","0.508949200000643",NA,"1","1",NA,"1","1",NA,"1","1",NA
"250023","img/neutralC/CFD-BM-217-082-N.jpg",NA,"img/neutralC/CFD-MF-305-014-N.jpg","1",NA,"1","0",NA,"1","0.53868170000078",NA,"0.386610600000495","1",NA,"1","1",NA,"1","1",NA,"1"
"250023","img/neutralC/CFD-MF-305-014-N.jpg","img/neutralC/CFD-BM-217-082-N.jpg","img/neutralC/CFD-WM-209-038-N.jpg","1","1","1","1","0","0","0.386610600000495","0.53868170000078","0.490998899999795","1","1","1","1","1","1","1","1","1"
"250023","img/neutralC/CFD-WM-209-038-N.jpg","img/neutralC/CFD-MF-305-014-N.jpg","img/neutralC/CFD-BF-237-172-N.jpg","1","1","1","0","1","1","0.490998899999795","0.386610600000495","0.399361800000406","1","1","1","1","1","1","1","1","1"
"250023","img/neutralC/CFD-BF-237-172-N.jpg","img/neutralC/CFD-WM-209-038-N.jpg","img/neutralC/CFD-IM-667-369-N.jpg","1","1","1","1","0","0","0.399361800000406","0.490998899999795","0.490630799999053","1","1","1","1","1","1","1","1","1"
"250023","img/neutralC/CFD-IM-667-369-N.jpg","img/neutralC/CFD-BF-237-172-N.jpg","img/neutralC/CFD-IF-626-375-N.jpg","1","1","1","0","1","0","0.490630799999053","0.399361800000406","0.333544200000688","1","1","1","1","1","1","1","1","1"
"250023","img/neutralC/CFD-IF-626-375-N.jpg","img/neutralC/CFD-IM-667-369-N.jpg","img/neutralC/CFD-IF-660-464-N.jpg","1","1","1","0","0","0","0.333544200000688","0.490630799999053","0.50545240000065","1","1","1","1","1","1","1","1","1"
"250023","img/neutralC/CFD-IF-660-464-N.jpg","img/neutralC/CFD-IF-626-375-N.jpg","img/neutralC/CFD-MF-316-001-N.jpg","1","1","1","0","0","0","0.50545240000065","0.333544200000688","0.326316000000588","1","1","1","1","1","1","1","1","1"
"250023","img/neutralC/CFD-MF-316-001-N.jpg","img/neutralC/CFD-IF-660-464-N.jpg","img/neutralC/CFD-WF-030-002-N.jpg","1","1","1","0","0","0","0.326316000000588","0.50545240000065","0.502352299999984","1","1","1","1","1","1","1","1","1"
"250023","img/neutralC/CFD-WF-030-002-N.jpg","img/neutralC/CFD-MF-316-001-N.jpg","img/neutralC/CFD-AF-253-130-N.jpg","1","1","1","0","0","1","0.502352299999984","0.326316000000588","0.51863720000074","1","1","1","1","1","1","1","1","1"
"250023","img/neutralC/CFD-AF-253-130-N.jpg","img/neutralC/CFD-WF-030-002-N.jpg","img/neutralC/CFD-MM-324-069-N.jpg","1","1","1","1","0","1","0.51863720000074","0.502352299999984","0.540043500001048","1","1","1","1","1","1","1","1","1"
"250023","img/neutralC/CFD-MM-324-069-N.jpg","img/neutralC/CFD-AF-253-130-N.jpg","img/neutralC/CFD-MF-357-002-N.jpg","1","1","1","1","1","0","0.540043500001048","0.51863720000074","0.579642500000773","1","1","1","1","1","1","1","1","1"
"250023","img/neutralC/CFD-MF-357-002-N.jpg","img/neutralC/CFD-MM-324-069-N.jpg","img/neutralC/CFD-MF-343-001-N.jpg","1","1","1","0","1","1","0.579642500000773","0.540043500001048","0.471294700000726","1","1","1","1","1","1","1","1","1"
"250023","img/neutralC/CFD-MF-343-001-N.jpg","img/neutralC/CFD-MF-357-002-N.jpg","img/neutralC/CFD-BF-014-002-N.jpg","1","1","1","1","0","1","0.471294700000726","0.579642500000773","0.60221939999974","1","1","1","1","1","1","1","1","1"
"250023","img/neutralC/CFD-BF-014-002-N.jpg","img/neutralC/CFD-MF-343-001-N.jpg","img/neutralC/CFD-BM-250-170-N.jpg","1","1","1","1","1","1","0.60221939999974","0.471294700000726","0.36853290000181","1","1","1","1","1","1","1","1","1"
"250023","img/neutralC/CFD-BM-250-170-N.jpg","img/neutralC/CFD-BF-014-002-N.jpg","img/neutralC/CFD-WF-244-163-N.jpg","1","1","1","1","1","1","0.36853290000181","0.60221939999974","0.50482810000176","1","1","1","1","1","1","1","1","1"
"250023","img/neutralC/CFD-WF-244-163-N.jpg","img/neutralC/CFD-BM-250-170-N.jpg","img/neutralC/CFD-WM-015-002-N.jpg","1","1","1","1","1","0","0.50482810000176","0.36853290000181","0.496459699999832","1","1","1","1","1","1","1","1","1"
"250023","img/neutralC/CFD-WM-015-002-N.jpg","img/neutralC/CFD-WF-244-163-N.jpg","img/neutralC/CFD-AF-233-190-N.jpg","1","1","1","0","1","0","0.496459699999832","0.50482810000176","0.401764900001581","1","1","1","1","1","1","1","1","1"
"250023","img/neutralC/CFD-AF-233-190-N.jpg","img/neutralC/CFD-WM-015-002-N.jpg","img/neutralC/CFD-AM-220-134-N.jpg","1","1","0","0","0","0","0.401764900001581","0.496459699999832","0.542758400000821","1","1","1","1","1","1","1","1","1"
"250023","img/neutralC/CFD-AM-220-134-N.jpg","img/neutralC/CFD-AF-233-190-N.jpg","img/neutralC/CFD-WF-222-092-N.jpg","0","1","1","0","0","1","0.542758400000821","0.401764900001581","0.501226799999131","1","1","1","1","1","1","1","1","1"
"250023","img/neutralC/CFD-WF-222-092-N.jpg","img/neutralC/CFD-AM-220-134-N.jpg","img/neutralC/CFD-LF-206-078-N.jpg","1","0","1","1","0","1","0.501226799999131","0.542758400000821","0.511813800001619","1","1","1","1","1","1","1","1","1"
"250023","img/neutralC/CFD-LF-206-078-N.jpg","img/neutralC/CFD-WF-222-092-N.jpg","img/neutralC/CFD-LM-225-130-N.jpg","1","1","1","1","1","0","0.511813800001619","0.501226799999131","0.566075699998692","1","1","1","1","1","1","1","1","1"
"250023","img/neutralC/CFD-LM-225-130-N.jpg","img/neutralC/CFD-LF-206-078-N.jpg","img/neutralC/CFD-LM-200-045-N.jpg","1","1","0","0","1","1","0.566075699998692","0.511813800001619","0.456512799999473","1","1","1","1","1","1","1","1","1"
"250023","img/neutralC/CFD-LM-200-045-N.jpg","img/neutralC/CFD-LM-225-130-N.jpg","img/neutralC/CFD-LF-255-088-N.jpg","0","1","1","1","0","0","0.456512799999473","0.566075699998692","0.448165300000255","1","1","1","1","1","1","1","1","1"
"250023","img/neutralC/CFD-LF-255-088-N.jpg","img/neutralC/CFD-LM-200-045-N.jpg","img/neutralC/CFD-IM-706-002-N.jpg","1","0","0","0","1","0","0.448165300000255","0.456512799999473","0.53901070000029","1","1","1","1","1","1","1","1","1"
"250023","img/neutralC/CFD-IM-706-002-N.jpg","img/neutralC/CFD-LF-255-088-N.jpg","img/neutralC/CFD-IM-680-369-N.jpg","0","1","1","0","0","1","0.53901070000029","0.448165300000255","0.502647999999681","1","1","1","1","1","1","1","1","1"
"250023","img/neutralC/CFD-IM-680-369-N.jpg","img/neutralC/CFD-IM-706-002-N.jpg","img/neutralC/CFD-MF-303-013-N.jpg","1","0","1","1","0","0","0.502647999999681","0.53901070000029","0.623995599999034","1","1","1","1","1","1","1","1","1"
"250023","img/neutralC/CFD-MF-303-013-N.jpg","img/neutralC/CFD-IM-680-369-N.jpg","img/neutralC/CFD-WF-007-001-N.jpg","1","1","1","0","1","1","0.623995599999034","0.502647999999681","0.46922160000031","1","1","1","1","1","1","1","1","1"
"250023","img/neutralC/CFD-WF-007-001-N.jpg","img/neutralC/CFD-MF-303-013-N.jpg","img/neutralC/CFD-BM-001-014-N.jpg","1","1","0","1","0","0","0.46922160000031","0.623995599999034","0.448251699999673","1","1","1","1","1","1","1","1","1"
"250023","img/neutralC/CFD-BM-001-014-N.jpg","img/neutralC/CFD-WF-007-001-N.jpg","img/neutralC/CFD-WM-218-074-N.jpg","0","1","1","0","1","1","0.448251699999673","0.46922160000031","0.452973399998882","1","1","1","1","1","1","1","1","1"
"250023","img/neutralC/CFD-WM-218-074-N.jpg","img/neutralC/CFD-BM-001-014-N.jpg","img/neutralC/CFD-IM-664-651-N.jpg","1","0","1","1","0","1","0.452973399998882","0.448251699999673","0.721841599999607","1","1","1","1","1","1","1","1","1"
"250023","img/neutralC/CFD-IM-664-651-N.jpg","img/neutralC/CFD-WM-218-074-N.jpg","img/neutralC/CFD-IM-702-101-N.jpg","1","1","1","1","1","1","0.721841599999607","0.452973399998882","0.489572499998758","1","1","1","1","1","1","1","1","1"
"250023","img/neutralC/CFD-IM-702-101-N.jpg","img/neutralC/CFD-IM-664-651-N.jpg",NA,"1","1",NA,"1","1",NA,"0.489572499998758","0.721841599999607",NA,"1","1",NA,"1","1",NA,"1","1",NA
"250023","img/neutralC/CFD-WM-253-119-N.jpg",NA,"img/neutralC/CFD-BF-020-002-N.jpg","1",NA,"1","1",NA,"1","0.494905899999139",NA,"0.520279599999412","1",NA,"1","1",NA,"1","1",NA,"1"
"250023","img/neutralC/CFD-BF-020-002-N.jpg","img/neutralC/CFD-WM-253-119-N.jpg","img/neutralC/CFD-AF-213-126-N.jpg","1","1","1","1","1","1","0.520279599999412","0.494905899999139","0.558887200000754","1","1","1","1","1","1","1","1","1"
"250023","img/neutralC/CFD-AF-213-126-N.jpg","img/neutralC/CFD-BF-020-002-N.jpg","img/neutralC/CFD-AF-250-200-N.jpg","1","1","1","1","1","1","0.558887200000754","0.520279599999412","0.460346199999549","1","1","1","1","1","1","1","1","1"
"250023","img/neutralC/CFD-AF-250-200-N.jpg","img/neutralC/CFD-AF-213-126-N.jpg","img/neutralC/CFD-LM-241-125-N.jpg","1","1","1","1","1","1","0.460346199999549","0.558887200000754","0.323052300000199","1","1","1","1","1","1","1","1","1"
"250023","img/neutralC/CFD-LM-241-125-N.jpg","img/neutralC/CFD-AF-250-200-N.jpg","img/neutralC/CFD-AF-234-208-N.jpg","1","1","1","1","1","1","0.323052300000199","0.460346199999549","0.551279100000102","1","1","1","1","1","1","1","1","1"
"250023","img/neutralC/CFD-AF-234-208-N.jpg","img/neutralC/CFD-LM-241-125-N.jpg","img/neutralC/CFD-BF-217-189-N.jpg","1","1","1","1","1","0","0.551279100000102","0.323052300000199","0.458454400000846","1","1","1","1","1","1","1","1","1"
"250023","img/neutralC/CFD-BF-217-189-N.jpg","img/neutralC/CFD-AF-234-208-N.jpg","img/neutralC/CFD-BF-235-168-N.jpg","1","1","1","0","1","1","0.458454400000846","0.551279100000102","0.485827900001823","1","1","1","1","1","1","1","1","1"
"250023","img/neutralC/CFD-BF-235-168-N.jpg","img/neutralC/CFD-BF-217-189-N.jpg","img/neutralC/CFD-IM-635-010-N.jpg","1","1","1","1","0","1","0.485827900001823","0.458454400000846","0.40599470000052","1","1","1","1","1","1","1","1","1"
"250023","img/neutralC/CFD-IM-635-010-N.jpg","img/neutralC/CFD-BF-235-168-N.jpg","img/neutralC/CFD-BM-004-002-N.jpg","1","1","1","1","1","0","0.40599470000052","0.485827900001823","0.651949099999911","1","1","1","1","1","1","1","1","1"
"250023","img/neutralC/CFD-BM-004-002-N.jpg","img/neutralC/CFD-IM-635-010-N.jpg","img/neutralC/CFD-BF-040-003-N.jpg","1","1","1","0","1","1","0.651949099999911","0.40599470000052","0.443772300001001","1","1","1","1","1","1","1","1","1"
"250023","img/neutralC/CFD-BF-040-003-N.jpg","img/neutralC/CFD-BM-004-002-N.jpg","img/neutralC/CFD-AM-225-102-N.jpg","1","1","1","1","0","0","0.443772300001001","0.651949099999911","0.448998300000312","1","1","1","1","1","1","1","1","1"
"250023","img/neutralC/CFD-AM-225-102-N.jpg","img/neutralC/CFD-BF-040-003-N.jpg","img/neutralC/CFD-IF-636-011-N.jpg","1","1","1","0","1","1","0.448998300000312","0.443772300001001","0.376624000000447","1","1","1","1","1","1","1","1","1"
"250023","img/neutralC/CFD-IF-636-011-N.jpg","img/neutralC/CFD-AM-225-102-N.jpg","img/neutralC/CFD-IM-678-482-N.jpg","1","1","1","1","0","0","0.376624000000447","0.448998300000312","0.462341300000844","1","1","1","1","1","1","1","1","1"
"250023","img/neutralC/CFD-IM-678-482-N.jpg","img/neutralC/CFD-IF-636-011-N.jpg","img/neutralC/CFD-AF-246-242-N.jpg","1","1","1","0","1","0","0.462341300000844","0.376624000000447","0.404352200001085","1","1","1","1","1","1","1","1","1"
"250023","img/neutralC/CFD-AF-246-242-N.jpg","img/neutralC/CFD-IM-678-482-N.jpg","img/neutralC/CFD-LM-204-001-N.jpg","1","1","1","0","0","0","0.404352200001085","0.462341300000844","0.377471000001606","1","1","1","1","1","1","1","1","1"
"250023","img/neutralC/CFD-LM-204-001-N.jpg","img/neutralC/CFD-AF-246-242-N.jpg","img/neutralC/CFD-AF-205-155-N.jpg","1","1","1","0","0","0","0.377471000001606","0.404352200001085","0.50892130000102","1","1","1","1","1","1","1","1","1"
"250023","img/neutralC/CFD-AF-205-155-N.jpg","img/neutralC/CFD-LM-204-001-N.jpg","img/neutralC/CFD-WF-235-121-N.jpg","1","1","1","0","0","0","0.50892130000102","0.377471000001606","0.51096250000046","1","1","1","1","1","1","1","1","1"
"250023","img/neutralC/CFD-WF-235-121-N.jpg","img/neutralC/CFD-AF-205-155-N.jpg","img/neutralC/CFD-BF-206-143-N.jpg","1","1","0","0","0","1","0.51096250000046","0.50892130000102","0.363626900001691","1","1","1","1","1","1","1","1","1"
"250023","img/neutralC/CFD-BF-206-143-N.jpg","img/neutralC/CFD-WF-235-121-N.jpg","img/neutralC/CFD-BM-215-155-N.jpg","0","1","1","1","0","0","0.363626900001691","0.51096250000046","0.509231599999111","1","1","1","1","1","1","1","1","1"
"250023","img/neutralC/CFD-BM-215-155-N.jpg","img/neutralC/CFD-BF-206-143-N.jpg","img/neutralC/CFD-MF-302-027-N.jpg","1","0","0","0","1","0","0.509231599999111","0.363626900001691","0.453139700000975","1","1","1","1","1","1","1","1","1"
"250023","img/neutralC/CFD-MF-302-027-N.jpg","img/neutralC/CFD-BM-215-155-N.jpg","img/neutralC/CFD-IF-732-260-N.jpg","0","1","1","0","0","0","0.453139700000975","0.509231599999111","0.664424500000678","1","1","1","1","1","1","1","1","1"
"250023","img/neutralC/CFD-IF-732-260-N.jpg","img/neutralC/CFD-MF-302-027-N.jpg","img/neutralC/CFD-WM-018-002-N.jpg","1","0","0","0","0","0","0.664424500000678","0.453139700000975","0.434223700000075","1","1","1","1","1","1","1","1","1"
"250023","img/neutralC/CFD-WM-018-002-N.jpg","img/neutralC/CFD-IF-732-260-N.jpg","img/neutralC/CFD-AF-244-168-N.jpg","0","1","1","0","0","0","0.434223700000075","0.664424500000678","0.640384700000141","1","1","1","1","1","1","1","1","1"
"250023","img/neutralC/CFD-AF-244-168-N.jpg","img/neutralC/CFD-WM-018-002-N.jpg","img/neutralC/CFD-AM-245-111-N.jpg","1","0","1","0","0","1","0.640384700000141","0.434223700000075","0.403587799999514","1","1","1","1","1","1","1","1","1"
"250023","img/neutralC/CFD-AM-245-111-N.jpg","img/neutralC/CFD-AF-244-168-N.jpg","img/neutralC/CFD-AM-233-236-N.jpg","1","1","1","1","0","1","0.403587799999514","0.640384700000141","0.501764399999956","1","1","1","1","1","1","1","1","1"
"250023","img/neutralC/CFD-AM-233-236-N.jpg","img/neutralC/CFD-AM-245-111-N.jpg","img/neutralC/CFD-LF-239-148-N.jpg","1","1","0","1","1","0","0.501764399999956","0.403587799999514","0.346473400000832","1","1","1","1","1","1","1","1","1"
"250023","img/neutralC/CFD-LF-239-148-N.jpg","img/neutralC/CFD-AM-233-236-N.jpg","img/neutralC/CFD-IM-632-097-N.jpg","0","1","1","0","1","0","0.346473400000832","0.501764399999956","0.614196799999263","1","1","1","1","1","1","1","1","1"
"250023","img/neutralC/CFD-IM-632-097-N.jpg","img/neutralC/CFD-LF-239-148-N.jpg","img/neutralC/CFD-WF-210-086-N.jpg","1","0","1","0","0","0","0.614196799999263","0.346473400000832","0.564468700000361","1","1","1","1","1","1","1","1","1"
"250023","img/neutralC/CFD-WF-210-086-N.jpg","img/neutralC/CFD-IM-632-097-N.jpg","img/neutralC/CFD-MF-307-002-N.jpg","1","1","1","0","0","1","0.564468700000361","0.614196799999263","0.461944599999697","1","1","1","1","1","1","1","1","1"
"250023","img/neutralC/CFD-MF-307-002-N.jpg","img/neutralC/CFD-WF-210-086-N.jpg","img/neutralC/CFD-BF-042-026-N.jpg","1","1","1","1","0","1","0.461944599999697","0.564468700000361","0.369683999999324","1","1","1","1","1","1","1","1","1"
"250023","img/neutralC/CFD-BF-042-026-N.jpg","img/neutralC/CFD-MF-307-002-N.jpg","img/neutralC/CFD-IM-669-111-N.jpg","1","1","1","1","1","1","0.369683999999324","0.461944599999697","0.456327599998986","1","1","1","1","1","1","1","1","1"
"250023","img/neutralC/CFD-IM-669-111-N.jpg","img/neutralC/CFD-BF-042-026-N.jpg",NA,"1","1",NA,"1","1",NA,"0.456327599998986","0.369683999999324",NA,"1","1",NA,"1","1",NA,"1","1",NA
"250023","img/neutralC/CFD-WF-233-112-N.jpg",NA,"img/neutralC/CFD-BF-044-034-N.jpg","1",NA,"0","1",NA,"0","0.62080959999912",NA,"0.537906499999735","1",NA,"1","1",NA,"1","1",NA,"1"
"250023","img/neutralC/CFD-BF-044-034-N.jpg","img/neutralC/CFD-WF-233-112-N.jpg","img/neutralC/CFD-BF-236-177-N.jpg","0","1","1","0","1","0","0.537906499999735","0.62080959999912","0.543038099998739","1","1","1","1","1","1","1","1","1"
"250023","img/neutralC/CFD-BF-236-177-N.jpg","img/neutralC/CFD-BF-044-034-N.jpg","img/neutralC/CFD-BF-011-002-N.jpg","1","0","1","0","0","1","0.543038099998739","0.537906499999735","0.558992399999624","1","1","1","1","1","1","1","1","1"
"250023","img/neutralC/CFD-BF-011-002-N.jpg","img/neutralC/CFD-BF-236-177-N.jpg","img/neutralC/CFD-AM-230-150-N.jpg","1","1","1","1","0","0","0.558992399999624","0.543038099998739","0.333065500000885","1","1","1","1","1","1","1","1","1"
"250023","img/neutralC/CFD-AM-230-150-N.jpg","img/neutralC/CFD-BF-011-002-N.jpg","img/neutralC/CFD-LM-213-061-N.jpg","1","1","1","0","1","0","0.333065500000885","0.558992399999624","0.545826900000975","1","1","1","1","1","1","1","1","1"
"250023","img/neutralC/CFD-LM-213-061-N.jpg","img/neutralC/CFD-AM-230-150-N.jpg","img/neutralC/CFD-WF-208-068-N.jpg","1","1","1","0","0","1","0.545826900000975","0.333065500000885","0.586217099998976","1","1","1","1","1","1","1","1","1"
"250023","img/neutralC/CFD-WF-208-068-N.jpg","img/neutralC/CFD-LM-213-061-N.jpg","img/neutralC/CFD-BM-207-024-N.jpg","1","1","1","1","0","1","0.586217099998976","0.545826900000975","0.54281439999977","1","1","1","1","1","1","1","1","1"
"250023","img/neutralC/CFD-BM-207-024-N.jpg","img/neutralC/CFD-WF-208-068-N.jpg","img/neutralC/CFD-WM-248-036-N.jpg","1","1","1","1","1","1","0.54281439999977","0.586217099998976","0.453690700000152","1","1","1","1","1","1","1","1","1"
"250023","img/neutralC/CFD-WM-248-036-N.jpg","img/neutralC/CFD-BM-207-024-N.jpg","img/neutralC/CFD-IF-729-393-N.jpg","1","1","1","1","1","0","0.453690700000152","0.54281439999977","0.405861999999615","1","1","1","1","1","1","1","1","1"
"250023","img/neutralC/CFD-IF-729-393-N.jpg","img/neutralC/CFD-WM-248-036-N.jpg","img/neutralC/CFD-IM-726-248-N.jpg","1","1","1","0","1","0","0.405861999999615","0.453690700000152","0.47231020000072","1","1","1","1","1","1","1","1","1"
"250023","img/neutralC/CFD-IM-726-248-N.jpg","img/neutralC/CFD-IF-729-393-N.jpg","img/neutralC/CFD-WM-014-002-N.jpg","1","1","1","0","0","0","0.47231020000072","0.405861999999615","0.439686100000472","1","1","1","1","1","1","1","1","1"
"250023","img/neutralC/CFD-WM-014-002-N.jpg","img/neutralC/CFD-IM-726-248-N.jpg","img/neutralC/CFD-BF-027-002-N.jpg","1","1","1","0","0","1","0.439686100000472","0.47231020000072","0.442674199999601","1","1","1","1","1","1","1","1","1"
"250023","img/neutralC/CFD-BF-027-002-N.jpg","img/neutralC/CFD-WM-014-002-N.jpg","img/neutralC/CFD-BF-207-004-N.jpg","1","1","1","1","0","1","0.442674199999601","0.439686100000472","0.382429999999658","1","1","1","1","1","1","1","1","1"
"250023","img/neutralC/CFD-BF-207-004-N.jpg","img/neutralC/CFD-BF-027-002-N.jpg","img/neutralC/CFD-BM-238-242-N.jpg","1","1","1","1","1","0","0.382429999999658","0.442674199999601","0.595010700000785","1","1","1","1","1","1","1","1","1"
"250023","img/neutralC/CFD-BM-238-242-N.jpg","img/neutralC/CFD-BF-207-004-N.jpg","img/neutralC/CFD-BM-241-235-N.jpg","1","1","1","0","1","0","0.595010700000785","0.382429999999658","0.457346199998938","1","1","1","1","1","1","1","1","1"
"250023","img/neutralC/CFD-BM-241-235-N.jpg","img/neutralC/CFD-BM-238-242-N.jpg","img/neutralC/CFD-WM-034-030-N.jpg","1","1","1","0","0","1","0.457346199998938","0.595010700000785","0.375425199999881","1","1","1","1","1","1","1","1","1"
"250023","img/neutralC/CFD-WM-034-030-N.jpg","img/neutralC/CFD-BM-241-235-N.jpg","img/neutralC/CFD-IF-677-452-1-N.jpg","1","1","1","1","0","1","0.375425199999881","0.457346199998938","0.452673800000412","1","1","1","1","1","1","1","1","1"
"250023","img/neutralC/CFD-IF-677-452-1-N.jpg","img/neutralC/CFD-WM-034-030-N.jpg","img/neutralC/CFD-BF-006-017-N.jpg","1","1","1","1","1","0","0.452673800000412","0.375425199999881","0.507509000000937","1","1","1","1","1","1","1","1","1"
"250023","img/neutralC/CFD-BF-006-017-N.jpg","img/neutralC/CFD-IF-677-452-1-N.jpg","img/neutralC/CFD-WF-234-086-N.jpg","1","1","1","0","1","1","0.507509000000937","0.452673800000412","0.502893000000768","1","1","1","1","1","1","1","1","1"
"250023","img/neutralC/CFD-WF-234-086-N.jpg","img/neutralC/CFD-BF-006-017-N.jpg","img/neutralC/CFD-BF-002-001-N.jpg","1","1","1","1","0","0","0.502893000000768","0.507509000000937","0.481968599999163","1","1","1","1","1","1","1","1","1"
"250023","img/neutralC/CFD-BF-002-001-N.jpg","img/neutralC/CFD-WF-234-086-N.jpg","img/neutralC/CFD-IF-742-103-N.jpg","1","1","1","0","1","1","0.481968599999163","0.502893000000768","0.400108300000284","1","1","1","1","1","1","1","1","1"
"250023","img/neutralC/CFD-IF-742-103-N.jpg","img/neutralC/CFD-BF-002-001-N.jpg","img/neutralC/CFD-IM-721-341-N.jpg","1","1","1","1","0","1","0.400108300000284","0.481968599999163","0.501356999999189","1","1","1","1","1","1","1","1","1"
"250023","img/neutralC/CFD-IM-721-341-N.jpg","img/neutralC/CFD-IF-742-103-N.jpg","img/neutralC/CFD-WF-029-002-N.jpg","1","1","1","1","1","0","0.501356999999189","0.400108300000284","0.577156000001196","1","1","1","1","1","1","1","1","1"
"250023","img/neutralC/CFD-WF-029-002-N.jpg","img/neutralC/CFD-IM-721-341-N.jpg","img/neutralC/CFD-BF-036-027-N.jpg","1","1","1","0","1","0","0.577156000001196","0.501356999999189","0.633852099999785","1","1","1","1","1","1","1","1","1"
"250023","img/neutralC/CFD-BF-036-027-N.jpg","img/neutralC/CFD-WF-029-002-N.jpg","img/neutralC/CFD-LF-204-133-N.jpg","1","1","1","0","0","1","0.633852099999785","0.577156000001196","0.518876699999964","1","1","1","1","1","1","1","1","1"
"250023","img/neutralC/CFD-LF-204-133-N.jpg","img/neutralC/CFD-BF-036-027-N.jpg","img/neutralC/CFD-BF-247-179-N.jpg","1","1","1","1","0","0","0.518876699999964","0.633852099999785","0.586173400000916","1","1","1","1","1","1","1","1","1"
"250023","img/neutralC/CFD-BF-247-179-N.jpg","img/neutralC/CFD-LF-204-133-N.jpg","img/neutralC/CFD-BM-036-003-N.jpg","1","1","1","0","1","1","0.586173400000916","0.518876699999964","0.817326300000786","1","1","1","1","1","1","1","1","1"
"250023","img/neutralC/CFD-BM-036-003-N.jpg","img/neutralC/CFD-BF-247-179-N.jpg","img/neutralC/CFD-MF-301-024-N.jpg","1","1","1","1","0","0","0.817326300000786","0.586173400000916","0.498847299999397","1","1","1","1","1","1","1","1","1"
"250023","img/neutralC/CFD-MF-301-024-N.jpg","img/neutralC/CFD-BM-036-003-N.jpg","img/neutralC/CFD-BF-214-308-N.jpg","1","1","1","0","1","1","0.498847299999397","0.817326300000786","0.400393200001417","1","1","1","1","1","1","1","1","1"
"250023","img/neutralC/CFD-BF-214-308-N.jpg","img/neutralC/CFD-MF-301-024-N.jpg","img/neutralC/CFD-IM-707-105-N.jpg","1","1","1","1","0","1","0.400393200001417","0.498847299999397","0.596821900000577","1","1","1","1","1","1","1","1","1"
"250023","img/neutralC/CFD-IM-707-105-N.jpg","img/neutralC/CFD-BF-214-308-N.jpg","img/neutralC/CFD-IM-696-001-N.jpg","1","1","1","1","1","0","0.596821900000577","0.400393200001417","0.570751299999756","1","1","1","1","1","1","1","1","1"
"250023","img/neutralC/CFD-IM-696-001-N.jpg","img/neutralC/CFD-IM-707-105-N.jpg",NA,"1","1",NA,"0","1",NA,"0.570751299999756","0.596821900000577",NA,"1","1",NA,"1","1",NA,"1","1",NA
"250023","img/neutralC/CFD-WM-249-239-N.jpg",NA,"img/neutralC/CFD-BM-251-013-N.jpg","1",NA,"1","1",NA,"1","0.433220499999152",NA,"0.365073000000848","1",NA,"1","1",NA,"1","1",NA,"1"
"250023","img/neutralC/CFD-BM-251-013-N.jpg","img/neutralC/CFD-WM-249-239-N.jpg","img/neutralC/CFD-AF-240-206-N.jpg","1","1","1","1","1","0","0.365073000000848","0.433220499999152","0.507919800000309","1","1","1","1","1","1","1","1","1"
"250023","img/neutralC/CFD-AF-240-206-N.jpg","img/neutralC/CFD-BM-251-013-N.jpg","img/neutralC/CFD-BF-041-001-N.jpg","1","1","1","0","1","1","0.507919800000309","0.365073000000848","0.604240000000573","1","1","1","1","1","1","1","1","1"
"250023","img/neutralC/CFD-BF-041-001-N.jpg","img/neutralC/CFD-AF-240-206-N.jpg","img/neutralC/CFD-MM-317-061-N.jpg","1","1","1","1","0","1","0.604240000000573","0.507919800000309","0.48372930000005","1","1","1","1","1","1","1","1","1"
"250023","img/neutralC/CFD-MM-317-061-N.jpg","img/neutralC/CFD-BF-041-001-N.jpg","img/neutralC/CFD-LM-201-057-N.jpg","1","1","1","1","1","1","0.48372930000005","0.604240000000573","0.434814800000822","1","1","1","1","1","1","1","1","1"
"250023","img/neutralC/CFD-LM-201-057-N.jpg","img/neutralC/CFD-MM-317-061-N.jpg","img/neutralC/CFD-AM-247-165-N.jpg","1","1","1","1","1","1","0.434814800000822","0.48372930000005","0.497429300001386","1","1","1","1","1","1","1","1","1"
"250023","img/neutralC/CFD-AM-247-165-N.jpg","img/neutralC/CFD-LM-201-057-N.jpg","img/neutralC/CFD-MF-309-002-N.jpg","1","1","1","1","1","0","0.497429300001386","0.434814800000822","0.489406000000599","1","1","1","1","1","1","1","1","1"
"250023","img/neutralC/CFD-MF-309-002-N.jpg","img/neutralC/CFD-AM-247-165-N.jpg","img/neutralC/CFD-WM-215-041-N.jpg","1","1","1","0","1","0","0.489406000000599","0.497429300001386","0.581027899999754","1","1","1","1","1","1","1","1","1"
"250023","img/neutralC/CFD-WM-215-041-N.jpg","img/neutralC/CFD-MF-309-002-N.jpg","img/neutralC/CFD-WF-228-196-N.jpg","1","1","1","0","0","0","0.581027899999754","0.489406000000599","0.420922300001621","1","1","1","1","1","1","1","1","1"
"250023","img/neutralC/CFD-WF-228-196-N.jpg","img/neutralC/CFD-WM-215-041-N.jpg","img/neutralC/CFD-LM-244-068-N.jpg","1","1","1","0","0","1","0.420922300001621","0.581027899999754","0.453926399999546","1","1","1","1","1","1","1","1","1"
"250023","img/neutralC/CFD-LM-244-068-N.jpg","img/neutralC/CFD-WF-228-196-N.jpg","img/neutralC/CFD-LM-243-075-N.jpg","1","1","1","1","0","0","0.453926399999546","0.420922300001621","0.535900799999581","1","1","1","1","1","1","1","1","1"
"250023","img/neutralC/CFD-LM-243-075-N.jpg","img/neutralC/CFD-LM-244-068-N.jpg","img/neutralC/CFD-WM-006-002-N.jpg","1","1","1","0","1","0","0.535900799999581","0.453926399999546","0.35742829999981","1","1","1","1","1","1","1","1","1"
"250023","img/neutralC/CFD-WM-006-002-N.jpg","img/neutralC/CFD-LM-243-075-N.jpg","img/neutralC/CFD-WF-005-010-N.jpg","1","1","1","0","0","0","0.35742829999981","0.535900799999581","0.370956900000238","1","1","1","1","1","1","1","1","1"
"250023","img/neutralC/CFD-WF-005-010-N.jpg","img/neutralC/CFD-WM-006-002-N.jpg","img/neutralC/CFD-LM-214-165-N.jpg","1","1","1","0","0","1","0.370956900000238","0.35742829999981","0.706371500000387","1","1","1","1","1","1","1","1","1"
"250023","img/neutralC/CFD-LM-214-165-N.jpg","img/neutralC/CFD-WF-005-010-N.jpg","img/neutralC/CFD-LM-216-082-N.jpg","1","1","1","1","0","0","0.706371500000387","0.370956900000238","0.635835300001418","1","1","1","1","1","1","1","1","1"
"250023","img/neutralC/CFD-LM-216-082-N.jpg","img/neutralC/CFD-LM-214-165-N.jpg","img/neutralC/CFD-IF-642-295-N.jpg","1","1","1","0","1","1","0.635835300001418","0.706371500000387","0.465075399999478","1","1","1","1","1","1","1","1","1"
"250023","img/neutralC/CFD-IF-642-295-N.jpg","img/neutralC/CFD-LM-216-082-N.jpg","img/neutralC/CFD-BF-025-002-N.jpg","1","1","1","1","0","0","0.465075399999478","0.635835300001418","0.633693100000528","1","1","1","1","1","1","1","1","1"
"250023","img/neutralC/CFD-BF-025-002-N.jpg","img/neutralC/CFD-IF-642-295-N.jpg","img/neutralC/CFD-WM-012-001-N.jpg","1","1","1","0","1","1","0.633693100000528","0.465075399999478","0.526016300000265","1","1","1","1","1","1","1","1","1"
"250023","img/neutralC/CFD-WM-012-001-N.jpg","img/neutralC/CFD-BF-025-002-N.jpg","img/neutralC/CFD-IM-646-023-N.jpg","1","1","1","1","0","1","0.526016300000265","0.633693100000528","0.4001475999994","1","1","1","1","1","1","1","1","1"
"250023","img/neutralC/CFD-IM-646-023-N.jpg","img/neutralC/CFD-WM-012-001-N.jpg","img/neutralC/CFD-BF-212-315-N.jpg","1","1","1","1","1","1","0.4001475999994","0.526016300000265","0.420647200000531","1","1","1","1","1","1","1","1","1"
"250023","img/neutralC/CFD-BF-212-315-N.jpg","img/neutralC/CFD-IM-646-023-N.jpg","img/neutralC/CFD-WF-017-003-N.jpg","1","1","1","1","1","1","0.420647200000531","0.4001475999994","0.508944799999881","1","1","1","1","1","1","1","1","1"
"250023","img/neutralC/CFD-WF-017-003-N.jpg","img/neutralC/CFD-BF-212-315-N.jpg","img/neutralC/CFD-BF-228-212-N.jpg","1","1","1","1","1","0","0.508944799999881","0.420647200000531","0.546183200000087","1","1","1","1","1","1","1","1","1"
"250023","img/neutralC/CFD-BF-228-212-N.jpg","img/neutralC/CFD-WF-017-003-N.jpg","img/neutralC/CFD-BF-202-109-N.jpg","1","1","1","0","1","1","0.546183200000087","0.508944799999881","0.367995800001154","1","1","1","1","1","1","1","1","1"
"250023","img/neutralC/CFD-BF-202-109-N.jpg","img/neutralC/CFD-BF-228-212-N.jpg","img/neutralC/CFD-WM-019-003-N.jpg","1","1","1","1","0","1","0.367995800001154","0.546183200000087","0.330703200001153","1","1","1","1","1","1","1","1","1"
"250023","img/neutralC/CFD-WM-019-003-N.jpg","img/neutralC/CFD-BF-202-109-N.jpg","img/neutralC/CFD-MF-335-002-N.jpg","1","1","1","1","1","0","0.330703200001153","0.367995800001154","0.428736699999718","1","1","1","1","1","1","1","1","1"
"250023","img/neutralC/CFD-MF-335-002-N.jpg","img/neutralC/CFD-WM-019-003-N.jpg","img/neutralC/CFD-IM-648-337-N.jpg","1","1","1","0","1","0","0.428736699999718","0.330703200001153","0.397276499999862","1","1","1","1","1","1","1","1","1"
"250023","img/neutralC/CFD-IM-648-337-N.jpg","img/neutralC/CFD-MF-335-002-N.jpg","img/neutralC/CFD-BM-205-001-N.jpg","1","1","0","0","0","0","0.397276499999862","0.428736699999718","0.374003799999628","1","1","1","1","1","1","1","1","1"
"250023","img/neutralC/CFD-BM-205-001-N.jpg","img/neutralC/CFD-IM-648-337-N.jpg","img/neutralC/CFD-WF-240-083-N.jpg","0","1","1","0","0","0","0.374003799999628","0.397276499999862","0.523292099998798","1","1","1","1","1","1","1","1","1"
"250023","img/neutralC/CFD-WF-240-083-N.jpg","img/neutralC/CFD-BM-205-001-N.jpg","img/neutralC/CFD-WM-026-001-N.jpg","1","0","1","0","0","1","0.523292099998798","0.374003799999628","0.500179200000275","1","1","1","1","1","1","1","1","1"
"250023","img/neutralC/CFD-WM-026-001-N.jpg","img/neutralC/CFD-WF-240-083-N.jpg","img/neutralC/CFD-BM-248-128-N.jpg","1","1","1","1","0","0","0.500179200000275","0.523292099998798","0.510084700001244","1","1","1","1","1","1","1","1","1"
"250023","img/neutralC/CFD-BM-248-128-N.jpg","img/neutralC/CFD-WM-026-001-N.jpg","img/neutralC/CFD-WM-212-097-N.jpg","1","1","1","0","1","0","0.510084700001244","0.500179200000275","0.475315900001078","1","1","1","1","1","1","1","1","1"
"250023","img/neutralC/CFD-WM-212-097-N.jpg","img/neutralC/CFD-BM-248-128-N.jpg",NA,"1","1",NA,"0","0",NA,"0.475315900001078","0.510084700001244",NA,"1","1",NA,"1","1",NA,"1","1",NA
"250023","img/neutralC/CFD-WM-201-063-N.jpg",NA,"img/neutralC/CFD-WM-013-001-N.jpg","1",NA,"1","1",NA,"1","0.463335800001005",NA,"0.539274299999306","1",NA,"1","1",NA,"1","1",NA,"1"
"250023","img/neutralC/CFD-WM-013-001-N.jpg","img/neutralC/CFD-WM-201-063-N.jpg","img/neutralC/CFD-BM-023-029-N.jpg","1","1","1","1","1","1","0.539274299999306","0.463335800001005","0.509827399999267","1","1","1","1","1","1","1","1","1"
"250023","img/neutralC/CFD-BM-023-029-N.jpg","img/neutralC/CFD-WM-013-001-N.jpg","img/neutralC/CFD-WF-245-084-N.jpg","1","1","1","1","1","1","0.509827399999267","0.539274299999306","0.48705130000053","1","1","1","1","1","1","1","1","1"
"250023","img/neutralC/CFD-WF-245-084-N.jpg","img/neutralC/CFD-BM-023-029-N.jpg","img/neutralC/CFD-MF-318-022-N.jpg","1","1","1","1","1","1","0.48705130000053","0.509827399999267","0.521400300000096","1","1","1","1","1","1","1","1","1"
"250023","img/neutralC/CFD-MF-318-022-N.jpg","img/neutralC/CFD-WF-245-084-N.jpg","img/neutralC/CFD-IM-719-221-N.jpg","1","1","1","1","1","0","0.521400300000096","0.48705130000053","0.876717799999824","1","1","1","1","1","1","1","1","1"
"250023","img/neutralC/CFD-IM-719-221-N.jpg","img/neutralC/CFD-MF-318-022-N.jpg","img/neutralC/CFD-WM-255-219-N.jpg","1","1","1","0","1","0","0.876717799999824","0.521400300000096","0.403787299999749","1","1","1","1","1","1","1","1","1"
"250023","img/neutralC/CFD-WM-255-219-N.jpg","img/neutralC/CFD-IM-719-221-N.jpg","img/neutralC/CFD-WM-237-052-N.jpg","1","1","1","0","0","1","0.403787299999749","0.876717799999824","0.303249100001267","1","1","1","1","1","1","1","1","1"
"250023","img/neutralC/CFD-WM-237-052-N.jpg","img/neutralC/CFD-WM-255-219-N.jpg","img/neutralC/CFD-WM-009-002-N.jpg","1","1","1","1","0","0","0.303249100001267","0.403787299999749","0.497100799999316","1","1","1","1","1","1","1","1","1"
"250023","img/neutralC/CFD-WM-009-002-N.jpg","img/neutralC/CFD-WM-237-052-N.jpg","img/neutralC/CFD-BM-204-003-N.jpg","1","1","0","0","1","0","0.497100799999316","0.303249100001267","0.502523199998905","1","1","1","1","1","1","1","1","1"
"250023","img/neutralC/CFD-BM-204-003-N.jpg","img/neutralC/CFD-WM-009-002-N.jpg","img/neutralC/CFD-WF-226-095-N.jpg","0","1","1","0","0","1","0.502523199998905","0.497100799999316","0.590880600000673","1","1","1","1","1","1","1","1","1"
"250023","img/neutralC/CFD-WF-226-095-N.jpg","img/neutralC/CFD-BM-204-003-N.jpg","img/neutralC/CFD-WF-027-003-N.jpg","1","0","1","1","0","1","0.590880600000673","0.502523199998905","0.465372300001036","1","1","1","1","1","1","1","1","1"
"250023","img/neutralC/CFD-WF-027-003-N.jpg","img/neutralC/CFD-WF-226-095-N.jpg","img/neutralC/CFD-AF-221-147-N.jpg","1","1","1","1","1","0","0.465372300001036","0.590880600000673","0.617792900000495","1","1","1","1","1","1","1","1","1"
"250023","img/neutralC/CFD-AF-221-147-N.jpg","img/neutralC/CFD-WF-027-003-N.jpg","img/neutralC/CFD-BF-254-201-N.jpg","1","1","1","0","1","0","0.617792900000495","0.465372300001036","0.519605100000263","1","1","1","1","1","1","1","1","1"
"250023","img/neutralC/CFD-BF-254-201-N.jpg","img/neutralC/CFD-AF-221-147-N.jpg","img/neutralC/CFD-LF-215-157-N.jpg","1","1","1","0","0","0","0.519605100000263","0.617792900000495","0.521273599999404","1","1","1","1","1","1","1","1","1"
"250023","img/neutralC/CFD-LF-215-157-N.jpg","img/neutralC/CFD-BF-254-201-N.jpg","img/neutralC/CFD-WF-023-003-N.jpg","1","1","1","0","0","1","0.521273599999404","0.519605100000263","0.604330800000753","1","1","1","1","1","1","1","1","1"
"250023","img/neutralC/CFD-WF-023-003-N.jpg","img/neutralC/CFD-LF-215-157-N.jpg","img/neutralC/CFD-BM-200-046-N.jpg","1","1","1","1","0","0","0.604330800000753","0.521273599999404","0.751052499999787","1","1","1","1","1","1","1","1","1"
"250023","img/neutralC/CFD-BM-200-046-N.jpg","img/neutralC/CFD-WF-023-003-N.jpg","img/neutralC/CFD-LM-253-075-N.jpg","1","1","1","0","1","0","0.751052499999787","0.604330800000753","0.455789200001163","1","1","1","1","1","1","1","1","1"
"250023","img/neutralC/CFD-LM-253-075-N.jpg","img/neutralC/CFD-BM-200-046-N.jpg","img/neutralC/CFD-AM-244-222-N.jpg","1","1","1","0","0","0","0.455789200001163","0.751052499999787","0.603650900000503","1","1","1","1","1","1","1","1","1"
"250023","img/neutralC/CFD-AM-244-222-N.jpg","img/neutralC/CFD-LM-253-075-N.jpg","img/neutralC/CFD-IM-627-178-N.jpg","1","1","1","0","0","1","0.603650900000503","0.455789200001163","0.454520499999489","1","1","1","1","1","1","1","1","1"
"250023","img/neutralC/CFD-IM-627-178-N.jpg","img/neutralC/CFD-AM-244-222-N.jpg","img/neutralC/CFD-WF-018-017-N.jpg","1","1","1","1","0","1","0.454520499999489","0.603650900000503","0.421480099999826","1","1","1","1","1","1","1","1","1"
"250023","img/neutralC/CFD-WF-018-017-N.jpg","img/neutralC/CFD-IM-627-178-N.jpg","img/neutralC/CFD-AF-232-078-N.jpg","1","1","1","1","1","1","0.421480099999826","0.454520499999489","0.88600039999983","1","1","1","1","1","1","1","1","1"
"250023","img/neutralC/CFD-AF-232-078-N.jpg","img/neutralC/CFD-WF-018-017-N.jpg","img/neutralC/CFD-BF-218-207-N.jpg","1","1","1","1","1","1","0.88600039999983","0.421480099999826","0.44628620000185","1","1","1","1","1","1","1","1","1"
"250023","img/neutralC/CFD-BF-218-207-N.jpg","img/neutralC/CFD-AF-232-078-N.jpg","img/neutralC/CFD-WF-238-023-N.jpg","1","1","0","1","1","0","0.44628620000185","0.88600039999983","0.701345100000253","1","1","1","1","1","1","1","1","1"
"250023","img/neutralC/CFD-WF-238-023-N.jpg","img/neutralC/CFD-BF-218-207-N.jpg","img/neutralC/CFD-LF-211-003-N.jpg","0","1","1","0","1","0","0.701345100000253","0.44628620000185","0.637194499999168","1","1","1","1","1","1","1","1","1"
"250023","img/neutralC/CFD-LF-211-003-N.jpg","img/neutralC/CFD-WF-238-023-N.jpg","img/neutralC/CFD-IF-629-234-N.jpg","1","0","1","0","0","0","0.637194499999168","0.701345100000253","0.567497200001526","1","1","1","1","1","1","1","1","1"
"250023","img/neutralC/CFD-IF-629-234-N.jpg","img/neutralC/CFD-LF-211-003-N.jpg","img/neutralC/CFD-IM-700-009-N.jpg","1","1","1","0","0","1","0.567497200001526","0.637194499999168","0.535869299999831","1","1","1","1","1","1","1","1","1"
"250023","img/neutralC/CFD-IM-700-009-N.jpg","img/neutralC/CFD-IF-629-234-N.jpg","img/neutralC/CFD-MF-321-003-N.jpg","1","1","1","1","0","0","0.535869299999831","0.567497200001526","0.756067899999834","1","1","1","1","1","1","1","1","1"
"250023","img/neutralC/CFD-MF-321-003-N.jpg","img/neutralC/CFD-IM-700-009-N.jpg","img/neutralC/CFD-BF-018-039-N.jpg","1","1","1","0","1","1","0.756067899999834","0.535869299999831","0.49622890000137","1","1","1","1","1","1","1","1","1"
"250023","img/neutralC/CFD-BF-018-039-N.jpg","img/neutralC/CFD-MF-321-003-N.jpg","img/neutralC/CFD-MF-342-022-N.jpg","1","1","1","1","0","1","0.49622890000137","0.756067899999834","0.619795200000226","1","1","1","1","1","1","1","1","1"
"250023","img/neutralC/CFD-MF-342-022-N.jpg","img/neutralC/CFD-BF-018-039-N.jpg","img/neutralC/CFD-WM-221-091-N.jpg","1","1","0","1","1","0","0.619795200000226","0.49622890000137","0.478401700001996","1","1","1","1","1","1","1","1","1"
"250023","img/neutralC/CFD-WM-221-091-N.jpg","img/neutralC/CFD-MF-342-022-N.jpg","img/neutralC/CFD-MM-321-021-N.jpg","0","1","1","0","1","0","0.478401700001996","0.619795200000226","0.435032600000341","1","1","1","1","1","1","1","1","1"
"250023","img/neutralC/CFD-MM-321-021-N.jpg","img/neutralC/CFD-WM-221-091-N.jpg",NA,"1","0",NA,"0","0",NA,"0.435032600000341","0.478401700001996",NA,"1","1",NA,"1","1",NA,"1","1",NA
