"participant_id","face","surpAcc","memory_surp_responses","memory_surp_rt","keep_surp_memory_trial_based_on_rt","surp_block_num","exclude_block","number_of_surp_resp_items_used","num_blocks_excluded"
"250021","img/neutralC/CFD-BM-027-001-N.jpg","1","k","0.919981999963056",1,1,0,2,0
"250021","img/neutralC/CFD-BM-029-024-N.jpg","1","k","1.50940559996525",1,1,0,2,0
"250021","img/neutralC/CFD-AF-240-206-N.jpg","1","s","0.910953199956566",1,1,0,2,0
"250021","img/neutralC/CFD-WF-221-005-N.jpg","0","k","1.30269860004773",1,1,0,2,0
"250021","img/neutralC/CFD-AF-205-155-N.jpg","0","k","1.14646829996491",1,1,0,2,0
"250021","img/neutralC/CFD-WF-207-014-N.jpg","1","k","1.32907599996543",1,1,0,2,0
"250021","img/neutralC/CFD-WF-002-004-N.jpg","1","k","1.2997347000055",1,1,0,2,0
"250021","img/neutralC/CFD-WF-029-002-N.jpg","1","s","1.30388660001336",1,1,0,2,0
"250021","img/neutralC/CFD-LF-239-148-N.jpg","0","k","1.0748753999942",1,1,0,2,0
"250021","img/neutralC/CFD-WF-243-148-N.jpg","1","k","1.73771900002612",1,1,0,2,0
"250021","img/neutralC/CFD-LF-211-003-N.jpg","1","s","1.72200650000013",1,1,0,2,0
"250021","img/neutralC/CFD-BF-236-177-N.jpg","0","s","1.64694919995964",1,1,0,2,0
"250021","img/neutralC/CFD-IM-635-010-N.jpg","1","s","1.63454450003337",1,1,0,2,0
"250021","img/neutralC/CFD-BF-237-172-N.jpg","0","s","2.10810900002252",1,1,0,2,0
"250021","img/neutralC/CFD-AM-220-134-N.jpg","1","s","1.43062990001636",1,1,0,2,0
"250021","img/neutralC/CFD-WF-224-099-N.jpg","1","k","1.11485409998568",1,1,0,2,0
"250021","img/neutralC/CFD-IM-606-008-N.jpg","1","s","0.696881200012285",1,1,0,2,0
"250021","img/neutralC/CFD-WM-225-127-N.jpg","0","k","0.830497800023295",1,1,0,2,0
"250021","img/neutralC/CFD-LM-244-068-N.jpg","0","s","1.95998679997865",1,1,0,2,0
"250021","img/neutralC/CFD-IM-743-006-N.jpg","1","k","2.05573159997584",1,1,0,2,0
"250021","img/neutralC/CFD-BF-217-189-N.jpg","1","k","1.23437600000761",1,1,0,2,0
"250021","img/neutralC/CFD-AM-221-184-N.jpg","0","k","1.65020869998261",1,1,0,2,0
"250021","img/neutralC/CFD-MF-336-016-N.jpg","1","s","0.870552200009115",1,1,0,2,0
"250021","img/neutralC/CFD-MF-328-020-N.jpg","1","k","1.15644170000451",1,1,0,2,0
"250021","img/neutralC/CFD-BF-041-001-N.jpg","1","k","1.2105387999909",1,1,0,2,0
"250021","img/neutralC/CFD-BF-014-002-N.jpg","1","k","1.245771899994",1,1,0,2,0
"250021","img/neutralC/CFD-BF-202-109-N.jpg","0","k","3.0995728999842",1,1,0,2,0
"250021","img/neutralC/CFD-WM-021-001-N.jpg","1","s","2.33632770000258",1,1,0,2,0
"250021","img/neutralC/CFD-AF-254-167-N.jpg","1","k","1.26532920001773",1,1,0,2,0
"250021","img/neutralC/CFD-BF-201-080-N.jpg","1","s","1.13186910003424",1,1,0,2,0
"250021","img/neutralC/CFD-WF-005-010-N.jpg","0","s","1.46100429998478",1,1,0,2,0
"250021","img/neutralC/CFD-IM-684-008-N.jpg","1","k","1.19159579998814",1,1,0,2,0
"250021","img/neutralC/CFD-LF-203-066-N.jpg","1","s","1.36259219999192",1,1,0,2,0
"250021","img/neutralC/CFD-IF-642-295-N.jpg","0","k","2.07675990002463",1,1,0,2,0
"250021","img/neutralC/CFD-WM-221-091-N.jpg","1","s","1.01749119994929",1,1,0,2,0
"250021","img/neutralC/CFD-BF-207-004-N.jpg","0","k","1.75512779998826",1,1,0,2,0
"250021","img/neutralC/CFD-LF-242-121-N.jpg","0","s","1.53311519999988",1,1,0,2,0
"250021","img/neutralC/CFD-WF-245-084-N.jpg","0","s","1.5986957999994",1,1,0,2,0
"250021","img/neutralC/CFD-AM-236-090-N.jpg","0","k","1.76679460000014",1,1,0,2,0
"250021","img/neutralC/CFD-BM-010-003-N.jpg","0","k","2.48202160000801",1,1,0,2,0
"250021","img/neutralC/CFD-LM-252-076-N.jpg","1","s","1.53900330001488",1,1,0,2,0
"250021","img/neutralC/CFD-IM-638-250-1-N.jpg","0","k","1.28115160000743",1,1,0,2,0
"250021","img/neutralC/CFD-WF-228-196-N.jpg","1","k","1.46709400002146",1,1,0,2,0
"250021","img/neutralC/CFD-WF-027-003-N.jpg","0","s","1.22848990000784",1,1,0,2,0
"250021","img/neutralC/CFD-MF-340-026-N.jpg","1","k","3.18919030000689",1,1,0,2,0
"250021","img/neutralC/CFD-WM-249-239-N.jpg","0","s","1.19719410000835",1,1,0,2,0
"250021","img/neutralC/CFD-IF-625-225-N.jpg","1","s","2.11570769996615",1,1,0,2,0
"250021","img/neutralC/CFD-AF-233-190-N.jpg","1","s","1.45306500000879",1,1,0,2,0
"250021","img/neutralC/CFD-LF-214-090-N.jpg","1","k","1.95269740000367",1,2,0,2,0
"250021","img/neutralC/CFD-BM-018-001-N.jpg","1","k","1.43786150001688",1,2,0,2,0
"250021","img/neutralC/CFD-AF-229-160-N.jpg","1","s","1.21978699997999",1,2,0,2,0
"250021","img/neutralC/CFD-IM-696-001-N.jpg","1","k","1.1127990000532",1,2,0,2,0
"250021","img/neutralC/CFD-BF-020-002-N.jpg","0","k","1.04204299999401",1,2,0,2,0
"250021","img/neutralC/CFD-WM-006-002-N.jpg","0","k","1.07690369995544",1,2,0,2,0
"250021","img/neutralC/CFD-BF-028-001-N.jpg","0","s","0.653492300014477",1,2,0,2,0
"250021","img/neutralC/CFD-MF-318-022-N.jpg","1","s","2.60932769998908",1,2,0,2,0
"250021","img/neutralC/CFD-IM-703-182-N.jpg","1","k","0.8858303000452",1,2,0,2,0
"250021","img/neutralC/CFD-MF-309-002-N.jpg","1","s","0.840666099975351",1,2,0,2,0
"250021","img/neutralC/CFD-LF-222-147-N.jpg","1","k","2.7255883999751",1,2,0,2,0
"250021","img/neutralC/CFD-AF-221-147-N.jpg","1","k","2.33968029997777",1,2,0,2,0
"250021","img/neutralC/CFD-BF-010-001-N.jpg","1","k","1.08367639995413",1,2,0,2,0
"250021","img/neutralC/CFD-BF-002-001-N.jpg","1","s","2.38840009999694",1,2,0,2,0
"250021","img/neutralC/CFD-AM-230-150-N.jpg","0","k","1.96324209996965",1,2,0,2,0
"250021","img/neutralC/CFD-LM-219-295-N.jpg","1","s","2.41946890001418",1,2,0,2,0
"250021","img/neutralC/CFD-WM-024-015-N.jpg","0","k","1.24321399995824",1,2,0,2,0
"250021","img/neutralC/CFD-LM-218-183-N.jpg","1","s","2.06393519998528",1,2,0,2,0
"250021","img/neutralC/CFD-AF-237-223-N.jpg","0","s","3.46151069999905",1,2,0,2,0
"250021","img/neutralC/CFD-BM-247-240-N.jpg","1","k","1.04885780002223",1,2,0,2,0
"250021","img/neutralC/CFD-WF-209-052-N.jpg","0","s","1.62514599994756",1,2,0,2,0
"250021","img/neutralC/CFD-LM-238-129-N.jpg","0","s","1.39646560000256",1,2,0,2,0
"250021","img/neutralC/CFD-BF-039-031-N.jpg","1","s","1.59241460001795",1,2,0,2,0
"250021","img/neutralC/CFD-WF-006-002-N.jpg","0","k","2.39721960003953",1,2,0,2,0
"250021","img/neutralC/CFD-AM-245-111-N.jpg","1","s","1.85696840001037",1,2,0,2,0
"250021","img/neutralC/CFD-AM-235-241-N.jpg","0","k","1.23297369998181",1,2,0,2,0
"250021","img/neutralC/CFD-LM-226-175-N.jpg","0","k","1.2337520000292",1,2,0,2,0
"250021","img/neutralC/CFD-BM-001-014-N.jpg","0","k","1.55631399998674",1,2,0,2,0
"250021","img/neutralC/CFD-AF-215-70-N.jpg","0","s","1.97403869999107",1,2,0,2,0
"250021","img/neutralC/CFD-BM-250-170-N.jpg","1","k","1.53159400000004",1,2,0,2,0
"250021","img/neutralC/CFD-LM-243-075-N.jpg","0","s","2.6800637000124",1,2,0,2,0
"250021","img/neutralC/CFD-MF-335-002-N.jpg","1","k","1.61847869999474",1,2,0,2,0
"250021","img/neutralC/CFD-AM-247-165-N.jpg","1","s","1.67088130000047",1,2,0,2,0
"250021","img/neutralC/CFD-LM-200-045-N.jpg","1","s","2.27040460001444",1,2,0,2,0
"250021","img/neutralC/CFD-BF-212-315-N.jpg","0","k","1.40720049996162",1,2,0,2,0
"250021","img/neutralC/CFD-LF-212-066-N.jpg","0","k","1.27441700000782",1,2,0,2,0
"250021","img/neutralC/CFD-WF-238-023-N.jpg","1","s","1.44691509997938",1,2,0,2,0
"250021","img/neutralC/CFD-LF-208-127-N.jpg","0","s","1.07495949999429",1,2,0,2,0
"250021","img/neutralC/CFD-MF-301-024-N.jpg","1","k","1.38022390002152",1,2,0,2,0
"250021","img/neutralC/CFD-BF-226-119-N.jpg","0","s","0.43267080001533",1,2,0,2,0
"250021","img/neutralC/CFD-WF-235-121-N.jpg","1","k","0.984689499950036",1,2,0,2,0
"250021","img/neutralC/CFD-BF-232-187-N.jpg","0","s","1.63855500001227",1,2,0,2,0
"250021","img/neutralC/CFD-WF-226-095-N.jpg","0","s","1.57713220000733",1,2,0,2,0
"250021","img/neutralC/CFD-WM-253-119-N.jpg","0","k","0.817315599997528",1,2,0,2,0
"250021","img/neutralC/CFD-IM-675-015-N.jpg","1","s","0.800307099998463",1,2,0,2,0
"250021","img/neutralC/CFD-BM-013-002-N.jpg","1","k","1.48466189997271",1,2,0,2,0
"250021","img/neutralC/CFD-WM-018-002-N.jpg","1","k","2.69081050000386",1,2,0,2,0
"250021","img/neutralC/CFD-WF-007-001-N.jpg","1","s","1.13572650001151",1,2,0,2,0
"250021","img/neutralC/CFD-LF-236-221-N.jpg","1","k","1.22034709999571",1,3,0,2,0
"250021","img/neutralC/CFD-LF-218-072-N.jpg","1","s","1.73297750001075",1,3,0,2,0
"250021","img/neutralC/CFD-IF-629-234-N.jpg","0","k","2.37289880000753",1,3,0,2,0
"250021","img/neutralC/CFD-WM-237-052-N.jpg","0","s","1.17809289996512",1,3,0,2,0
"250021","img/neutralC/CFD-LF-230-203-N.jpg","0","s","1.60825850005494",1,3,0,2,0
"250021","img/neutralC/CFD-WF-222-092-N.jpg","0","k","2.06641979998676",1,3,0,2,0
"250021","img/neutralC/CFD-BF-006-017-N.jpg","1","s","1.04298069997458",1,3,0,2,0
"250021","img/neutralC/CFD-BM-225-154-N.jpg","0","s","1.55366460001096",1,3,0,2,0
"250021","img/neutralC/CFD-AF-206-079-N.jpg","1","s","2.07536120002624",1,3,0,2,0
"250021","img/neutralC/CFD-IM-637-007-N.jpg","1","s","1.16980319999857",1,3,0,2,0
"250021","img/neutralC/CFD-LM-253-075-N.jpg","0","k","1.75713829998858",1,3,0,2,0
"250021","img/neutralC/CFD-WF-241-210-N.jpg","0","s","1.53139509999892",1,3,0,2,0
"250021","img/neutralC/CFD-MF-343-001-N.jpg","0","k","1.65415179997217",1,3,0,2,0
"250021","img/neutralC/CFD-IF-620-218-N.jpg","1","s","3.91731180000352",1,3,0,2,0
"250021","img/neutralC/CFD-IM-646-023-N.jpg","1","k","0.749701799999457",1,3,0,2,0
"250021","img/neutralC/CFD-LM-215-247-N.jpg","0","k","1.1402315000305",1,3,0,2,0
"250021","img/neutralC/CFD-AF-202-122-N.jpg","0","k","1.33051439997507",1,3,0,2,0
"250021","img/neutralC/CFD-BF-042-026-N.jpg","0","k","1.39270590001252",1,3,0,2,0
"250021","img/neutralC/CFD-LF-210-220-N.jpg","0","s","1.02062820002902",1,3,0,2,0
"250021","img/neutralC/CFD-MF-337-026-N.jpg","1","k","1.13129360001767",1,3,0,2,0
"250021","img/neutralC/CFD-IM-697-015-N.jpg","1","k","1.36063260002993",1,3,0,2,0
"250021","img/neutralC/CFD-IM-702-101-N.jpg","1","k","1.09971929999301",1,3,0,2,0
"250021","img/neutralC/CFD-MF-302-027-N.jpg","0","s","1.80345480004326",1,3,0,2,0
"250021","img/neutralC/CFD-IM-604-014-N.jpg","1","k","1.64810049999505",1,3,0,2,0
"250021","img/neutralC/CFD-IF-676-017-N.jpg","0","s","1.65862760000164",1,3,0,2,0
"250021","img/neutralC/CFD-BM-241-235-N.jpg","0","k","2.28631539997878",1,3,0,2,0
"250021","img/neutralC/CFD-BF-222-240-N.jpg","1","k","1.13921760005178",1,3,0,2,0
"250021","img/neutralC/CFD-BF-253-202-N.jpg","0","s","1.16897869994864",1,3,0,2,0
"250021","img/neutralC/CFD-IM-616-214-N.jpg","1","s","1.25742809998337",1,3,0,2,0
"250021","img/neutralC/CFD-BM-019-002-N.jpg","1","k","1.52214479999384",1,3,0,2,0
"250021","img/neutralC/CFD-WF-018-017-N.jpg","1","s","1.46279530000174",1,3,0,2,0
"250021","img/neutralC/CFD-LF-238-154-N.jpg","1","s","1.32356380001875",1,3,0,2,0
"250021","img/neutralC/CFD-WM-002-009-N.jpg","1","k","1.15412520000245",1,3,0,2,0
"250021","img/neutralC/CFD-BM-243-218-N.jpg","1","s","2.04510749998735",1,3,0,2,0
"250021","img/neutralC/CFD-IM-719-221-N.jpg","0","k","0.955672400014009",1,3,0,2,0
"250021","img/neutralC/CFD-WM-041-021-N.jpg","1","s","1.96266329998616",1,3,0,2,0
"250021","img/neutralC/CFD-BM-215-155-N.jpg","1","k","1.66319009999279",1,3,0,2,0
"250021","img/neutralC/CFD-BM-021-021-N.jpg","1","s","1.83553119999124",1,3,0,2,0
"250021","img/neutralC/CFD-IM-615-167-N.jpg","1","k","1.11264319997281",1,3,0,2,0
"250021","img/neutralC/CFD-BF-214-308-N.jpg","1","k","1.10934590001125",1,3,0,2,0
"250021","img/neutralC/CFD-AM-244-222-N.jpg","0","s","2.11883719998877",1,3,0,2,0
"250021","img/neutralC/CFD-LF-250-169-N.jpg","1","s","1.38434370001778",1,3,0,2,0
"250021","img/neutralC/CFD-LM-233-171-N.jpg","1","k","1.91095799999312",1,3,0,2,0
"250021","img/neutralC/CFD-WF-223-133-N.jpg","0","k","1.3593913000077",1,3,0,2,0
"250021","img/neutralC/CFD-BF-254-201-N.jpg","1","k","1.69952349999221",1,3,0,2,0
"250021","img/neutralC/CFD-IF-608-390-N.jpg","1","k","1.791722199996",1,3,0,2,0
"250021","img/neutralC/CFD-LF-247-051-N.jpg","0","s","1.54919160000281",1,3,0,2,0
"250021","img/neutralC/CFD-LM-214-165-N.jpg","0","s","1.38787330000196",1,3,0,2,0
"250021","img/neutralC/CFD-BF-029-031-N.jpg","1","k","1.4461381000001",1,4,0,2,0
"250021","img/neutralC/CFD-WF-248-129-N.jpg","0","s","1.44569699995918",1,4,0,2,0
"250021","img/neutralC/CFD-MF-316-001-N.jpg","0","s","0.997304200020153",1,4,0,2,0
"250021","img/neutralC/CFD-IM-653-008-N.jpg","1","k","1.06371969997417",1,4,0,2,0
"250021","img/neutralC/CFD-AF-241-141-N.jpg","1","k","2.15745999995852",1,4,0,2,0
"250021","img/neutralC/CFD-MF-327-002-N.jpg","1","s","1.80161259998567",1,4,0,2,0
"250021","img/neutralC/CFD-IM-648-337-N.jpg","1","k","1.43616079998901",1,4,0,2,0
"250021","img/neutralC/CFD-MF-303-013-N.jpg","1","k","1.42690080002649",1,4,0,2,0
"250021","img/neutralC/CFD-AF-210-050-N.jpg","1","s","1.31523509998806",1,4,0,2,0
"250021","img/neutralC/CFD-IF-729-393-N.jpg","0","s","1.37493569997605",1,4,0,2,0
"250021","img/neutralC/CFD-AM-205-153-N.jpg","0","s","1.32620619999943",1,4,0,2,0
"250021","img/neutralC/CFD-WM-040-022-N.jpg","0","k","1.73284370003967",1,4,0,2,0
"250021","img/neutralC/CFD-WM-232-070-N.jpg","0","s","2.55733270000201",1,4,0,2,0
"250021","img/neutralC/CFD-WM-025-002-N.jpg","0","k","1.30251619999763",1,4,0,2,0
"250021","img/neutralC/CFD-BF-224-002-N.jpg","0","k","1.22276170004625",1,4,0,2,0
"250021","img/neutralC/CFD-WF-210-086-N.jpg","0","s","2.03995109995594",1,4,0,2,0
"250021","img/neutralC/CFD-BM-248-128-N.jpg","0","s","0.965262799989432",1,4,0,2,0
"250021","img/neutralC/CFD-IF-650-315-N.jpg","1","k","1.05922819999978",1,4,0,2,0
"250021","img/neutralC/CFD-LF-220-120-N.jpg","0","k","1.79459230002249",1,4,0,2,0
"250021","img/neutralC/CFD-BF-206-143-N.jpg","0","s","0.786884600005578",1,4,0,2,0
"250021","img/neutralC/CFD-WM-257-161-N.jpg","1","k","1.26664149999851",1,4,0,2,0
"250021","img/neutralC/CFD-IM-706-002-N.jpg","1","k","1.23713430005591",1,4,0,2,0
"250021","img/neutralC/CFD-AM-201-076-N.jpg","0","s","2.05951400002232",1,4,0,2,0
"250021","img/neutralC/CFD-IM-685-004-N.jpg","1","k","2.01421950000804",1,4,0,2,0
"250021","img/neutralC/CFD-BM-211-174-N.jpg","1","s","2.18060230003903",1,4,0,2,0
"250021","img/neutralC/CFD-LF-205-100-N.jpg","1","k","1.81118370004697",1,4,0,2,0
"250021","img/neutralC/CFD-MF-329-001-N.jpg","0","s","2.85072720004246",1,4,0,2,0
"250021","img/neutralC/CFD-WM-026-001-N.jpg","0","s","1.60900830000173",1,4,0,2,0
"250021","img/neutralC/CFD-BF-213-188-N.jpg","0","k","1.25569640001049",1,4,0,2,0
"250021","img/neutralC/CFD-MF-357-002-N.jpg","0","k","1.19541709998157",1,4,0,2,0
"250021","img/neutralC/CFD-IF-742-103-N.jpg","0","s","1.15640100004384",1,4,0,2,0
"250021","img/neutralC/CFD-WF-009-001-N.jpg","0","k","1.17233780003153",1,4,0,2,0
"250021","img/neutralC/CFD-BM-033-003-N.jpg","0","s","0.897384300013073",1,4,0,2,0
"250021","img/neutralC/CFD-WF-012-002-N.jpg","0","k","1.13235839997651",1,4,0,2,0
"250021","img/neutralC/CFD-BM-200-046-N.jpg","1","k","1.32307100004982",1,4,0,2,0
"250021","img/neutralC/CFD-AM-249-163-N.jpg","1","s","1.05538849998266",1,4,0,2,0
"250021","img/neutralC/CFD-IM-727-195-N.jpg","0","s","1.00558170001023",1,4,0,2,0
"250021","img/neutralC/CFD-BM-204-003-N.jpg","1","k","1.80625550000696",1,4,0,2,0
"250021","img/neutralC/CFD-MF-312-002-N.jpg","1","s","1.7679330999963",1,4,0,2,0
"250021","img/neutralC/CFD-WF-214-122-N.jpg","1","s","1.82120780000696",1,4,0,2,0
"250021","img/neutralC/CFD-BM-212-117-N.jpg","1","k","1.31582560000243",1,4,0,2,0
"250021","img/neutralC/CFD-IF-732-260-N.jpg","0","s","1.75506830000086",1,4,0,2,0
"250021","img/neutralC/CFD-IM-709-103-N.jpg","0","s","1.63862650003284",1,4,0,2,0
"250021","img/neutralC/CFD-IM-721-341-N.jpg","1","k","1.19066130003193",1,4,0,2,0
"250021","img/neutralC/CFD-AM-243-212-N.jpg","1","k","2.36822760000359",1,4,0,2,0
"250021","img/neutralC/CFD-LF-226-174-N.jpg","1","k","1.09153249999508",1,4,0,2,0
"250021","img/neutralC/CFD-MF-342-022-N.jpg","1","s","3.4256674000062",1,4,0,2,0
"250021","img/neutralC/CFD-LM-225-130-N.jpg","0","s","0.80172979994677",1,4,0,2,0
"250021","img/neutralC/CFD-LF-206-078-N.jpg","0","k","7.91575839999132",1,5,0,2,0
"250021","img/neutralC/CFD-AM-225-102-N.jpg","1","k","1.96242270001676",1,5,0,2,0
"250021","img/neutralC/CFD-BM-251-013-N.jpg","0","s","1.46130249998532",1,5,0,2,0
"250021","img/neutralC/CFD-BF-255-140-N.jpg","0","k","1.36974420002662",1,5,0,2,0
"250021","img/neutralC/CFD-BF-208-266-N.jpg","1","s","0.964050300011877",1,5,0,2,0
"250021","img/neutralC/CFD-BF-004-014-N.jpg","1","k","1.17170880001504",1,5,0,2,0
"250021","img/neutralC/CFD-AF-227-207-N.jpg","1","s","1.25273209996521",1,5,0,2,0
"250021","img/neutralC/CFD-WF-036-023-N.jpg","0","s","1.08177270001033",1,5,0,2,0
"250021","img/neutralC/CFD-AF-244-168-N.jpg","1","k","0.997535999980755",1,5,0,2,0
"250021","img/neutralC/CFD-IM-639-263-N.jpg","0","k","0.914883900026325",1,5,0,2,0
"250021","img/neutralC/CFD-LM-216-082-N.jpg","0","s","1.12583639996592",1,5,0,2,0
"250021","img/neutralC/CFD-WM-213-076-N.jpg","0","s","1.14670370001113",1,5,0,2,0
"250021","img/neutralC/CFD-WM-202-107-N.jpg","0","s","1.25998280005297",1,5,0,2,0
"250021","img/neutralC/CFD-BM-039-029-N.jpg","0","k","0.977208500029519",1,5,0,2,0
"250021","img/neutralC/CFD-BF-038-037-N.jpg","0","k","1.07678310002666",1,5,0,2,0
"250021","img/neutralC/CFD-WM-038-003-N.jpg","1","s","0.99081709998427",1,5,0,2,0
"250021","img/neutralC/CFD-BF-238-190-N.jpg","1","k","1.11353139998391",1,5,0,2,0
"250021","img/neutralC/CFD-AF-232-078-N.jpg","1","s","1.3447729999898",1,5,0,2,0
"250021","img/neutralC/CFD-WM-014-002-N.jpg","0","k","0.992282899969723",1,5,0,2,0
"250021","img/neutralC/CFD-AM-212-050-N.jpg","1","s","1.35515720001422",1,5,0,2,0
"250021","img/neutralC/CFD-WM-258-125-N.jpg","0","s","1.43808609998086",1,5,0,2,0
"250021","img/neutralC/CFD-WF-026-002-N.jpg","0","k","1.91032249998534",1,5,0,2,0
"250021","img/neutralC/CFD-LF-255-088-N.jpg","1","k","3.47593040001811",1,5,0,2,0
"250021","img/neutralC/CFD-WM-255-219-N.jpg","0","k","1.50390480004717",1,5,0,2,0
"250021","img/neutralC/CFD-BF-018-039-N.jpg","1","k","1.03240800002823",1,5,0,2,0
"250021","img/neutralC/CFD-IM-738-191-N.jpg","0","k","1.26134300004924",1,5,0,2,0
"250021","img/neutralC/CFD-LM-204-001-N.jpg","0","k","1.18578110000817",1,5,0,2,0
"250021","img/neutralC/CFD-WM-254-152-N.jpg","1","s","1.9100079999771",1,5,0,2,0
"250021","img/neutralC/CFD-BF-025-002-N.jpg","1","k","2.80650930001866",1,5,0,2,0
"250021","img/neutralC/CFD-AF-213-126-N.jpg","0","s","2.7513220999972",1,5,0,2,0
"250021","img/neutralC/CFD-IM-659-359-N.jpg","1","k","1.94895810005255",1,5,0,2,0
"250021","img/neutralC/CFD-IF-677-452-1-N.jpg","0","k","2.62826389999827",1,5,0,2,0
"250021","img/neutralC/CFD-MM-321-021-N.jpg","0","k","1.68093099998077",1,5,0,2,0
"250021","img/neutralC/CFD-BM-005-003-N.jpg","0","s","1.37491219997173",1,5,0,2,0
"250021","img/neutralC/CFD-BF-027-002-N.jpg","1","k","1.81130509998184",1,5,0,2,0
"250021","img/neutralC/CFD-WF-008-002-N.jpg","1","s","2.14678539999295",1,5,0,2,0
"250021","img/neutralC/CFD-AM-242-176-N.jpg","1","k","1.05831429996761",1,5,0,2,0
"250021","img/neutralC/CFD-BF-045-003-N.jpg","0","k","1.84617259999504",1,5,0,2,0
"250021","img/neutralC/CFD-AM-251-124-N.jpg","0","k","1.05407539999578",1,5,0,2,0
"250021","img/neutralC/CFD-IM-701-312-N.jpg","0","s","1.27996299997903",1,5,0,2,0
"250021","img/neutralC/CFD-LF-241-188-N.jpg","1","k","2.72701620002044",1,5,0,2,0
"250021","img/neutralC/CFD-WM-209-038-N.jpg","1","k","1.25684619997628",1,5,0,2,0
"250021","img/neutralC/CFD-BF-033-028-N.jpg","1","s","2.08477600000333",1,5,0,2,0
"250021","img/neutralC/CFD-IM-680-369-N.jpg","1","s","0.677354399987962",1,5,0,2,0
"250021","img/neutralC/CFD-BF-003-003-N.jpg","1","k","1.11445009999443",1,5,0,2,0
"250021","img/neutralC/CFD-LM-217-162-N.jpg","1","k","5.83849029999692",1,5,0,2,0
"250021","img/neutralC/CFD-IF-673-389-N.jpg","1","k","0.880416400032118",1,5,0,2,0
"250021","img/neutralC/CFD-MM-316-156-N.jpg","1","s","1.12184679997154",1,5,0,2,0
"250021","img/neutralC/CFD-WM-219-008-N.jpg","0","k","4.04447969998",1,6,0,2,0
"250021","img/neutralC/CFD-WM-242-011-N.jpg","1","k","3.56866579997586",1,6,0,2,0
"250021","img/neutralC/CFD-BM-030-003-N.jpg","0","s","2.08340339997085",1,6,0,2,0
"250021","img/neutralC/CFD-IM-651-308-N.jpg","1","s","1.15253329998814",1,6,0,2,0
"250021","img/neutralC/CFD-WM-009-002-N.jpg","0","k","1.03359719994478",1,6,0,2,0
"250021","img/neutralC/CFD-WM-019-003-N.jpg","0","s","0.797971100022551",1,6,0,2,0
"250021","img/neutralC/CFD-WF-033-002-N.jpg","0","s","1.58006649999879",1,6,0,2,0
"250021","img/neutralC/CFD-WF-200-099-N.jpg","0","k","1.67507170001045",1,6,0,2,0
"250021","img/neutralC/CFD-MM-319-052-N.jpg","0","k","1.16583050001645",1,6,0,2,0
"250021","img/neutralC/CFD-IM-667-369-N.jpg","1","s","0.94119340000907",1,6,0,2,0
"250021","img/neutralC/CFD-IM-664-651-N.jpg","1","k","0.813287099997979",1,6,0,2,0
"250021","img/neutralC/CFD-WF-208-068-N.jpg","1","k","0.962853500037454",1,6,0,2,0
"250021","img/neutralC/CFD-BM-003-003-N.jpg","1","s","1.08120090002194",1,6,0,2,0
"250021","img/neutralC/CFD-IF-718-001-N.jpg","0","k","0.886342299985699",1,6,0,2,0
"250021","img/neutralC/CFD-WM-228-065-N.jpg","0","k","2.08031600003596",1,6,0,2,0
"250021","img/neutralC/CFD-AM-211-052-N.jpg","0","s","0.93073279998498",1,6,0,2,0
"250021","img/neutralC/CFD-BF-218-207-N.jpg","1","s","1.29712359997211",1,6,0,2,0
"250021","img/neutralC/CFD-BF-051-035-N.jpg","1","k","0.911045200016815",1,6,0,2,0
"250021","img/neutralC/CFD-IF-710-016-N.jpg","0","k","1.02896490000421",1,6,0,2,0
"250021","img/neutralC/CFD-WF-023-003-N.jpg","1","s","0.705481300014071",1,6,0,2,0
"250021","img/neutralC/CFD-BM-217-082-N.jpg","1","k","1.05539479997242",1,6,0,2,0
"250021","img/neutralC/CFD-MF-321-003-N.jpg","1","k","1.37088530004257",1,6,0,2,0
"250021","img/neutralC/CFD-IM-669-111-N.jpg","1","s","2.92403519997606",1,6,0,2,0
"250021","img/neutralC/CFD-MF-313-002-N.jpg","0","s","1.21897909999825",1,6,0,2,0
"250021","img/neutralC/CFD-BF-044-034-N.jpg","0","k","2.01645249995636",1,6,0,2,0
"250021","img/neutralC/CFD-IF-672-305-N.jpg","1","k","1.63321920001181",1,6,0,2,0
"250021","img/neutralC/CFD-AF-250-200-N.jpg","1","k","5.32641660002992",1,6,0,2,0
"250021","img/neutralC/CFD-WM-248-036-N.jpg","1","s","1.72716920002131",1,6,0,2,0
"250021","img/neutralC/CFD-AF-239-171-N.jpg","0","s","1.75738700001966",1,6,0,2,0
"250021","img/neutralC/CFD-BM-026-002-N.jpg","0","k","2.39768190000905",1,6,0,2,0
"250021","img/neutralC/CFD-BM-207-024-N.jpg","0","k","2.24920999997994",1,6,0,2,0
"250021","img/neutralC/CFD-IM-627-178-N.jpg","1","s","2.52118290000362",1,6,0,2,0
"250021","img/neutralC/CFD-IM-689-263-N.jpg","1","k","3.60783719999017",1,6,0,2,0
"250021","img/neutralC/CFD-LM-237-264-N.jpg","1","s","2.39898200001335",1,6,0,2,0
"250021","img/neutralC/CFD-IF-634-382-N.jpg","0","k","2.00754809996579",1,6,0,2,0
"250021","img/neutralC/CFD-LF-224-176-N.jpg","0","s","1.44826899998588",1,6,0,2,0
"250021","img/neutralC/CFD-WM-017-002-N.jpg","1","s","1.47836770000868",1,6,0,2,0
"250021","img/neutralC/CFD-BM-023-029-N.jpg","1","k","1.22830830002204",1,6,0,2,0
"250021","img/neutralC/CFD-MM-306-010-N.jpg","0","k","1.29677559999982",1,6,0,2,0
"250021","img/neutralC/CFD-BM-015-015-N.jpg","0","k","1.27432949998183",1,6,0,2,0
"250021","img/neutralC/CFD-IF-693-172-N.jpg","1","s","1.08542120002676",1,6,0,2,0
"250021","img/neutralC/CFD-WF-240-083-N.jpg","0","s","1.14949670003261",1,6,0,2,0
"250021","img/neutralC/CFD-LM-241-125-N.jpg","1","k","1.11612520000199",1,6,0,2,0
"250021","img/neutralC/CFD-LM-213-061-N.jpg","1","s","1.341908900009",1,6,0,2,0
"250021","img/neutralC/CFD-BF-043-003-N.jpg","0","k","1.52079620002769",1,6,0,2,0
"250021","img/neutralC/CFD-BM-036-003-N.jpg","0","s","1.76989429997047",1,6,0,2,0
"250021","img/neutralC/CFD-IF-665-015-N.jpg","1","k","1.39578989997972",1,6,0,2,0
"250021","img/neutralC/CFD-WM-015-002-N.jpg","1","k","1.20351900003152",1,6,0,2,0
"250021","img/neutralC/CFD-WF-244-163-N.jpg","1","k","1.60435539996251",1,7,0,2,0
"250021","img/neutralC/CFD-WF-233-112-N.jpg","0","k","1.19268520001788",1,7,0,2,0
"250021","img/neutralC/CFD-IM-674-281-N.jpg","1","k","1.58597539999755",1,7,0,2,0
"250021","img/neutralC/CFD-IM-671-601-N.jpg","1","k","2.1971223000437",1,7,0,2,0
"250021","img/neutralC/CFD-IM-700-009-N.jpg","0","k","1.56841119995806",1,7,0,2,0
"250021","img/neutralC/CFD-IF-660-464-N.jpg","1","k","2.29909260000568",1,7,0,2,0
"250021","img/neutralC/CFD-IM-632-097-N.jpg","0","s","1.65403309999965",1,7,0,2,0
"250021","img/neutralC/CFD-BF-205-141-N.jpg","1","k","1.60467129998142",1,7,0,2,0
"250021","img/neutralC/CFD-LM-247-095-N.jpg","0","s","1.21078229998238",1,7,0,2,0
"250021","img/neutralC/CFD-BM-009-002-N.jpg","1","s","2.08126950002043",1,7,0,2,0
"250021","img/neutralC/CFD-BM-020-001-N.jpg","0","k","1.88513909996254",1,7,0,2,0
"250021","img/neutralC/CFD-BM-004-002-N.jpg","1","s","1.45945289998781",1,7,0,2,0
"250021","img/neutralC/CFD-WM-033-025-N.jpg","1","k","0.667546499986202",1,7,0,2,0
"250021","img/neutralC/CFD-BF-012-001-N.jpg","0","s","1.71432789997198",1,7,0,2,0
"250021","img/neutralC/CFD-WM-034-030-N.jpg","0","k","1.01490489998832",1,7,0,2,0
"250021","img/neutralC/CFD-WF-213-031-N.jpg","0","k","1.33419399999548",1,7,0,2,0
"250021","img/neutralC/CFD-MM-304-002-N.jpg","0","k","1.03638230002252",1,7,0,2,0
"250021","img/neutralC/CFD-WM-012-001-N.jpg","0","s","1.83705719996942",1,7,0,2,0
"250021","img/neutralC/CFD-AF-253-130-N.jpg","1","k","1.51845729997149",1,7,0,2,0
"250021","img/neutralC/CFD-MF-307-002-N.jpg","1","s","3.59795239998493",1,7,0,2,0
"250021","img/neutralC/CFD-WF-234-086-N.jpg","0","k","1.00248149997788",1,7,0,2,0
"250021","img/neutralC/CFD-WM-004-010-N.jpg","1","s","1.31303370004753",1,7,0,2,0
"250021","img/neutralC/CFD-WM-215-041-N.jpg","1","s","1.24781079997774",1,7,0,2,0
"250021","img/neutralC/CFD-IM-617-174-N.jpg","0","k","2.0643693000311",1,7,0,2,0
"250021","img/neutralC/CFD-IM-707-105-N.jpg","1","s","0.997430999996141",1,7,0,2,0
"250021","img/neutralC/CFD-IM-657-308-N.jpg","0","k","1.58312440000009",1,7,0,2,0
"250021","img/neutralC/CFD-WM-227-099-N.jpg","0","s","1.15289470000425",1,7,0,2,0
"250021","img/neutralC/CFD-BM-239-136-N.jpg","1","s","1.35137059999397",1,7,0,2,0
"250021","img/neutralC/CFD-AM-233-236-N.jpg","0","k","1.46765460004099",1,7,0,2,0
"250021","img/neutralC/CFD-MF-305-014-N.jpg","1","k","1.09466439997777",1,7,0,2,0
"250021","img/neutralC/CFD-WM-023-001-N.jpg","0","k","1.2040202000062",1,7,0,2,0
"250021","img/neutralC/CFD-BM-227-191-N.jpg","0","k","1.70979960000841",1,7,0,2,0
"250021","img/neutralC/CFD-LF-245-166-N.jpg","0","s","2.06147060001967",1,7,0,2,0
"250021","img/neutralC/CFD-BM-238-242-N.jpg","0","s","1.82521929999348",1,7,0,2,0
"250021","img/neutralC/CFD-WM-028-003-N.jpg","0","k","1.57316510000965",1,7,0,2,0
"250021","img/neutralC/CFD-WM-020-001-N.jpg","1","s","1.0697370999842",1,7,0,2,0
"250021","img/neutralC/CFD-BM-213-134-N.jpg","0","k","2.50256979995174",1,7,0,2,0
"250021","img/neutralC/CFD-WF-001-003-N.jpg","1","s","1.25255479995394",1,7,0,2,0
"250021","img/neutralC/CFD-WF-030-002-N.jpg","0","s","1.27784739999333",1,7,0,2,0
"250021","img/neutralC/CFD-LF-225-164-N.jpg","1","k","1.20830999995815",1,7,0,2,0
"250021","img/neutralC/CFD-IF-744-114-N.jpg","0","k","1.33713170001283",1,7,0,2,0
"250021","img/neutralC/CFD-WM-212-097-N.jpg","0","k","1.05135200003861",1,7,0,2,0
"250021","img/neutralC/CFD-MF-300-002-N.jpg","0","k","1.19640940002864",1,7,0,2,0
"250021","img/neutralC/CFD-AF-246-242-N.jpg","0","s","1.62323809997179",1,7,0,2,0
"250021","img/neutralC/CFD-WF-250-167-N.jpg","0","k","0.858600000035949",1,7,0,2,0
"250021","img/neutralC/CFD-BM-253-004-N.jpg","0","s","1.09942919999594",1,7,0,2,0
"250021","img/neutralC/CFD-AM-219-101-N.jpg","1","k","0.862830099998973",1,7,0,2,0
"250021","img/neutralC/CFD-LF-204-133-N.jpg","0","k","1.09288259997265",1,7,0,2,0
"250021","img/neutralC/CFD-BF-247-179-N.jpg","1","s","0.735819199995603",1,8,0,2,0
"250021","img/neutralC/CFD-WM-201-063-N.jpg","0","k","0.810922399978153",1,8,0,2,0
"250021","img/neutralC/CFD-BF-244-231-N.jpg","0","s","1.31059900001856",1,8,0,2,0
"250021","img/neutralC/CFD-IM-726-248-N.jpg","1","k","1.17253589996835",1,8,0,2,0
"250021","img/neutralC/CFD-BF-023-010-N.jpg","1","k","1.16633639996871",1,8,0,2,0
"250021","img/neutralC/CFD-BF-204-189-N.jpg","1","s","1.15572330000577",1,8,0,2,0
"250021","img/neutralC/CFD-WF-022-017-N.jpg","0","k","1.57408269995358",1,8,0,2,0
"250021","img/neutralC/CFD-MF-333-012-N.jpg","1","s","1.73185250000097",1,8,0,2,0
"250021","img/neutralC/CFD-BM-205-001-N.jpg","1","s","1.81626819999656",1,8,0,2,0
"250021","img/neutralC/CFD-WF-217-085-N.jpg","1","s","0.900567499978933",1,8,0,2,0
"250021","img/neutralC/CFD-LF-216-121-N.jpg","1","s","1.65507520001847",1,8,0,2,0
"250021","img/neutralC/CFD-BF-228-212-N.jpg","1","s","0.891302199976053",1,8,0,2,0
"250021","img/neutralC/CFD-WF-017-003-N.jpg","0","k","0.810304499987978",1,8,0,2,0
"250021","img/neutralC/CFD-IF-626-375-N.jpg","0","s","1.91595980001148",1,8,0,2,0
"250021","img/neutralC/CFD-BM-041-035-N.jpg","0","k","1.00553989998298",1,8,0,2,0
"250021","img/neutralC/CFD-IF-619-197-N.jpg","1","k","1.49475860001985",1,8,0,2,0
"250021","img/neutralC/CFD-WM-218-074-N.jpg","0","s","2.18111990002217",1,8,0,2,0
"250021","img/neutralC/CFD-WM-235-147-N.jpg","0","k","1.56022310000844",1,8,0,2,0
"250021","img/neutralC/CFD-IM-678-482-N.jpg","0","k","1.35832450003363",1,8,0,2,0
"250021","img/neutralC/CFD-BF-011-002-N.jpg","0","s","1.34031030000187",1,8,0,2,0
"250021","img/neutralC/CFD-AF-231-357-N.jpg","1","k","2.33877169998595",1,8,0,2,0
"250021","img/neutralC/CFD-LF-215-157-N.jpg","1","s","1.54651999997441",1,8,0,2,0
"250021","img/neutralC/CFD-BF-235-168-N.jpg","1","s","3.72024270001566",1,8,0,2,0
"250021","img/neutralC/CFD-BF-040-003-N.jpg","0","k","2.25724120001541",1,8,0,2,0
"250021","img/neutralC/CFD-BF-229-179-N.jpg","0","s","2.44274950004183",1,8,0,2,0
"250021","img/neutralC/CFD-BM-028-002-N.jpg","1","k","1.21783740003593",1,8,0,2,0
"250021","img/neutralC/CFD-IM-686-097-N.jpg","0","k","1.72433180001099",1,8,0,2,0
"250021","img/neutralC/CFD-LM-240-013-N.jpg","0","s","1.69782670005225",1,8,0,2,0
"250021","img/neutralC/CFD-WM-011-002-N.jpg","1","k","1.59105170000112",1,8,0,2,0
"250021","img/neutralC/CFD-BM-231-155-N.jpg","0","k","1.75433719996363",1,8,0,2,0
"250021","img/neutralC/CFD-BM-043-071-N.jpg","0","s","1.16031860001385",1,8,0,2,0
"250021","img/neutralC/CFD-IM-645-001-N.jpg","0","s","1.48315929999808",1,8,0,2,0
"250021","img/neutralC/CFD-AM-215-120-N.jpg","0","k","1.85557919996791",1,8,0,2,0
"250021","img/neutralC/CFD-MM-324-069-N.jpg","1","s","2.50500340003055",1,8,0,2,0
"250021","img/neutralC/CFD-WF-212-050-N.jpg","1","s","1.70352570002433",1,8,0,2,0
"250021","img/neutralC/CFD-LM-228-188-N.jpg","1","k","2.89876980002737",1,8,0,2,0
"250021","img/neutralC/CFD-AF-234-208-N.jpg","1","s","1.48403980000876",1,8,0,2,0
"250021","img/neutralC/CFD-MM-317-061-N.jpg","1","k","1.73445799999172",1,8,0,2,0
"250021","img/neutralC/CFD-IF-636-011-N.jpg","0","s","1.52070140000433",1,8,0,2,0
"250021","img/neutralC/CFD-AM-217-085-N.jpg","0","k","1.64664569997694",1,8,0,2,0
"250021","img/neutralC/CFD-MF-359-019-N.jpg","1","s","2.68938170000911",1,8,0,2,0
"250021","img/neutralC/CFD-BF-036-027-N.jpg","1","s","1.47162089997437",1,8,0,2,0
"250021","img/neutralC/CFD-WM-013-001-N.jpg","1","k","1.4279807000421",1,8,0,2,0
"250021","img/neutralC/CFD-IM-728-041-N.jpg","0","s","0.865295699972194",1,8,0,2,0
"250021","img/neutralC/CFD-IF-623-129-N.jpg","1","s","1.35979920002865",1,8,0,2,0
"250021","img/neutralC/CFD-LF-201-035-N.jpg","0","k","1.31190239998978",1,8,0,2,0
"250021","img/neutralC/CFD-MF-352-054-N.jpg","1","k","1.16510530002415",1,8,0,2,0
"250021","img/neutralC/CFD-LM-201-057-N.jpg","1","s","1.45708010002272",1,8,0,2,0
