"participant_id","current_trial_face","pre_trial_face","post_trial_face","current_trial_accuracy","pre_trial_accuracy","post_trial_accuracy","current_trial_congruency","pre_trial_congruency","post_trial_congruency","current_trial_rt","pre_trial_rt","post_trial_rt","current_trial_responded","pre_trial_responded","post_trial_responded","current_trial_legitResponse","pre_trial_legitResponse","post_trial_legitResponse","current_trial_resp_nums","pre_trial_resp_nums","post_trial_resp_nums"
"250018","img/neutralC/CFD-LF-212-066-N.jpg",NA,"img/neutralC/CFD-WM-025-002-N.jpg","1",NA,"1","1",NA,"0","0.558059000002686",NA,"0.542006700008642","1",NA,"1","1",NA,"1","2",NA,"1"
"250018","img/neutralC/CFD-WM-025-002-N.jpg","img/neutralC/CFD-LF-212-066-N.jpg","img/neutralC/CFD-AM-205-153-N.jpg","1","1","1","0","1","1","0.542006700008642","0.558059000002686","0.420964000019012","1","1","1","1","1","1","1","2","1"
"250018","img/neutralC/CFD-AM-205-153-N.jpg","img/neutralC/CFD-WM-025-002-N.jpg","img/neutralC/CFD-LM-240-013-N.jpg","1","1","1","1","0","1","0.420964000019012","0.542006700008642","0.337884799984749","1","1","1","1","1","1","1","1","1"
"250018","img/neutralC/CFD-LM-240-013-N.jpg","img/neutralC/CFD-AM-205-153-N.jpg","img/neutralC/CFD-WF-207-014-N.jpg","1","1","1","1","1","1","0.337884799984749","0.420964000019012","0.358954200026346","1","1","1","1","1","1","1","1","1"
"250018","img/neutralC/CFD-WF-207-014-N.jpg","img/neutralC/CFD-LM-240-013-N.jpg","img/neutralC/CFD-BF-012-001-N.jpg","1","1","1","1","1","0","0.358954200026346","0.337884799984749","0.324742600001628","1","1","1","1","1","1","1","1","1"
"250018","img/neutralC/CFD-BF-012-001-N.jpg","img/neutralC/CFD-WF-207-014-N.jpg","img/neutralC/CFD-BM-021-021-N.jpg","1","1","1","0","1","1","0.324742600001628","0.358954200026346","0.37478180002654","1","1","1","1","1","1","1","1","1"
"250018","img/neutralC/CFD-BM-021-021-N.jpg","img/neutralC/CFD-BF-012-001-N.jpg","img/neutralC/CFD-IM-615-167-N.jpg","1","1","1","1","0","0","0.37478180002654","0.324742600001628","0.452463399997214","1","1","1","1","1","1","1","1","1"
"250018","img/neutralC/CFD-IM-615-167-N.jpg","img/neutralC/CFD-BM-021-021-N.jpg","img/neutralC/CFD-IM-697-015-N.jpg","1","1","1","0","1","1","0.452463399997214","0.37478180002654","0.299430500017479","1","1","1","1","1","1","1","1","1"
"250018","img/neutralC/CFD-IM-697-015-N.jpg","img/neutralC/CFD-IM-615-167-N.jpg","img/neutralC/CFD-IF-676-017-N.jpg","1","1","1","1","0","1","0.299430500017479","0.452463399997214","0.35596610000357","1","1","1","1","1","1","1","1","1"
"250018","img/neutralC/CFD-IF-676-017-N.jpg","img/neutralC/CFD-IM-697-015-N.jpg","img/neutralC/CFD-BM-009-002-N.jpg","1","1","1","1","1","1","0.35596610000357","0.299430500017479","0.390698900009738","1","1","1","1","1","1","1","1","1"
"250018","img/neutralC/CFD-BM-009-002-N.jpg","img/neutralC/CFD-IF-676-017-N.jpg","img/neutralC/CFD-BM-227-191-N.jpg","1","1","0","1","1","1","0.390698900009738","0.35596610000357","0.269599399995059","1","1","1","1","1","1","1","1","1"
"250018","img/neutralC/CFD-BM-227-191-N.jpg","img/neutralC/CFD-BM-009-002-N.jpg","img/neutralC/CFD-BM-020-001-N.jpg","0","1","1","1","1","0","0.269599399995059","0.390698900009738","0.447133400011808","1","1","1","1","1","1","1","1","1"
"250018","img/neutralC/CFD-BM-020-001-N.jpg","img/neutralC/CFD-BM-227-191-N.jpg","img/neutralC/CFD-WF-009-001-N.jpg","1","0","1","0","1","1","0.447133400011808","0.269599399995059","0.374563399993349","1","1","1","1","1","1","1","1","1"
"250018","img/neutralC/CFD-WF-009-001-N.jpg","img/neutralC/CFD-BM-020-001-N.jpg","img/neutralC/CFD-MM-306-010-N.jpg","1","1","1","1","0","0","0.374563399993349","0.447133400011808","0.434746400016593","1","1","1","1","1","1","1","1","1"
"250018","img/neutralC/CFD-MM-306-010-N.jpg","img/neutralC/CFD-WF-009-001-N.jpg","img/neutralC/CFD-LF-238-154-N.jpg","1","1","1","0","1","1","0.434746400016593","0.374563399993349","0.419058700004825","1","1","1","1","1","1","1","1","1"
"250018","img/neutralC/CFD-LF-238-154-N.jpg","img/neutralC/CFD-MM-306-010-N.jpg","img/neutralC/CFD-IM-606-008-N.jpg","1","1","1","1","0","0","0.419058700004825","0.434746400016593","0.488612200017087","1","1","1","1","1","1","1","1","1"
"250018","img/neutralC/CFD-IM-606-008-N.jpg","img/neutralC/CFD-LF-238-154-N.jpg","img/neutralC/CFD-WF-241-210-N.jpg","1","1","1","0","1","0","0.488612200017087","0.419058700004825","0.72254650000832","1","1","1","1","1","1","1","1","1"
"250018","img/neutralC/CFD-WF-241-210-N.jpg","img/neutralC/CFD-IM-606-008-N.jpg","img/neutralC/CFD-WM-028-003-N.jpg","1","1","1","0","0","1","0.72254650000832","0.488612200017087","0.493167999986326","1","1","1","1","1","1","1","1","1"
"250018","img/neutralC/CFD-WM-028-003-N.jpg","img/neutralC/CFD-WF-241-210-N.jpg","img/neutralC/CFD-WF-221-005-N.jpg","1","1","1","1","0","0","0.493167999986326","0.72254650000832","0.434173999994528","1","1","1","1","1","1","1","1","1"
"250018","img/neutralC/CFD-WF-221-005-N.jpg","img/neutralC/CFD-WM-028-003-N.jpg","img/neutralC/CFD-BM-030-003-N.jpg","1","1","1","0","1","0","0.434173999994528","0.493167999986326","0.46046080000815","1","1","1","1","1","1","1","1","1"
"250018","img/neutralC/CFD-BM-030-003-N.jpg","img/neutralC/CFD-WF-221-005-N.jpg","img/neutralC/CFD-AM-243-212-N.jpg","1","1","1","0","0","1","0.46046080000815","0.434173999994528","0.546274899999844","1","1","1","1","1","1","1","1","1"
"250018","img/neutralC/CFD-AM-243-212-N.jpg","img/neutralC/CFD-BM-030-003-N.jpg","img/neutralC/CFD-IM-689-263-N.jpg","1","1","1","1","0","1","0.546274899999844","0.46046080000815","0.400840299989795","1","1","1","1","1","1","1","1","1"
"250018","img/neutralC/CFD-IM-689-263-N.jpg","img/neutralC/CFD-AM-243-212-N.jpg","img/neutralC/CFD-AF-237-223-N.jpg","1","1","1","1","1","0","0.400840299989795","0.546274899999844","0.487046599999303","1","1","1","1","1","1","1","1","1"
"250018","img/neutralC/CFD-AF-237-223-N.jpg","img/neutralC/CFD-IM-689-263-N.jpg","img/neutralC/CFD-BM-043-071-N.jpg","1","1","1","0","1","0","0.487046599999303","0.400840299989795","0.549598700017668","1","1","1","1","1","1","1","1","1"
"250018","img/neutralC/CFD-BM-043-071-N.jpg","img/neutralC/CFD-AF-237-223-N.jpg","img/neutralC/CFD-MF-328-020-N.jpg","1","1","1","0","0","0","0.549598700017668","0.487046599999303","0.562785799993435","1","1","1","1","1","1","1","1","1"
"250018","img/neutralC/CFD-MF-328-020-N.jpg","img/neutralC/CFD-BM-043-071-N.jpg","img/neutralC/CFD-WF-243-148-N.jpg","1","1","1","0","0","0","0.562785799993435","0.549598700017668","0.507000400015386","1","1","1","1","1","1","1","1","1"
"250018","img/neutralC/CFD-WF-243-148-N.jpg","img/neutralC/CFD-MF-328-020-N.jpg","img/neutralC/CFD-BF-244-231-N.jpg","1","1","1","0","0","1","0.507000400015386","0.562785799993435","0.380525000015041","1","1","1","1","1","1","1","1","1"
"250018","img/neutralC/CFD-BF-244-231-N.jpg","img/neutralC/CFD-WF-243-148-N.jpg","img/neutralC/CFD-AM-249-163-N.jpg","1","1","1","1","0","1","0.380525000015041","0.507000400015386","0.40234510001028","1","1","1","1","1","1","1","1","1"
"250018","img/neutralC/CFD-AM-249-163-N.jpg","img/neutralC/CFD-BF-244-231-N.jpg","img/neutralC/CFD-LF-222-147-N.jpg","1","1","1","1","1","0","0.40234510001028","0.380525000015041","0.47539959999267","1","1","1","1","1","1","1","1","1"
"250018","img/neutralC/CFD-LF-222-147-N.jpg","img/neutralC/CFD-AM-249-163-N.jpg","img/neutralC/CFD-AM-219-101-N.jpg","1","1","1","0","1","0","0.47539959999267","0.40234510001028","0.432779000024311","1","1","1","1","1","1","1","1","1"
"250018","img/neutralC/CFD-AM-219-101-N.jpg","img/neutralC/CFD-LF-222-147-N.jpg","img/neutralC/CFD-WM-023-001-N.jpg","1","1","1","0","0","0","0.432779000024311","0.47539959999267","0.488668799982406","1","1","1","1","1","1","1","1","1"
"250018","img/neutralC/CFD-WM-023-001-N.jpg","img/neutralC/CFD-AM-219-101-N.jpg",NA,"1","1",NA,"0","0",NA,"0.488668799982406","0.432779000024311",NA,"1","1",NA,"1","1",NA,"1","1",NA
"250018","img/neutralC/CFD-IM-646-023-N.jpg",NA,"img/neutralC/CFD-WM-026-001-N.jpg","1",NA,"1","1",NA,"1","0.480354400002398",NA,"0.372455700009596","1",NA,"1","1",NA,"1","1",NA,"1"
"250018","img/neutralC/CFD-WM-026-001-N.jpg","img/neutralC/CFD-IM-646-023-N.jpg","img/neutralC/CFD-BF-025-002-N.jpg","1","1","0","1","1","0","0.372455700009596","0.480354400002398","0.353784699982498","1","1","1","1","1","1","1","1","1"
"250018","img/neutralC/CFD-BF-025-002-N.jpg","img/neutralC/CFD-WM-026-001-N.jpg","img/neutralC/CFD-WM-019-003-N.jpg","0","1","1","0","1","1","0.353784699982498","0.372455700009596","0.388791600009426","1","1","1","1","1","1","1","1","1"
"250018","img/neutralC/CFD-WM-019-003-N.jpg","img/neutralC/CFD-BF-025-002-N.jpg","img/neutralC/CFD-WM-012-001-N.jpg","1","0","1","1","0","1","0.388791600009426","0.353784699982498","0.343086400011089","1","1","1","1","1","1","1","1","1"
"250018","img/neutralC/CFD-WM-012-001-N.jpg","img/neutralC/CFD-WM-019-003-N.jpg","img/neutralC/CFD-BF-212-315-N.jpg","1","1","1","1","1","1","0.343086400011089","0.388791600009426","0.351016600005096","1","1","1","1","1","1","1","1","1"
"250018","img/neutralC/CFD-BF-212-315-N.jpg","img/neutralC/CFD-WM-012-001-N.jpg","img/neutralC/CFD-WM-006-002-N.jpg","1","1","0","1","1","0","0.351016600005096","0.343086400011089","0.345319599990034","1","1","1","1","1","1","1","1","2"
"250018","img/neutralC/CFD-WM-006-002-N.jpg","img/neutralC/CFD-BF-212-315-N.jpg","img/neutralC/CFD-MM-317-061-N.jpg","0","1","1","0","1","1","0.345319599990034","0.351016600005096","0.46358589999727","1","1","1","1","1","1","2","1","1"
"250018","img/neutralC/CFD-MM-317-061-N.jpg","img/neutralC/CFD-WM-006-002-N.jpg","img/neutralC/CFD-MF-335-002-N.jpg","1","0","0","1","0","0","0.46358589999727","0.345319599990034","0.39560249997885","1","1","1","1","1","1","1","2","1"
"250018","img/neutralC/CFD-MF-335-002-N.jpg","img/neutralC/CFD-MM-317-061-N.jpg","img/neutralC/CFD-AM-247-165-N.jpg","0","1","1","0","1","1","0.39560249997885","0.46358589999727","0.379548400000203","1","1","1","1","1","1","1","1","1"
"250018","img/neutralC/CFD-AM-247-165-N.jpg","img/neutralC/CFD-MF-335-002-N.jpg","img/neutralC/CFD-LM-243-075-N.jpg","1","0","0","1","0","0","0.379548400000203","0.39560249997885","0.390697599999839","1","1","1","1","1","1","1","1","1"
"250018","img/neutralC/CFD-LM-243-075-N.jpg","img/neutralC/CFD-AM-247-165-N.jpg","img/neutralC/CFD-LM-214-165-N.jpg","0","1","1","0","1","1","0.390697599999839","0.379548400000203","0.421436400007224","1","1","1","1","1","1","1","1","1"
"250018","img/neutralC/CFD-LM-214-165-N.jpg","img/neutralC/CFD-LM-243-075-N.jpg","img/neutralC/CFD-BF-228-212-N.jpg","1","0","1","1","0","0","0.421436400007224","0.390697599999839","0.585084699996514","1","1","1","1","1","1","1","1","1"
"250018","img/neutralC/CFD-BF-228-212-N.jpg","img/neutralC/CFD-LM-214-165-N.jpg","img/neutralC/CFD-WF-228-196-N.jpg","1","1","1","0","1","0","0.585084699996514","0.421436400007224","0.459671600023285","1","1","1","1","1","1","1","1","1"
"250018","img/neutralC/CFD-WF-228-196-N.jpg","img/neutralC/CFD-BF-228-212-N.jpg","img/neutralC/CFD-WM-249-239-N.jpg","1","1","1","0","0","1","0.459671600023285","0.585084699996514","0.447720299998764","1","1","1","1","1","1","1","1","1"
"250018","img/neutralC/CFD-WM-249-239-N.jpg","img/neutralC/CFD-WF-228-196-N.jpg","img/neutralC/CFD-AF-240-206-N.jpg","1","1","1","1","0","0","0.447720299998764","0.459671600023285","0.434654799988493","1","1","1","1","1","1","1","1","1"
"250018","img/neutralC/CFD-AF-240-206-N.jpg","img/neutralC/CFD-WM-249-239-N.jpg","img/neutralC/CFD-LM-244-068-N.jpg","1","1","1","0","1","1","0.434654799988493","0.447720299998764","0.406682200002251","1","1","1","1","1","1","1","1","1"
"250018","img/neutralC/CFD-LM-244-068-N.jpg","img/neutralC/CFD-AF-240-206-N.jpg","img/neutralC/CFD-IM-648-337-N.jpg","1","1","1","1","0","0","0.406682200002251","0.434654799988493","0.429799200006528","1","1","1","1","1","1","1","1","1"
"250018","img/neutralC/CFD-IM-648-337-N.jpg","img/neutralC/CFD-LM-244-068-N.jpg","img/neutralC/CFD-LM-201-057-N.jpg","1","1","1","0","1","1","0.429799200006528","0.406682200002251","0.36158549998072","1","1","1","1","1","1","1","1","1"
"250018","img/neutralC/CFD-LM-201-057-N.jpg","img/neutralC/CFD-IM-648-337-N.jpg","img/neutralC/CFD-BF-041-001-N.jpg","1","1","1","1","0","1","0.36158549998072","0.429799200006528","0.377299300016603","1","1","1","1","1","1","1","1","1"
"250018","img/neutralC/CFD-BF-041-001-N.jpg","img/neutralC/CFD-LM-201-057-N.jpg","img/neutralC/CFD-BM-251-013-N.jpg","1","1","1","1","1","1","0.377299300016603","0.36158549998072","0.31239559999085","1","1","1","1","1","1","1","1","1"
"250018","img/neutralC/CFD-BM-251-013-N.jpg","img/neutralC/CFD-BF-041-001-N.jpg","img/neutralC/CFD-WF-240-083-N.jpg","1","1","0","1","1","0","0.31239559999085","0.377299300016603","0.341851000004681","1","1","1","1","1","1","1","1","1"
"250018","img/neutralC/CFD-WF-240-083-N.jpg","img/neutralC/CFD-BM-251-013-N.jpg","img/neutralC/CFD-LM-216-082-N.jpg","0","1","1","0","1","0","0.341851000004681","0.31239559999085","0.464441899996018","1","1","1","1","1","1","1","1","1"
"250018","img/neutralC/CFD-LM-216-082-N.jpg","img/neutralC/CFD-WF-240-083-N.jpg","img/neutralC/CFD-WF-017-003-N.jpg","1","0","1","0","0","1","0.464441899996018","0.341851000004681","0.358582700020634","1","1","1","1","1","1","1","1","1"
"250018","img/neutralC/CFD-WF-017-003-N.jpg","img/neutralC/CFD-LM-216-082-N.jpg","img/neutralC/CFD-MF-309-002-N.jpg","1","1","1","1","0","0","0.358582700020634","0.464441899996018","0.497259900002973","1","1","1","1","1","1","1","1","1"
"250018","img/neutralC/CFD-MF-309-002-N.jpg","img/neutralC/CFD-WF-017-003-N.jpg","img/neutralC/CFD-BF-202-109-N.jpg","1","1","1","0","1","1","0.497259900002973","0.358582700020634","0.39084149998962","1","1","1","1","1","1","1","1","1"
"250018","img/neutralC/CFD-BF-202-109-N.jpg","img/neutralC/CFD-MF-309-002-N.jpg","img/neutralC/CFD-WF-005-010-N.jpg","1","1","1","1","0","0","0.39084149998962","0.497259900002973","0.422282399988035","1","1","1","1","1","1","1","1","1"
"250018","img/neutralC/CFD-WF-005-010-N.jpg","img/neutralC/CFD-BF-202-109-N.jpg","img/neutralC/CFD-BM-248-128-N.jpg","1","1","1","0","1","0","0.422282399988035","0.39084149998962","0.461725200002547","1","1","1","1","1","1","1","1","1"
"250018","img/neutralC/CFD-BM-248-128-N.jpg","img/neutralC/CFD-WF-005-010-N.jpg","img/neutralC/CFD-BM-205-001-N.jpg","1","1","1","0","0","0","0.461725200002547","0.422282399988035","0.418526699999347","1","1","1","1","1","1","1","1","1"
"250018","img/neutralC/CFD-BM-205-001-N.jpg","img/neutralC/CFD-BM-248-128-N.jpg","img/neutralC/CFD-IF-642-295-N.jpg","1","1","1","0","0","1","0.418526699999347","0.461725200002547","0.362335699988762","1","1","1","1","1","1","1","1","1"
"250018","img/neutralC/CFD-IF-642-295-N.jpg","img/neutralC/CFD-BM-205-001-N.jpg","img/neutralC/CFD-WM-215-041-N.jpg","1","1","1","1","0","0","0.362335699988762","0.418526699999347","0.299269199982518","1","1","1","1","1","1","1","1","1"
"250018","img/neutralC/CFD-WM-215-041-N.jpg","img/neutralC/CFD-IF-642-295-N.jpg","img/neutralC/CFD-WM-212-097-N.jpg","1","1","0","0","1","0","0.299269199982518","0.362335699988762","0.496265299996594","1","1","1","1","1","1","1","1","2"
"250018","img/neutralC/CFD-WM-212-097-N.jpg","img/neutralC/CFD-WM-215-041-N.jpg",NA,"0","1",NA,"0","0",NA,"0.496265299996594","0.299269199982518",NA,"1","1",NA,"1","1",NA,"2","1",NA
"250018","img/neutralC/CFD-IM-743-006-N.jpg",NA,"img/neutralC/CFD-AM-242-176-N.jpg","1",NA,"1","1",NA,"1","0.477490499994019",NA,"0.432105699990643","1",NA,"1","1",NA,"1","1",NA,"1"
"250018","img/neutralC/CFD-AM-242-176-N.jpg","img/neutralC/CFD-IM-743-006-N.jpg","img/neutralC/CFD-WF-001-003-N.jpg","1","1","1","1","1","1","0.432105699990643","0.477490499994019","0.390049200010253","1","1","1","1","1","1","1","1","1"
"250018","img/neutralC/CFD-WF-001-003-N.jpg","img/neutralC/CFD-AM-242-176-N.jpg","img/neutralC/CFD-BM-253-004-N.jpg","1","1","1","1","1","1","0.390049200010253","0.432105699990643","0.371795399987604","1","1","1","1","1","1","1","1","1"
"250018","img/neutralC/CFD-BM-253-004-N.jpg","img/neutralC/CFD-WF-001-003-N.jpg","img/neutralC/CFD-LF-218-072-N.jpg","1","1","1","1","1","0","0.371795399987604","0.390049200010253","0.439654499990866","1","1","1","1","1","1","1","1","1"
"250018","img/neutralC/CFD-LF-218-072-N.jpg","img/neutralC/CFD-BM-253-004-N.jpg","img/neutralC/CFD-IM-645-001-N.jpg","1","1","0","0","1","0","0.439654499990866","0.371795399987604","0.388117299997248","1","1","1","1","1","1","1","1","1"
"250018","img/neutralC/CFD-IM-645-001-N.jpg","img/neutralC/CFD-LF-218-072-N.jpg","img/neutralC/CFD-WF-214-122-N.jpg","0","1","1","0","0","1","0.388117299997248","0.439654499990866","0.480750099988654","1","1","1","1","1","1","1","1","1"
"250018","img/neutralC/CFD-WF-214-122-N.jpg","img/neutralC/CFD-IM-645-001-N.jpg","img/neutralC/CFD-MF-333-012-N.jpg","1","0","1","1","0","0","0.480750099988654","0.388117299997248","0.528040100005455","1","1","1","1","1","1","1","1","1"
"250018","img/neutralC/CFD-MF-333-012-N.jpg","img/neutralC/CFD-WF-214-122-N.jpg","img/neutralC/CFD-WM-004-010-N.jpg","1","1","1","0","1","0","0.528040100005455","0.480750099988654","0.422822900000028","1","1","1","1","1","1","1","1","1"
"250018","img/neutralC/CFD-WM-004-010-N.jpg","img/neutralC/CFD-MF-333-012-N.jpg","img/neutralC/CFD-LM-237-264-N.jpg","1","1","1","0","0","0","0.422822900000028","0.528040100005455","0.463703300018096","1","1","1","1","1","1","1","1","1"
"250018","img/neutralC/CFD-LM-237-264-N.jpg","img/neutralC/CFD-WM-004-010-N.jpg","img/neutralC/CFD-AM-211-052-N.jpg","1","1","1","0","0","1","0.463703300018096","0.422822900000028","0.371487199998228","1","1","1","1","1","1","1","1","1"
"250018","img/neutralC/CFD-AM-211-052-N.jpg","img/neutralC/CFD-LM-237-264-N.jpg","img/neutralC/CFD-IM-616-214-N.jpg","1","1","1","1","0","0","0.371487199998228","0.463703300018096","0.535877699992852","1","1","1","1","1","1","1","1","1"
"250018","img/neutralC/CFD-IM-616-214-N.jpg","img/neutralC/CFD-AM-211-052-N.jpg","img/neutralC/CFD-WM-020-001-N.jpg","1","1","1","0","1","1","0.535877699992852","0.371487199998228","0.328087800007779","1","1","1","1","1","1","1","1","1"
"250018","img/neutralC/CFD-WM-020-001-N.jpg","img/neutralC/CFD-IM-616-214-N.jpg","img/neutralC/CFD-BF-229-179-N.jpg","1","1","1","1","0","0","0.328087800007779","0.535877699992852","0.498458799993386","1","1","1","1","1","1","1","1","1"
"250018","img/neutralC/CFD-BF-229-179-N.jpg","img/neutralC/CFD-WM-020-001-N.jpg","img/neutralC/CFD-IF-650-315-N.jpg","1","1","1","0","1","0","0.498458799993386","0.328087800007779","0.431841000012355","1","1","1","1","1","1","1","1","1"
"250018","img/neutralC/CFD-IF-650-315-N.jpg","img/neutralC/CFD-BF-229-179-N.jpg","img/neutralC/CFD-IF-623-129-N.jpg","1","1","1","0","0","1","0.431841000012355","0.498458799993386","0.430875799997011","1","1","1","1","1","1","1","1","1"
"250018","img/neutralC/CFD-IF-623-129-N.jpg","img/neutralC/CFD-IF-650-315-N.jpg","img/neutralC/CFD-MF-352-054-N.jpg","1","1","1","1","0","0","0.430875799997011","0.431841000012355","0.48582780000288","1","1","1","1","1","1","1","1","1"
"250018","img/neutralC/CFD-MF-352-054-N.jpg","img/neutralC/CFD-IF-623-129-N.jpg","img/neutralC/CFD-WM-235-147-N.jpg","1","1","1","0","1","0","0.48582780000288","0.430875799997011","0.480918200017186","1","1","1","1","1","1","1","1","1"
"250018","img/neutralC/CFD-WM-235-147-N.jpg","img/neutralC/CFD-MF-352-054-N.jpg","img/neutralC/CFD-LF-220-120-N.jpg","1","1","1","0","0","1","0.480918200017186","0.48582780000288","0.386559100006707","1","1","1","1","1","1","1","1","1"
"250018","img/neutralC/CFD-LF-220-120-N.jpg","img/neutralC/CFD-WM-235-147-N.jpg","img/neutralC/CFD-AM-251-124-N.jpg","1","1","1","1","0","0","0.386559100006707","0.480918200017186","0.404722100007348","1","1","1","1","1","1","1","1","1"
"250018","img/neutralC/CFD-AM-251-124-N.jpg","img/neutralC/CFD-LF-220-120-N.jpg","img/neutralC/CFD-BM-225-154-N.jpg","1","1","1","0","1","1","0.404722100007348","0.386559100006707","0.378908500017133","1","1","1","1","1","1","1","1","1"
"250018","img/neutralC/CFD-BM-225-154-N.jpg","img/neutralC/CFD-AM-251-124-N.jpg","img/neutralC/CFD-WF-036-023-N.jpg","1","1","0","1","0","0","0.378908500017133","0.404722100007348","0.37201140000252","1","1","1","1","1","1","1","1","1"
"250018","img/neutralC/CFD-WF-036-023-N.jpg","img/neutralC/CFD-BM-225-154-N.jpg","img/neutralC/CFD-WM-033-025-N.jpg","0","1","1","0","1","1","0.37201140000252","0.378908500017133","0.412207899993518","1","1","1","1","1","1","1","1","1"
"250018","img/neutralC/CFD-WM-033-025-N.jpg","img/neutralC/CFD-WF-036-023-N.jpg","img/neutralC/CFD-BF-232-187-N.jpg","1","0","1","1","0","1","0.412207899993518","0.37201140000252","0.366024299990386","1","1","1","1","1","1","1","1","1"
"250018","img/neutralC/CFD-BF-232-187-N.jpg","img/neutralC/CFD-WM-033-025-N.jpg","img/neutralC/CFD-IM-671-601-N.jpg","1","1","1","1","1","0","0.366024299990386","0.412207899993518","0.402181500016013","1","1","1","1","1","1","1","1","1"
"250018","img/neutralC/CFD-IM-671-601-N.jpg","img/neutralC/CFD-BF-232-187-N.jpg","img/neutralC/CFD-WF-200-099-N.jpg","1","1","1","0","1","0","0.402181500016013","0.366024299990386","0.476251699990826","1","1","1","1","1","1","1","1","1"
"250018","img/neutralC/CFD-WF-200-099-N.jpg","img/neutralC/CFD-IM-671-601-N.jpg","img/neutralC/CFD-WM-219-008-N.jpg","1","1","1","0","0","0","0.476251699990826","0.402181500016013","0.497071399993729","1","1","1","1","1","1","1","1","1"
"250018","img/neutralC/CFD-WM-219-008-N.jpg","img/neutralC/CFD-WF-200-099-N.jpg","img/neutralC/CFD-BF-038-037-N.jpg","1","1","1","0","0","1","0.497071399993729","0.476251699990826","0.426215799991041","1","1","1","1","1","1","1","1","1"
"250018","img/neutralC/CFD-BF-038-037-N.jpg","img/neutralC/CFD-WM-219-008-N.jpg","img/neutralC/CFD-BF-226-119-N.jpg","1","1","1","1","0","1","0.426215799991041","0.497071399993729","0.427194499992765","1","1","1","1","1","1","1","1","1"
"250018","img/neutralC/CFD-BF-226-119-N.jpg","img/neutralC/CFD-BF-038-037-N.jpg","img/neutralC/CFD-IM-703-182-N.jpg","1","1","1","1","1","1","0.427194499992765","0.426215799991041","0.423096899990924","1","1","1","1","1","1","1","1","1"
"250018","img/neutralC/CFD-IM-703-182-N.jpg","img/neutralC/CFD-BF-226-119-N.jpg","img/neutralC/CFD-MF-359-019-N.jpg","1","1","1","1","1","0","0.423096899990924","0.427194499992765","0.483307899994543","1","1","1","1","1","1","1","1","1"
"250018","img/neutralC/CFD-MF-359-019-N.jpg","img/neutralC/CFD-IM-703-182-N.jpg","img/neutralC/CFD-LM-228-188-N.jpg","1","1","1","0","1","1","0.483307899994543","0.423096899990924","0.344260400015628","1","1","1","1","1","1","1","1","1"
"250018","img/neutralC/CFD-LM-228-188-N.jpg","img/neutralC/CFD-MF-359-019-N.jpg",NA,"1","1",NA,"1","0",NA,"0.344260400015628","0.483307899994543",NA,"1","1",NA,"1","1",NA,"1","1",NA
"250018","img/neutralC/CFD-LM-253-075-N.jpg",NA,"img/neutralC/CFD-WF-018-017-N.jpg","1",NA,"1","0",NA,"1","0.74582479998935",NA,"0.415818200010108","1",NA,"1","1",NA,"1","1",NA,"1"
"250018","img/neutralC/CFD-WF-018-017-N.jpg","img/neutralC/CFD-LM-253-075-N.jpg","img/neutralC/CFD-MF-342-022-N.jpg","1","1","1","1","0","1","0.415818200010108","0.74582479998935","0.410248600004706","1","1","1","1","1","1","1","1","1"
"250018","img/neutralC/CFD-MF-342-022-N.jpg","img/neutralC/CFD-WF-018-017-N.jpg","img/neutralC/CFD-LF-215-157-N.jpg","1","1","1","1","1","0","0.410248600004706","0.415818200010108","0.47545130000799","1","1","1","1","1","1","1","1","1"
"250018","img/neutralC/CFD-LF-215-157-N.jpg","img/neutralC/CFD-MF-342-022-N.jpg","img/neutralC/CFD-AF-221-147-N.jpg","1","1","0","0","1","0","0.47545130000799","0.410248600004706","0.505288899992593","1","1","1","1","1","1","1","1","1"
"250018","img/neutralC/CFD-AF-221-147-N.jpg","img/neutralC/CFD-LF-215-157-N.jpg","img/neutralC/CFD-WM-221-091-N.jpg","0","1","1","0","0","0","0.505288899992593","0.47545130000799","0.532072300004074","1","1","1","1","1","1","1","1","1"
"250018","img/neutralC/CFD-WM-221-091-N.jpg","img/neutralC/CFD-AF-221-147-N.jpg","img/neutralC/CFD-IM-700-009-N.jpg","1","0","1","0","0","1","0.532072300004074","0.505288899992593","0.402382200001739","1","1","1","1","1","1","1","1","1"
"250018","img/neutralC/CFD-IM-700-009-N.jpg","img/neutralC/CFD-WM-221-091-N.jpg","img/neutralC/CFD-WM-013-001-N.jpg","1","1","1","1","0","1","0.402382200001739","0.532072300004074","0.377728999999818","1","1","1","1","1","1","1","1","1"
"250018","img/neutralC/CFD-WM-013-001-N.jpg","img/neutralC/CFD-IM-700-009-N.jpg","img/neutralC/CFD-WM-237-052-N.jpg","1","1","1","1","1","1","0.377728999999818","0.402382200001739","0.273328700015554","1","1","1","1","1","1","1","1","1"
"250018","img/neutralC/CFD-WM-237-052-N.jpg","img/neutralC/CFD-WM-013-001-N.jpg","img/neutralC/CFD-MF-321-003-N.jpg","1","1","0","1","1","0","0.273328700015554","0.377728999999818","0.326529400015716","1","1","1","1","1","1","1","1","1"
"250018","img/neutralC/CFD-MF-321-003-N.jpg","img/neutralC/CFD-WM-237-052-N.jpg","img/neutralC/CFD-BM-204-003-N.jpg","0","1","1","0","1","0","0.326529400015716","0.273328700015554","0.462474300002214","1","1","1","1","1","1","1","1","1"
"250018","img/neutralC/CFD-BM-204-003-N.jpg","img/neutralC/CFD-MF-321-003-N.jpg","img/neutralC/CFD-AF-232-078-N.jpg","1","0","1","0","0","1","0.462474300002214","0.326529400015716","0.436046200018609","1","1","1","1","1","1","1","1","1"
"250018","img/neutralC/CFD-AF-232-078-N.jpg","img/neutralC/CFD-BM-204-003-N.jpg","img/neutralC/CFD-WM-009-002-N.jpg","1","1","1","1","0","0","0.436046200018609","0.462474300002214","0.44295460000285","1","1","1","1","1","1","1","1","1"
"250018","img/neutralC/CFD-WM-009-002-N.jpg","img/neutralC/CFD-AF-232-078-N.jpg","img/neutralC/CFD-IM-627-178-N.jpg","1","1","1","0","1","1","0.44295460000285","0.436046200018609","0.382320400007302","1","1","1","1","1","1","1","1","1"
"250018","img/neutralC/CFD-IM-627-178-N.jpg","img/neutralC/CFD-WM-009-002-N.jpg","img/neutralC/CFD-AM-244-222-N.jpg","1","1","1","1","0","0","0.382320400007302","0.44295460000285","0.524539099977119","1","1","1","1","1","1","1","1","1"
"250018","img/neutralC/CFD-AM-244-222-N.jpg","img/neutralC/CFD-IM-627-178-N.jpg","img/neutralC/CFD-LF-211-003-N.jpg","1","1","1","0","1","0","0.524539099977119","0.382320400007302","0.508311299985508","1","1","1","1","1","1","1","1","1"
"250018","img/neutralC/CFD-LF-211-003-N.jpg","img/neutralC/CFD-AM-244-222-N.jpg","img/neutralC/CFD-BF-018-039-N.jpg","1","1","1","0","0","1","0.508311299985508","0.524539099977119","0.386358100018697","1","1","1","1","1","1","1","1","1"
"250018","img/neutralC/CFD-BF-018-039-N.jpg","img/neutralC/CFD-LF-211-003-N.jpg","img/neutralC/CFD-WF-238-023-N.jpg","1","1","1","1","0","0","0.386358100018697","0.508311299985508","0.532995599991409","1","1","1","1","1","1","1","1","1"
"250018","img/neutralC/CFD-WF-238-023-N.jpg","img/neutralC/CFD-BF-018-039-N.jpg","img/neutralC/CFD-WM-201-063-N.jpg","1","1","1","0","1","1","0.532995599991409","0.386358100018697","0.49592320001102","1","1","1","1","1","1","1","1","1"
"250018","img/neutralC/CFD-WM-201-063-N.jpg","img/neutralC/CFD-WF-238-023-N.jpg","img/neutralC/CFD-IF-629-234-N.jpg","1","1","1","1","0","0","0.49592320001102","0.532995599991409","0.58497629998601","1","1","1","1","1","1","1","1","1"
"250018","img/neutralC/CFD-IF-629-234-N.jpg","img/neutralC/CFD-WM-201-063-N.jpg","img/neutralC/CFD-IM-719-221-N.jpg","1","1","1","0","1","0","0.58497629998601","0.49592320001102","0.545316600007936","1","1","1","1","1","1","1","1","1"
"250018","img/neutralC/CFD-IM-719-221-N.jpg","img/neutralC/CFD-IF-629-234-N.jpg","img/neutralC/CFD-BF-218-207-N.jpg","1","1","1","0","0","1","0.545316600007936","0.58497629998601","0.503689800010761","1","1","1","1","1","1","1","1","1"
"250018","img/neutralC/CFD-BF-218-207-N.jpg","img/neutralC/CFD-IM-719-221-N.jpg","img/neutralC/CFD-BM-200-046-N.jpg","1","1","1","1","0","0","0.503689800010761","0.545316600007936","0.622323699994013","1","1","1","1","1","1","1","1","1"
"250018","img/neutralC/CFD-BM-200-046-N.jpg","img/neutralC/CFD-BF-218-207-N.jpg","img/neutralC/CFD-WF-245-084-N.jpg","1","1","1","0","1","1","0.622323699994013","0.503689800010761","0.343106499989517","1","1","1","1","1","1","1","1","1"
"250018","img/neutralC/CFD-WF-245-084-N.jpg","img/neutralC/CFD-BM-200-046-N.jpg","img/neutralC/CFD-BF-254-201-N.jpg","1","1","1","1","0","0","0.343106499989517","0.622323699994013","0.515382399986265","1","1","1","1","1","1","1","1","1"
"250018","img/neutralC/CFD-BF-254-201-N.jpg","img/neutralC/CFD-WF-245-084-N.jpg","img/neutralC/CFD-BM-023-029-N.jpg","1","1","1","0","1","1","0.515382399986265","0.343106499989517","0.429883900011191","1","1","1","1","1","1","1","1","1"
"250018","img/neutralC/CFD-BM-023-029-N.jpg","img/neutralC/CFD-BF-254-201-N.jpg","img/neutralC/CFD-WF-226-095-N.jpg","1","1","1","1","0","1","0.429883900011191","0.515382399986265","0.37782199998037","1","1","1","1","1","1","1","1","1"
"250018","img/neutralC/CFD-WF-226-095-N.jpg","img/neutralC/CFD-BM-023-029-N.jpg","img/neutralC/CFD-WF-027-003-N.jpg","1","1","1","1","1","1","0.37782199998037","0.429883900011191","0.412345699995058","1","1","1","1","1","1","1","1","1"
"250018","img/neutralC/CFD-WF-027-003-N.jpg","img/neutralC/CFD-WF-226-095-N.jpg","img/neutralC/CFD-WM-255-219-N.jpg","1","1","1","1","1","0","0.412345699995058","0.37782199998037","0.378272900008596","1","1","1","1","1","1","1","1","1"
"250018","img/neutralC/CFD-WM-255-219-N.jpg","img/neutralC/CFD-WF-027-003-N.jpg","img/neutralC/CFD-MF-318-022-N.jpg","1","1","1","0","1","1","0.378272900008596","0.412345699995058","0.409946899977513","1","1","1","1","1","1","1","1","1"
"250018","img/neutralC/CFD-MF-318-022-N.jpg","img/neutralC/CFD-WM-255-219-N.jpg","img/neutralC/CFD-MM-321-021-N.jpg","1","1","0","1","0","0","0.409946899977513","0.378272900008596","0.431683500006329","1","1","1","1","1","1","1","1","1"
"250018","img/neutralC/CFD-MM-321-021-N.jpg","img/neutralC/CFD-MF-318-022-N.jpg","img/neutralC/CFD-WF-023-003-N.jpg","0","1","1","0","1","1","0.431683500006329","0.409946899977513","0.39240310000605","1","1","1","1","1","1","1","1","1"
"250018","img/neutralC/CFD-WF-023-003-N.jpg","img/neutralC/CFD-MM-321-021-N.jpg",NA,"1","0",NA,"1","0",NA,"0.39240310000605","0.431683500006329",NA,"1","1",NA,"1","1",NA,"1","1",NA
"250018","img/neutralC/CFD-IM-674-281-N.jpg",NA,"img/neutralC/CFD-MM-319-052-N.jpg","1",NA,"1","1",NA,"1","0.59013710002182",NA,"0.479234099999303","1",NA,"1","1",NA,"1","1",NA,"1"
"250018","img/neutralC/CFD-MM-319-052-N.jpg","img/neutralC/CFD-IM-674-281-N.jpg","img/neutralC/CFD-WF-026-002-N.jpg","1","1","1","1","1","1","0.479234099999303","0.59013710002182","0.413506100012455","1","1","1","1","1","1","1","1","1"
"250018","img/neutralC/CFD-WF-026-002-N.jpg","img/neutralC/CFD-MM-319-052-N.jpg","img/neutralC/CFD-AM-215-120-N.jpg","1","1","1","1","1","1","0.413506100012455","0.479234099999303","0.343262499984121","1","1","1","1","1","1","1","1","1"
"250018","img/neutralC/CFD-AM-215-120-N.jpg","img/neutralC/CFD-WF-026-002-N.jpg","img/neutralC/CFD-BF-208-266-N.jpg","1","1","1","1","1","0","0.343262499984121","0.413506100012455","0.511401199997636","1","1","1","1","1","1","1","1","1"
"250018","img/neutralC/CFD-BF-208-266-N.jpg","img/neutralC/CFD-AM-215-120-N.jpg","img/neutralC/CFD-BF-003-003-N.jpg","1","1","1","0","1","0","0.511401199997636","0.343262499984121","0.430013700010022","1","1","1","1","1","1","1","1","1"
"250018","img/neutralC/CFD-BF-003-003-N.jpg","img/neutralC/CFD-BF-208-266-N.jpg","img/neutralC/CFD-WM-040-022-N.jpg","1","1","1","0","0","0","0.430013700010022","0.511401199997636","0.453582800022559","1","1","1","1","1","1","1","1","1"
"250018","img/neutralC/CFD-WM-040-022-N.jpg","img/neutralC/CFD-BF-003-003-N.jpg","img/neutralC/CFD-LM-252-076-N.jpg","1","1","1","0","0","1","0.453582800022559","0.430013700010022","0.320852900011232","1","1","1","1","1","1","1","1","1"
"250018","img/neutralC/CFD-LM-252-076-N.jpg","img/neutralC/CFD-WM-040-022-N.jpg","img/neutralC/CFD-AM-217-085-N.jpg","1","1","1","1","0","0","0.320852900011232","0.453582800022559","0.334266499994555","1","1","1","1","1","1","1","1","1"
"250018","img/neutralC/CFD-AM-217-085-N.jpg","img/neutralC/CFD-LM-252-076-N.jpg","img/neutralC/CFD-BM-015-015-N.jpg","1","1","1","0","1","0","0.334266499994555","0.320852900011232","0.499574200017378","1","1","1","1","1","1","1","1","1"
"250018","img/neutralC/CFD-BM-015-015-N.jpg","img/neutralC/CFD-AM-217-085-N.jpg","img/neutralC/CFD-WM-038-003-N.jpg","1","1","1","0","0","0","0.499574200017378","0.334266499994555","0.536302799999248","1","1","1","1","1","1","1","1","1"
"250018","img/neutralC/CFD-WM-038-003-N.jpg","img/neutralC/CFD-BM-015-015-N.jpg","img/neutralC/CFD-WF-022-017-N.jpg","1","1","1","0","0","0","0.536302799999248","0.499574200017378","0.492040700017242","1","1","1","1","1","1","1","1","1"
"250018","img/neutralC/CFD-WF-022-017-N.jpg","img/neutralC/CFD-WM-038-003-N.jpg","img/neutralC/CFD-LF-216-121-N.jpg","1","1","1","0","0","1","0.492040700017242","0.536302799999248","0.40258970001014","1","1","1","1","1","1","1","1","1"
"250018","img/neutralC/CFD-LF-216-121-N.jpg","img/neutralC/CFD-WF-022-017-N.jpg","img/neutralC/CFD-IM-728-041-N.jpg","1","1","0","1","0","0","0.40258970001014","0.492040700017242","0.389509100001305","1","1","1","1","1","1","1","1","1"
"250018","img/neutralC/CFD-IM-728-041-N.jpg","img/neutralC/CFD-LF-216-121-N.jpg","img/neutralC/CFD-LF-236-221-N.jpg","0","1","1","0","1","1","0.389509100001305","0.40258970001014","0.405635999981314","1","1","1","1","1","1","1","1","1"
"250018","img/neutralC/CFD-LF-236-221-N.jpg","img/neutralC/CFD-IM-728-041-N.jpg","img/neutralC/CFD-IM-639-263-N.jpg","1","0","1","1","0","1","0.405635999981314","0.389509100001305","0.375224799994612","1","1","1","1","1","1","1","1","1"
"250018","img/neutralC/CFD-IM-639-263-N.jpg","img/neutralC/CFD-LF-236-221-N.jpg","img/neutralC/CFD-WM-257-161-N.jpg","1","1","1","1","1","1","0.375224799994612","0.405635999981314","0.370025299984263","1","1","1","1","1","1","1","1","1"
"250018","img/neutralC/CFD-WM-257-161-N.jpg","img/neutralC/CFD-IM-639-263-N.jpg","img/neutralC/CFD-AM-235-241-N.jpg","1","1","1","1","1","0","0.370025299984263","0.375224799994612","0.504988600005163","1","1","1","1","1","1","1","1","1"
"250018","img/neutralC/CFD-AM-235-241-N.jpg","img/neutralC/CFD-WM-257-161-N.jpg","img/neutralC/CFD-WM-002-009-N.jpg","1","1","1","0","1","0","0.504988600005163","0.370025299984263","0.5661985000188","1","1","1","1","1","1","1","1","1"
"250018","img/neutralC/CFD-WM-002-009-N.jpg","img/neutralC/CFD-AM-235-241-N.jpg","img/neutralC/CFD-BF-023-010-N.jpg","1","1","1","0","0","1","0.5661985000188","0.504988600005163","0.383796300011454","1","1","1","1","1","1","1","1","1"
"250018","img/neutralC/CFD-BF-023-010-N.jpg","img/neutralC/CFD-WM-002-009-N.jpg","img/neutralC/CFD-WM-225-127-N.jpg","1","1","1","1","0","0","0.383796300011454","0.5661985000188","0.416599299991503","1","1","1","1","1","1","1","1","1"
"250018","img/neutralC/CFD-WM-225-127-N.jpg","img/neutralC/CFD-BF-023-010-N.jpg","img/neutralC/CFD-IF-718-001-N.jpg","1","1","1","0","1","1","0.416599299991503","0.383796300011454","0.336652199999662","1","1","1","1","1","1","1","1","1"
"250018","img/neutralC/CFD-IF-718-001-N.jpg","img/neutralC/CFD-WM-225-127-N.jpg","img/neutralC/CFD-BF-204-189-N.jpg","1","1","1","1","0","1","0.336652199999662","0.416599299991503","0.384249599999748","1","1","1","1","1","1","1","1","1"
"250018","img/neutralC/CFD-BF-204-189-N.jpg","img/neutralC/CFD-IF-718-001-N.jpg","img/neutralC/CFD-BF-255-140-N.jpg","1","1","1","1","1","1","0.384249599999748","0.336652199999662","0.3746396000206","1","1","1","1","1","1","1","1","1"
"250018","img/neutralC/CFD-BF-255-140-N.jpg","img/neutralC/CFD-BF-204-189-N.jpg","img/neutralC/CFD-BF-201-080-N.jpg","1","1","1","1","1","1","0.3746396000206","0.384249599999748","0.379828200006159","1","1","1","1","1","1","1","1","1"
"250018","img/neutralC/CFD-BF-201-080-N.jpg","img/neutralC/CFD-BF-255-140-N.jpg","img/neutralC/CFD-WF-002-004-N.jpg","1","1","0","1","1","0","0.379828200006159","0.3746396000206","0.368677799997386","1","1","1","1","1","1","1","1","1"
"250018","img/neutralC/CFD-WF-002-004-N.jpg","img/neutralC/CFD-BF-201-080-N.jpg","img/neutralC/CFD-BM-027-001-N.jpg","0","1","0","0","1","0","0.368677799997386","0.379828200006159","0.328862700000172","1","1","1","1","1","1","1","1","1"
"250018","img/neutralC/CFD-BM-027-001-N.jpg","img/neutralC/CFD-WF-002-004-N.jpg","img/neutralC/CFD-IF-672-305-N.jpg","0","0","1","0","0","0","0.328862700000172","0.368677799997386","0.612452800007304","1","1","1","1","1","1","1","1","1"
"250018","img/neutralC/CFD-IF-672-305-N.jpg","img/neutralC/CFD-BM-027-001-N.jpg","img/neutralC/CFD-BM-029-024-N.jpg","1","0","1","0","0","1","0.612452800007304","0.328862700000172","0.416589700005716","1","1","1","1","1","1","1","1","1"
"250018","img/neutralC/CFD-BM-029-024-N.jpg","img/neutralC/CFD-IF-672-305-N.jpg","img/neutralC/CFD-BM-247-240-N.jpg","1","1","1","1","0","0","0.416589700005716","0.612452800007304","0.553959000011673","1","1","1","1","1","1","1","1","1"
"250018","img/neutralC/CFD-BM-247-240-N.jpg","img/neutralC/CFD-BM-029-024-N.jpg","img/neutralC/CFD-BM-211-174-N.jpg","1","1","1","0","1","0","0.553959000011673","0.416589700005716","0.375350700021954","1","1","1","1","1","1","1","1","1"
"250018","img/neutralC/CFD-BM-211-174-N.jpg","img/neutralC/CFD-BM-247-240-N.jpg","img/neutralC/CFD-BF-028-001-N.jpg","1","1","1","0","0","1","0.375350700021954","0.553959000011673","0.427394300000742","1","1","1","1","1","1","1","1","1"
"250018","img/neutralC/CFD-BF-028-001-N.jpg","img/neutralC/CFD-BM-211-174-N.jpg",NA,"1","1",NA,"1","0",NA,"0.427394300000742","0.375350700021954",NA,"1","1",NA,"1","1",NA,"1","1",NA
"250018","img/neutralC/CFD-AF-233-190-N.jpg",NA,"img/neutralC/CFD-BF-014-002-N.jpg","0",NA,"1","0",NA,"1",NA,NA,"0.426046299980953","0",NA,"1","0",NA,"1","0",NA,"1"
"250018","img/neutralC/CFD-BF-014-002-N.jpg","img/neutralC/CFD-AF-233-190-N.jpg","img/neutralC/CFD-BM-250-170-N.jpg","1","0","1","1","0","1","0.426046299980953",NA,"0.391435900004581","1","0","1","1","0","1","1","0","1"
"250018","img/neutralC/CFD-BM-250-170-N.jpg","img/neutralC/CFD-BF-014-002-N.jpg","img/neutralC/CFD-MF-343-001-N.jpg","1","1","1","1","1","1","0.391435900004581","0.426046299980953","0.41003999998793","1","1","1","1","1","1","1","1","1"
"250018","img/neutralC/CFD-MF-343-001-N.jpg","img/neutralC/CFD-BM-250-170-N.jpg","img/neutralC/CFD-IM-706-002-N.jpg","1","1","1","1","1","0","0.41003999998793","0.391435900004581","0.432387000008021","1","1","1","1","1","1","1","1","1"
"250018","img/neutralC/CFD-IM-706-002-N.jpg","img/neutralC/CFD-MF-343-001-N.jpg","img/neutralC/CFD-MF-305-014-N.jpg","1","1","1","0","1","1","0.432387000008021","0.41003999998793","0.343930300005013","1","1","1","1","1","1","1","1","1"
"250018","img/neutralC/CFD-MF-305-014-N.jpg","img/neutralC/CFD-IM-706-002-N.jpg","img/neutralC/CFD-WM-015-002-N.jpg","1","1","0","1","0","0","0.343930300005013","0.432387000008021","0.398660199978622","1","1","1","1","1","1","1","1","1"
"250018","img/neutralC/CFD-WM-015-002-N.jpg","img/neutralC/CFD-MF-305-014-N.jpg","img/neutralC/CFD-LF-255-088-N.jpg","0","1","1","0","1","0","0.398660199978622","0.343930300005013","0.522942000010516","1","1","1","1","1","1","1","1","1"
"250018","img/neutralC/CFD-LF-255-088-N.jpg","img/neutralC/CFD-WM-015-002-N.jpg","img/neutralC/CFD-WF-007-001-N.jpg","1","0","1","0","0","1","0.522942000010516","0.398660199978622","0.353745600004913","1","1","1","1","1","1","1","1","1"
"250018","img/neutralC/CFD-WF-007-001-N.jpg","img/neutralC/CFD-LF-255-088-N.jpg","img/neutralC/CFD-WM-209-038-N.jpg","1","1","1","1","0","0","0.353745600004913","0.522942000010516","0.495467900007498","1","1","1","1","1","1","1","1","1"
"250018","img/neutralC/CFD-WM-209-038-N.jpg","img/neutralC/CFD-WF-007-001-N.jpg","img/neutralC/CFD-IM-664-651-N.jpg","1","1","1","0","1","1","0.495467900007498","0.353745600004913","0.400050800002646","1","1","1","1","1","1","1","1","1"
"250018","img/neutralC/CFD-IM-664-651-N.jpg","img/neutralC/CFD-WM-209-038-N.jpg","img/neutralC/CFD-LF-206-078-N.jpg","1","1","1","1","0","1","0.400050800002646","0.495467900007498","0.487691700021969","1","1","1","1","1","1","1","1","1"
"250018","img/neutralC/CFD-LF-206-078-N.jpg","img/neutralC/CFD-IM-664-651-N.jpg","img/neutralC/CFD-AF-253-130-N.jpg","1","1","1","1","1","1","0.487691700021969","0.400050800002646","0.37945489998674","1","1","1","1","1","1","1","1","1"
"250018","img/neutralC/CFD-AF-253-130-N.jpg","img/neutralC/CFD-LF-206-078-N.jpg","img/neutralC/CFD-WM-218-074-N.jpg","1","1","1","1","1","1","0.37945489998674","0.487691700021969","0.331647000013618","1","1","1","1","1","1","1","1","1"
"250018","img/neutralC/CFD-WM-218-074-N.jpg","img/neutralC/CFD-AF-253-130-N.jpg","img/neutralC/CFD-IF-626-375-N.jpg","1","1","0","1","1","0","0.331647000013618","0.37945489998674","0.33015520000481","1","1","1","1","1","1","1","1","1"
"250018","img/neutralC/CFD-IF-626-375-N.jpg","img/neutralC/CFD-WM-218-074-N.jpg","img/neutralC/CFD-WF-222-092-N.jpg","0","1","1","0","1","1","0.33015520000481","0.331647000013618","0.393324300006498","1","1","1","1","1","1","1","1","1"
"250018","img/neutralC/CFD-WF-222-092-N.jpg","img/neutralC/CFD-IF-626-375-N.jpg","img/neutralC/CFD-AM-220-134-N.jpg","1","0","1","1","0","0","0.393324300006498","0.33015520000481","0.419426400010707","1","1","1","1","1","1","1","1","1"
"250018","img/neutralC/CFD-AM-220-134-N.jpg","img/neutralC/CFD-WF-222-092-N.jpg","img/neutralC/CFD-MF-303-013-N.jpg","1","1","1","0","1","0","0.419426400010707","0.393324300006498","0.433956699998816","1","1","1","1","1","1","1","1","1"
"250018","img/neutralC/CFD-MF-303-013-N.jpg","img/neutralC/CFD-AM-220-134-N.jpg","img/neutralC/CFD-IM-702-101-N.jpg","1","1","1","0","0","1","0.433956699998816","0.419426400010707","0.359008500003256","1","1","1","1","1","1","1","1","1"
"250018","img/neutralC/CFD-IM-702-101-N.jpg","img/neutralC/CFD-MF-303-013-N.jpg","img/neutralC/CFD-WF-244-163-N.jpg","1","1","1","1","0","1","0.359008500003256","0.433956699998816","0.410432500008028","1","1","1","1","1","1","1","1","1"
"250018","img/neutralC/CFD-WF-244-163-N.jpg","img/neutralC/CFD-IM-702-101-N.jpg","img/neutralC/CFD-BM-217-082-N.jpg","1","1","1","1","1","0","0.410432500008028","0.359008500003256","0.485026700014714","1","1","1","1","1","1","1","1","1"
"250018","img/neutralC/CFD-BM-217-082-N.jpg","img/neutralC/CFD-WF-244-163-N.jpg","img/neutralC/CFD-BM-001-014-N.jpg","1","1","1","0","1","0","0.485026700014714","0.410432500008028","0.784437800000887","1","1","1","1","1","1","1","1","1"
"250018","img/neutralC/CFD-BM-001-014-N.jpg","img/neutralC/CFD-BM-217-082-N.jpg","img/neutralC/CFD-WF-030-002-N.jpg","1","1","1","0","0","0","0.784437800000887","0.485026700014714","0.523445800004993","1","1","1","1","1","1","1","1","1"
"250018","img/neutralC/CFD-WF-030-002-N.jpg","img/neutralC/CFD-BM-001-014-N.jpg","img/neutralC/CFD-MM-324-069-N.jpg","1","1","1","0","0","1","0.523445800004993","0.784437800000887","0.403227300004801","1","1","1","1","1","1","1","1","1"
"250018","img/neutralC/CFD-MM-324-069-N.jpg","img/neutralC/CFD-WF-030-002-N.jpg","img/neutralC/CFD-LM-225-130-N.jpg","1","1","1","1","0","0","0.403227300004801","0.523445800004993","0.465461100015091","1","1","1","1","1","1","1","1","1"
"250018","img/neutralC/CFD-LM-225-130-N.jpg","img/neutralC/CFD-MM-324-069-N.jpg","img/neutralC/CFD-LM-200-045-N.jpg","1","1","1","0","1","1","0.465461100015091","0.403227300004801","0.416717700019944","1","1","1","1","1","1","1","1","1"
"250018","img/neutralC/CFD-LM-200-045-N.jpg","img/neutralC/CFD-LM-225-130-N.jpg","img/neutralC/CFD-MF-357-002-N.jpg","1","1","1","1","0","0","0.416717700019944","0.465461100015091","0.430949799978407","1","1","1","1","1","1","1","1","1"
"250018","img/neutralC/CFD-MF-357-002-N.jpg","img/neutralC/CFD-LM-200-045-N.jpg","img/neutralC/CFD-MF-316-001-N.jpg","1","1","1","0","1","0","0.430949799978407","0.416717700019944","0.572889100003522","1","1","1","1","1","1","1","1","1"
"250018","img/neutralC/CFD-MF-316-001-N.jpg","img/neutralC/CFD-MF-357-002-N.jpg","img/neutralC/CFD-BF-237-172-N.jpg","1","1","1","0","0","1","0.572889100003522","0.430949799978407","0.407174099993426","1","1","1","1","1","1","1","1","1"
"250018","img/neutralC/CFD-BF-237-172-N.jpg","img/neutralC/CFD-MF-316-001-N.jpg","img/neutralC/CFD-IM-667-369-N.jpg","1","1","1","1","0","0","0.407174099993426","0.572889100003522","0.409868799994001","1","1","1","1","1","1","1","1","1"
"250018","img/neutralC/CFD-IM-667-369-N.jpg","img/neutralC/CFD-BF-237-172-N.jpg","img/neutralC/CFD-IM-680-369-N.jpg","1","1","1","0","1","1","0.409868799994001","0.407174099993426","0.446643400005996","1","1","1","1","1","1","1","1","1"
"250018","img/neutralC/CFD-IM-680-369-N.jpg","img/neutralC/CFD-IM-667-369-N.jpg","img/neutralC/CFD-IF-660-464-N.jpg","1","1","1","1","0","0","0.446643400005996","0.409868799994001","0.534461600007489","1","1","1","1","1","1","1","1","1"
"250018","img/neutralC/CFD-IF-660-464-N.jpg","img/neutralC/CFD-IM-680-369-N.jpg",NA,"1","1",NA,"0","1",NA,"0.534461600007489","0.446643400005996",NA,"1","1",NA,"1","1",NA,"1","1",NA
"250018","img/neutralC/CFD-WM-014-002-N.jpg",NA,"img/neutralC/CFD-WF-234-086-N.jpg","0",NA,"1","0",NA,"1","0.614541900024051",NA,"0.378390099998796","1",NA,"1","1",NA,"1","1",NA,"1"
"250018","img/neutralC/CFD-WF-234-086-N.jpg","img/neutralC/CFD-WM-014-002-N.jpg","img/neutralC/CFD-BF-247-179-N.jpg","1","0","1","1","0","0","0.378390099998796","0.614541900024051","0.445409499981906","1","1","1","1","1","1","1","1","1"
"250018","img/neutralC/CFD-BF-247-179-N.jpg","img/neutralC/CFD-WF-234-086-N.jpg","img/neutralC/CFD-BM-241-235-N.jpg","1","1","1","0","1","0","0.445409499981906","0.378390099998796","0.512877400004072","1","1","1","1","1","1","1","1","1"
"250018","img/neutralC/CFD-BM-241-235-N.jpg","img/neutralC/CFD-BF-247-179-N.jpg","img/neutralC/CFD-WF-029-002-N.jpg","1","1","0","0","0","0","0.512877400004072","0.445409499981906","0.408241500001168","1","1","1","1","1","1","1","1","1"
"250018","img/neutralC/CFD-WF-029-002-N.jpg","img/neutralC/CFD-BM-241-235-N.jpg","img/neutralC/CFD-BF-036-027-N.jpg","0","1","1","0","0","0","0.408241500001168","0.512877400004072","0.526984500000253","1","1","1","1","1","1","1","1","1"
"250018","img/neutralC/CFD-BF-036-027-N.jpg","img/neutralC/CFD-WF-029-002-N.jpg","img/neutralC/CFD-IM-726-248-N.jpg","1","0","1","0","0","0","0.526984500000253","0.408241500001168","0.526963099982822","1","1","1","1","1","1","1","1","1"
"250018","img/neutralC/CFD-IM-726-248-N.jpg","img/neutralC/CFD-BF-036-027-N.jpg","img/neutralC/CFD-BF-002-001-N.jpg","1","1","1","0","0","0","0.526963099982822","0.526984500000253","0.558333100023447","1","1","1","1","1","1","1","1","1"
"250018","img/neutralC/CFD-BF-002-001-N.jpg","img/neutralC/CFD-IM-726-248-N.jpg","img/neutralC/CFD-BF-236-177-N.jpg","1","1","0","0","0","0","0.558333100023447","0.526963099982822","0.431997099978616","1","1","1","1","1","1","1","1","1"
"250018","img/neutralC/CFD-BF-236-177-N.jpg","img/neutralC/CFD-BF-002-001-N.jpg","img/neutralC/CFD-LM-213-061-N.jpg","0","1","1","0","0","0","0.431997099978616","0.558333100023447","0.538376799988328","1","1","1","1","1","1","1","1","1"
"250018","img/neutralC/CFD-LM-213-061-N.jpg","img/neutralC/CFD-BF-236-177-N.jpg","img/neutralC/CFD-IM-721-341-N.jpg","1","0","1","0","0","1","0.538376799988328","0.431997099978616","0.425828400009777","1","1","1","1","1","1","1","1","1"
"250018","img/neutralC/CFD-IM-721-341-N.jpg","img/neutralC/CFD-LM-213-061-N.jpg","img/neutralC/CFD-IF-677-452-1-N.jpg","1","1","1","1","0","1","0.425828400009777","0.538376799988328","0.434274400002323","1","1","1","1","1","1","1","1","1"
"250018","img/neutralC/CFD-IF-677-452-1-N.jpg","img/neutralC/CFD-IM-721-341-N.jpg","img/neutralC/CFD-WF-233-112-N.jpg","1","1","1","1","1","1","0.434274400002323","0.425828400009777","0.433835100004217","1","1","1","1","1","1","1","1","1"
"250018","img/neutralC/CFD-WF-233-112-N.jpg","img/neutralC/CFD-IF-677-452-1-N.jpg","img/neutralC/CFD-BM-036-003-N.jpg","1","1","1","1","1","1","0.433835100004217","0.434274400002323","0.40119340000092","1","1","1","1","1","1","1","1","1"
"250018","img/neutralC/CFD-BM-036-003-N.jpg","img/neutralC/CFD-WF-233-112-N.jpg","img/neutralC/CFD-WM-248-036-N.jpg","1","1","1","1","1","1","0.40119340000092","0.433835100004217","0.40313230000902","1","1","1","1","1","1","1","1","1"
"250018","img/neutralC/CFD-WM-248-036-N.jpg","img/neutralC/CFD-BM-036-003-N.jpg","img/neutralC/CFD-IM-707-105-N.jpg","1","1","1","1","1","1","0.40313230000902","0.40119340000092","0.407063700025901","1","1","1","1","1","1","1","1","1"
"250018","img/neutralC/CFD-IM-707-105-N.jpg","img/neutralC/CFD-WM-248-036-N.jpg","img/neutralC/CFD-IF-742-103-N.jpg","1","1","1","1","1","1","0.407063700025901","0.40313230000902","0.381544999981998","1","1","1","1","1","1","1","1","1"
"250018","img/neutralC/CFD-IF-742-103-N.jpg","img/neutralC/CFD-IM-707-105-N.jpg","img/neutralC/CFD-BF-006-017-N.jpg","1","1","1","1","1","0","0.381544999981998","0.407063700025901","0.470529000012903","1","1","1","1","1","1","1","1","1"
"250018","img/neutralC/CFD-BF-006-017-N.jpg","img/neutralC/CFD-IF-742-103-N.jpg","img/neutralC/CFD-WF-208-068-N.jpg","1","1","1","0","1","1","0.470529000012903","0.381544999981998","0.362639200000558","1","1","1","1","1","1","1","1","1"
"250018","img/neutralC/CFD-WF-208-068-N.jpg","img/neutralC/CFD-BF-006-017-N.jpg","img/neutralC/CFD-AM-230-150-N.jpg","1","1","1","1","0","0","0.362639200000558","0.470529000012903","0.449828900018474","1","1","1","1","1","1","1","1","1"
"250018","img/neutralC/CFD-AM-230-150-N.jpg","img/neutralC/CFD-WF-208-068-N.jpg","img/neutralC/CFD-BF-011-002-N.jpg","1","1","1","0","1","1","0.449828900018474","0.362639200000558","0.344985900010215","1","1","1","1","1","1","1","1","1"
"250018","img/neutralC/CFD-BF-011-002-N.jpg","img/neutralC/CFD-AM-230-150-N.jpg","img/neutralC/CFD-BF-214-308-N.jpg","1","1","1","1","0","1","0.344985900010215","0.449828900018474","0.437433200015221","1","1","1","1","1","1","1","1","1"
"250018","img/neutralC/CFD-BF-214-308-N.jpg","img/neutralC/CFD-BF-011-002-N.jpg","img/neutralC/CFD-IM-696-001-N.jpg","1","1","1","1","1","0","0.437433200015221","0.344985900010215","0.440374099998735","1","1","1","1","1","1","1","1","1"
"250018","img/neutralC/CFD-IM-696-001-N.jpg","img/neutralC/CFD-BF-214-308-N.jpg","img/neutralC/CFD-BF-207-004-N.jpg","1","1","1","0","1","1","0.440374099998735","0.437433200015221","0.41043470002478","1","1","1","1","1","1","1","1","1"
"250018","img/neutralC/CFD-BF-207-004-N.jpg","img/neutralC/CFD-IM-696-001-N.jpg","img/neutralC/CFD-WM-034-030-N.jpg","1","1","1","1","0","1","0.41043470002478","0.440374099998735","0.369013600022299","1","1","1","1","1","1","1","1","1"
"250018","img/neutralC/CFD-WM-034-030-N.jpg","img/neutralC/CFD-BF-207-004-N.jpg","img/neutralC/CFD-BF-027-002-N.jpg","1","1","1","1","1","1","0.369013600022299","0.41043470002478","0.397536600008607","1","1","1","1","1","1","1","1","1"
"250018","img/neutralC/CFD-BF-027-002-N.jpg","img/neutralC/CFD-WM-034-030-N.jpg","img/neutralC/CFD-IF-729-393-N.jpg","1","1","1","1","1","0","0.397536600008607","0.369013600022299","0.362632200005464","1","1","1","1","1","1","1","1","1"
"250018","img/neutralC/CFD-IF-729-393-N.jpg","img/neutralC/CFD-BF-027-002-N.jpg","img/neutralC/CFD-BM-207-024-N.jpg","1","1","1","0","1","1","0.362632200005464","0.397536600008607","0.331193299993174","1","1","1","1","1","1","1","1","1"
"250018","img/neutralC/CFD-BM-207-024-N.jpg","img/neutralC/CFD-IF-729-393-N.jpg","img/neutralC/CFD-BF-044-034-N.jpg","1","1","1","1","0","0","0.331193299993174","0.362632200005464","0.461795099981828","1","1","1","1","1","1","1","1","1"
"250018","img/neutralC/CFD-BF-044-034-N.jpg","img/neutralC/CFD-BM-207-024-N.jpg","img/neutralC/CFD-LF-204-133-N.jpg","1","1","1","0","1","1","0.461795099981828","0.331193299993174","0.357637899986003","1","1","1","1","1","1","1","1","1"
"250018","img/neutralC/CFD-LF-204-133-N.jpg","img/neutralC/CFD-BF-044-034-N.jpg","img/neutralC/CFD-BM-238-242-N.jpg","1","1","0","1","0","0","0.357637899986003","0.461795099981828","0.366131099988706","1","1","1","1","1","1","1","1","1"
"250018","img/neutralC/CFD-BM-238-242-N.jpg","img/neutralC/CFD-LF-204-133-N.jpg","img/neutralC/CFD-MF-301-024-N.jpg","0","1","1","0","1","0","0.366131099988706","0.357637899986003","0.472999000019627","1","1","1","1","1","1","1","1","1"
"250018","img/neutralC/CFD-MF-301-024-N.jpg","img/neutralC/CFD-BM-238-242-N.jpg",NA,"1","0",NA,"0","0",NA,"0.472999000019627","0.366131099988706",NA,"1","1",NA,"1","1",NA,"1","1",NA
"250018","img/neutralC/CFD-WF-006-002-N.jpg",NA,"img/neutralC/CFD-AF-210-050-N.jpg","1",NA,"1","0",NA,"1","0.622759700025199",NA,"0.508168700005626","1",NA,"1","1",NA,"1","1",NA,"1"
"250018","img/neutralC/CFD-AF-210-050-N.jpg","img/neutralC/CFD-WF-006-002-N.jpg","img/neutralC/CFD-LF-208-127-N.jpg","1","1","1","1","0","0","0.508168700005626","0.622759700025199","0.500352699978976","1","1","1","1","1","1","1","1","1"
"250018","img/neutralC/CFD-LF-208-127-N.jpg","img/neutralC/CFD-AF-210-050-N.jpg","img/neutralC/CFD-AM-221-184-N.jpg","1","1","1","0","1","1","0.500352699978976","0.508168700005626","0.374371700017946","1","1","1","1","1","1","1","1","1"
"250018","img/neutralC/CFD-AM-221-184-N.jpg","img/neutralC/CFD-LF-208-127-N.jpg","img/neutralC/CFD-WM-202-107-N.jpg","1","1","1","1","0","1","0.374371700017946","0.500352699978976","0.336019699985627","1","1","1","1","1","1","1","1","1"
"250018","img/neutralC/CFD-WM-202-107-N.jpg","img/neutralC/CFD-AM-221-184-N.jpg","img/neutralC/CFD-LM-238-129-N.jpg","1","1","1","1","1","1","0.336019699985627","0.374371700017946","0.483671099995263","1","1","1","1","1","1","1","1","1"
"250018","img/neutralC/CFD-LM-238-129-N.jpg","img/neutralC/CFD-WM-202-107-N.jpg","img/neutralC/CFD-IF-744-114-N.jpg","1","1","0","1","1","0","0.483671099995263","0.336019699985627","0.380176200007554","1","1","1","1","1","1","1","1","1"
"250018","img/neutralC/CFD-IF-744-114-N.jpg","img/neutralC/CFD-LM-238-129-N.jpg","img/neutralC/CFD-BM-028-002-N.jpg","0","1","1","0","1","1","0.380176200007554","0.483671099995263","0.425879900023574","1","1","1","1","1","1","1","1","1"
"250018","img/neutralC/CFD-BM-028-002-N.jpg","img/neutralC/CFD-IF-744-114-N.jpg","img/neutralC/CFD-IF-625-225-N.jpg","1","0","1","1","0","0","0.425879900023574","0.380176200007554","0.388512500008801","1","1","1","1","1","1","1","1","1"
"250018","img/neutralC/CFD-IF-625-225-N.jpg","img/neutralC/CFD-BM-028-002-N.jpg","img/neutralC/CFD-LM-247-095-N.jpg","1","1","1","0","1","0","0.388512500008801","0.425879900023574","0.443304799991893","1","1","1","1","1","1","1","1","1"
"250018","img/neutralC/CFD-LM-247-095-N.jpg","img/neutralC/CFD-IF-625-225-N.jpg","img/neutralC/CFD-AF-239-171-N.jpg","1","1","1","0","0","1","0.443304799991893","0.388512500008801","0.472933000011835","1","1","1","1","1","1","1","1","1"
"250018","img/neutralC/CFD-AF-239-171-N.jpg","img/neutralC/CFD-LM-247-095-N.jpg","img/neutralC/CFD-IM-659-359-N.jpg","1","1","1","1","0","0","0.472933000011835","0.443304799991893","0.52003899999545","1","1","1","1","1","1","1","1","1"
"250018","img/neutralC/CFD-IM-659-359-N.jpg","img/neutralC/CFD-AF-239-171-N.jpg","img/neutralC/CFD-BF-004-014-N.jpg","1","1","1","0","1","1","0.52003899999545","0.472933000011835","0.389459300000453","1","1","1","1","1","1","1","1","1"
"250018","img/neutralC/CFD-BF-004-014-N.jpg","img/neutralC/CFD-IM-659-359-N.jpg","img/neutralC/CFD-WF-223-133-N.jpg","1","1","1","1","0","0","0.389459300000453","0.52003899999545","0.429829300002893","1","1","1","1","1","1","1","1","1"
"250018","img/neutralC/CFD-WF-223-133-N.jpg","img/neutralC/CFD-BF-004-014-N.jpg","img/neutralC/CFD-LF-210-220-N.jpg","1","1","1","0","1","1","0.429829300002893","0.389459300000453","0.419867399992654","1","1","1","1","1","1","1","1","1"
"250018","img/neutralC/CFD-LF-210-220-N.jpg","img/neutralC/CFD-WF-223-133-N.jpg","img/neutralC/CFD-WM-228-065-N.jpg","1","1","1","1","0","0","0.419867399992654","0.429829300002893","0.648040600004606","1","1","1","1","1","1","1","1","1"
"250018","img/neutralC/CFD-WM-228-065-N.jpg","img/neutralC/CFD-LF-210-220-N.jpg","img/neutralC/CFD-BM-003-003-N.jpg","1","1","1","0","1","0","0.648040600004606","0.419867399992654","0.535193599993363","1","1","1","1","1","1","1","1","1"
"250018","img/neutralC/CFD-BM-003-003-N.jpg","img/neutralC/CFD-WM-228-065-N.jpg","img/neutralC/CFD-LF-225-164-N.jpg","1","1","1","0","0","1","0.535193599993363","0.648040600004606","0.421684499975527","1","1","1","1","1","1","1","1","1"
"250018","img/neutralC/CFD-LF-225-164-N.jpg","img/neutralC/CFD-BM-003-003-N.jpg","img/neutralC/CFD-WM-254-152-N.jpg","1","1","1","1","0","1","0.421684499975527","0.535193599993363","0.325034800014691","1","1","1","1","1","1","1","1","1"
"250018","img/neutralC/CFD-WM-254-152-N.jpg","img/neutralC/CFD-LF-225-164-N.jpg","img/neutralC/CFD-BF-222-240-N.jpg","1","1","1","1","1","0","0.325034800014691","0.421684499975527","0.456348700012313","1","1","1","1","1","1","1","1","1"
"250018","img/neutralC/CFD-BF-222-240-N.jpg","img/neutralC/CFD-WM-254-152-N.jpg","img/neutralC/CFD-WF-033-002-N.jpg","1","1","1","0","1","1","0.456348700012313","0.325034800014691","0.50886050000554","1","1","1","1","1","1","1","1","1"
"250018","img/neutralC/CFD-WF-033-002-N.jpg","img/neutralC/CFD-BF-222-240-N.jpg","img/neutralC/CFD-BM-010-003-N.jpg","1","1","1","1","0","0","0.50886050000554","0.456348700012313","0.4592074000102","1","1","1","1","1","1","1","1","1"
"250018","img/neutralC/CFD-BM-010-003-N.jpg","img/neutralC/CFD-WF-033-002-N.jpg","img/neutralC/CFD-MF-312-002-N.jpg","1","1","1","0","1","1","0.4592074000102","0.50886050000554","0.401067300001159","1","1","1","1","1","1","1","1","1"
"250018","img/neutralC/CFD-MF-312-002-N.jpg","img/neutralC/CFD-BM-010-003-N.jpg","img/neutralC/CFD-BF-045-003-N.jpg","1","1","1","1","0","0","0.401067300001159","0.4592074000102","0.442861299990909","1","1","1","1","1","1","1","1","1"
"250018","img/neutralC/CFD-BF-045-003-N.jpg","img/neutralC/CFD-MF-312-002-N.jpg","img/neutralC/CFD-IF-673-389-N.jpg","1","1","1","0","1","0","0.442861299990909","0.401067300001159","0.491978700010804","1","1","1","1","1","1","1","1","1"
"250018","img/neutralC/CFD-IF-673-389-N.jpg","img/neutralC/CFD-BF-045-003-N.jpg","img/neutralC/CFD-BM-213-134-N.jpg","1","1","1","0","0","1","0.491978700010804","0.442861299990909","0.399132200021995","1","1","1","1","1","1","1","1","1"
"250018","img/neutralC/CFD-BM-213-134-N.jpg","img/neutralC/CFD-IF-673-389-N.jpg","img/neutralC/CFD-IM-738-191-N.jpg","1","1","1","1","0","0","0.399132200021995","0.491978700010804","0.586583299998892","1","1","1","1","1","1","1","1","1"
"250018","img/neutralC/CFD-IM-738-191-N.jpg","img/neutralC/CFD-BM-213-134-N.jpg","img/neutralC/CFD-LF-241-188-N.jpg","1","1","1","0","1","0","0.586583299998892","0.399132200021995","0.501699000014924","1","1","1","1","1","1","1","1","1"
"250018","img/neutralC/CFD-LF-241-188-N.jpg","img/neutralC/CFD-IM-738-191-N.jpg","img/neutralC/CFD-IM-701-312-N.jpg","1","1","1","0","0","0","0.501699000014924","0.586583299998892","0.503890199994203","1","1","1","1","1","1","1","1","1"
"250018","img/neutralC/CFD-IM-701-312-N.jpg","img/neutralC/CFD-LF-241-188-N.jpg","img/neutralC/CFD-MF-336-016-N.jpg","1","1","1","0","0","1","0.503890199994203","0.501699000014924","0.410294300003443","1","1","1","1","1","1","1","1","1"
"250018","img/neutralC/CFD-MF-336-016-N.jpg","img/neutralC/CFD-IM-701-312-N.jpg","img/neutralC/CFD-AF-227-207-N.jpg","1","1","1","1","0","1","0.410294300003443","0.503890199994203","0.45222089998424","1","1","1","1","1","1","1","1","1"
"250018","img/neutralC/CFD-AF-227-207-N.jpg","img/neutralC/CFD-MF-336-016-N.jpg","img/neutralC/CFD-BM-013-002-N.jpg","1","1","1","1","1","1","0.45222089998424","0.410294300003443","0.419985999993514","1","1","1","1","1","1","1","1","1"
"250018","img/neutralC/CFD-BM-013-002-N.jpg","img/neutralC/CFD-AF-227-207-N.jpg",NA,"1","1",NA,"1","1",NA,"0.419985999993514","0.45222089998424",NA,"1","1",NA,"1","1",NA,"1","1",NA
"250018","img/neutralC/CFD-WF-250-167-N.jpg",NA,"img/neutralC/CFD-BM-033-003-N.jpg","1",NA,"1","1",NA,"0","0.515781000023708",NA,"0.535302400006913","1",NA,"1","1",NA,"1","1",NA,"1"
"250018","img/neutralC/CFD-BM-033-003-N.jpg","img/neutralC/CFD-WF-250-167-N.jpg","img/neutralC/CFD-AM-201-076-N.jpg","1","1","1","0","1","1","0.535302400006913","0.515781000023708","0.42073270000401","1","1","1","1","1","1","1","1","1"
"250018","img/neutralC/CFD-AM-201-076-N.jpg","img/neutralC/CFD-BM-033-003-N.jpg","img/neutralC/CFD-LM-218-183-N.jpg","1","1","1","1","0","1","0.42073270000401","0.535302400006913","0.366566400014562","1","1","1","1","1","1","1","1","1"
"250018","img/neutralC/CFD-LM-218-183-N.jpg","img/neutralC/CFD-AM-201-076-N.jpg","img/neutralC/CFD-IF-710-016-N.jpg","1","1","1","1","1","0","0.366566400014562","0.42073270000401","0.430860899999971","1","1","1","1","1","1","1","1","1"
"250018","img/neutralC/CFD-IF-710-016-N.jpg","img/neutralC/CFD-LM-218-183-N.jpg","img/neutralC/CFD-AF-231-357-N.jpg","1","1","1","0","1","1","0.430860899999971","0.366566400014562","0.39511680000578","1","1","1","1","1","1","1","1","1"
"250018","img/neutralC/CFD-AF-231-357-N.jpg","img/neutralC/CFD-IF-710-016-N.jpg","img/neutralC/CFD-BF-205-141-N.jpg","1","1","1","1","0","0","0.39511680000578","0.430860899999971","0.575603200006299","1","1","1","1","1","1","1","1","1"
"250018","img/neutralC/CFD-BF-205-141-N.jpg","img/neutralC/CFD-AF-231-357-N.jpg","img/neutralC/CFD-BM-019-002-N.jpg","1","1","1","0","1","0","0.575603200006299","0.39511680000578","0.481438000017079","1","1","1","1","1","1","1","1","1"
"250018","img/neutralC/CFD-BM-019-002-N.jpg","img/neutralC/CFD-BF-205-141-N.jpg","img/neutralC/CFD-BM-239-136-N.jpg","1","1","1","0","0","1","0.481438000017079","0.575603200006299","0.421476800023811","1","1","1","1","1","1","1","1","1"
"250018","img/neutralC/CFD-BM-239-136-N.jpg","img/neutralC/CFD-BM-019-002-N.jpg","img/neutralC/CFD-WM-021-001-N.jpg","1","1","1","1","0","1","0.421476800023811","0.481438000017079","0.38205569999991","1","1","1","1","1","1","1","1","1"
"250018","img/neutralC/CFD-WM-021-001-N.jpg","img/neutralC/CFD-BM-239-136-N.jpg","img/neutralC/CFD-BF-029-031-N.jpg","1","1","1","1","1","1","0.38205569999991","0.421476800023811","0.474858300003689","1","1","1","1","1","1","1","1","1"
"250018","img/neutralC/CFD-BF-029-031-N.jpg","img/neutralC/CFD-WM-021-001-N.jpg","img/neutralC/CFD-BF-213-188-N.jpg","1","1","1","1","1","1","0.474858300003689","0.38205569999991","0.393053900013911","1","1","1","1","1","1","1","1","1"
"250018","img/neutralC/CFD-BF-213-188-N.jpg","img/neutralC/CFD-BF-029-031-N.jpg","img/neutralC/CFD-WF-213-031-N.jpg","1","1","1","1","1","1","0.393053900013911","0.474858300003689","0.326096400007373","1","1","1","1","1","1","1","1","1"
"250018","img/neutralC/CFD-WF-213-031-N.jpg","img/neutralC/CFD-BF-213-188-N.jpg","img/neutralC/CFD-MF-337-026-N.jpg","1","1","1","1","1","1","0.326096400007373","0.393053900013911","0.439193099999102","1","1","1","1","1","1","1","1","1"
"250018","img/neutralC/CFD-MF-337-026-N.jpg","img/neutralC/CFD-WF-213-031-N.jpg","img/neutralC/CFD-AM-212-050-N.jpg","1","1","1","1","1","1","0.439193099999102","0.326096400007373","0.42900540001574","1","1","1","1","1","1","1","1","1"
"250018","img/neutralC/CFD-AM-212-050-N.jpg","img/neutralC/CFD-MF-337-026-N.jpg","img/neutralC/CFD-BF-039-031-N.jpg","1","1","1","1","1","1","0.42900540001574","0.439193099999102","0.435818400001153","1","1","1","1","1","1","1","1","1"
"250018","img/neutralC/CFD-BF-039-031-N.jpg","img/neutralC/CFD-AM-212-050-N.jpg","img/neutralC/CFD-LF-214-090-N.jpg","1","1","1","1","1","0","0.435818400001153","0.42900540001574","0.492370499996468","1","1","1","1","1","1","1","1","1"
"250018","img/neutralC/CFD-LF-214-090-N.jpg","img/neutralC/CFD-BF-039-031-N.jpg","img/neutralC/CFD-WF-224-099-N.jpg","1","1","0","0","1","0","0.492370499996468","0.435818400001153","0.408246600010898","1","1","1","1","1","1","1","1","1"
"250018","img/neutralC/CFD-WF-224-099-N.jpg","img/neutralC/CFD-LF-214-090-N.jpg","img/neutralC/CFD-LF-205-100-N.jpg","0","1","1","0","0","1","0.408246600010898","0.492370499996468","0.39626739997766","1","1","1","1","1","1","1","1","1"
"250018","img/neutralC/CFD-LF-205-100-N.jpg","img/neutralC/CFD-WF-224-099-N.jpg","img/neutralC/CFD-IF-634-382-N.jpg","1","0","1","1","0","1","0.39626739997766","0.408246600010898","0.394187300029444","1","1","1","1","1","1","1","1","1"
"250018","img/neutralC/CFD-IF-634-382-N.jpg","img/neutralC/CFD-LF-205-100-N.jpg","img/neutralC/CFD-MM-316-156-N.jpg","1","1","1","1","1","1","0.394187300029444","0.39626739997766","0.420201700006146","1","1","1","1","1","1","1","1","1"
"250018","img/neutralC/CFD-MM-316-156-N.jpg","img/neutralC/CFD-IF-634-382-N.jpg","img/neutralC/CFD-IM-684-008-N.jpg","1","1","1","1","1","1","0.420201700006146","0.394187300029444","0.485650499991607","1","1","1","1","1","1","1","1","1"
"250018","img/neutralC/CFD-IM-684-008-N.jpg","img/neutralC/CFD-MM-316-156-N.jpg","img/neutralC/CFD-IF-693-172-N.jpg","1","1","1","1","1","0","0.485650499991607","0.420201700006146","0.516941600013524","1","1","1","1","1","1","1","1","1"
"250018","img/neutralC/CFD-IF-693-172-N.jpg","img/neutralC/CFD-IM-684-008-N.jpg","img/neutralC/CFD-LF-203-066-N.jpg","1","1","1","0","1","0","0.516941600013524","0.485650499991607","0.531853099993896","1","1","1","1","1","1","1","1","1"
"250018","img/neutralC/CFD-LF-203-066-N.jpg","img/neutralC/CFD-IF-693-172-N.jpg","img/neutralC/CFD-LF-230-203-N.jpg","1","1","1","0","0","0","0.531853099993896","0.516941600013524","0.549740700022085","1","1","1","1","1","1","1","1","1"
"250018","img/neutralC/CFD-LF-230-203-N.jpg","img/neutralC/CFD-LF-203-066-N.jpg","img/neutralC/CFD-WM-011-002-N.jpg","1","1","1","0","0","0","0.549740700022085","0.531853099993896","0.469571199995698","1","1","1","1","1","1","1","1","1"
"250018","img/neutralC/CFD-WM-011-002-N.jpg","img/neutralC/CFD-LF-230-203-N.jpg","img/neutralC/CFD-LM-215-247-N.jpg","1","1","1","0","0","0","0.469571199995698","0.549740700022085","0.442577999987407","1","1","1","1","1","1","1","1","1"
"250018","img/neutralC/CFD-LM-215-247-N.jpg","img/neutralC/CFD-WM-011-002-N.jpg","img/neutralC/CFD-IM-651-308-N.jpg","1","1","1","0","0","0","0.442577999987407","0.469571199995698","0.450754699995741","1","1","1","1","1","1","1","1","1"
"250018","img/neutralC/CFD-IM-651-308-N.jpg","img/neutralC/CFD-LM-215-247-N.jpg","img/neutralC/CFD-BM-041-035-N.jpg","1","1","1","0","0","0","0.450754699995741","0.442577999987407","0.466008499992313","1","1","1","1","1","1","1","1","1"
"250018","img/neutralC/CFD-BM-041-035-N.jpg","img/neutralC/CFD-IM-651-308-N.jpg","img/neutralC/CFD-WM-041-021-N.jpg","1","1","1","0","0","0","0.466008499992313","0.450754699995741","0.78103650000412","1","1","1","1","1","1","1","1","1"
"250018","img/neutralC/CFD-WM-041-021-N.jpg","img/neutralC/CFD-BM-041-035-N.jpg","img/neutralC/CFD-LF-224-176-N.jpg","1","1","1","0","0","0","0.78103650000412","0.466008499992313","0.541059400013182","1","1","1","1","1","1","1","1","1"
"250018","img/neutralC/CFD-LF-224-176-N.jpg","img/neutralC/CFD-WM-041-021-N.jpg","img/neutralC/CFD-BF-253-202-N.jpg","1","1","1","0","0","0","0.541059400013182","0.78103650000412","0.435165500006406","1","1","1","1","1","1","1","1","1"
"250018","img/neutralC/CFD-BF-253-202-N.jpg","img/neutralC/CFD-LF-224-176-N.jpg",NA,"1","1",NA,"0","0",NA,"0.435165500006406","0.541059400013182",NA,"1","1",NA,"1","1",NA,"1","1",NA
"250018","img/neutralC/CFD-LF-245-166-N.jpg",NA,"img/neutralC/CFD-BM-231-155-N.jpg","1",NA,"1","1",NA,"1","0.553613900003256",NA,"0.459184199979063","1",NA,"1","1",NA,"1","1",NA,"1"
"250018","img/neutralC/CFD-BM-231-155-N.jpg","img/neutralC/CFD-LF-245-166-N.jpg","img/neutralC/CFD-WM-017-002-N.jpg","1","1","1","1","1","0","0.459184199979063","0.553613900003256","0.499857899994822","1","1","1","1","1","1","1","1","1"
"250018","img/neutralC/CFD-WM-017-002-N.jpg","img/neutralC/CFD-BM-231-155-N.jpg","img/neutralC/CFD-IM-617-174-N.jpg","1","1","0","0","1","0","0.499857899994822","0.459184199979063","0.459537599992473","1","1","1","1","1","1","1","1","1"
"250018","img/neutralC/CFD-IM-617-174-N.jpg","img/neutralC/CFD-WM-017-002-N.jpg","img/neutralC/CFD-LM-233-171-N.jpg","0","1","1","0","0","0","0.459537599992473","0.499857899994822","0.419670000002952","1","1","1","1","1","1","1","1","1"
"250018","img/neutralC/CFD-LM-233-171-N.jpg","img/neutralC/CFD-IM-617-174-N.jpg","img/neutralC/CFD-IM-638-250-1-N.jpg","1","0","1","0","0","1","0.419670000002952","0.459537599992473","0.367248399998061","1","1","1","1","1","1","1","1","1"
"250018","img/neutralC/CFD-IM-638-250-1-N.jpg","img/neutralC/CFD-LM-233-171-N.jpg","img/neutralC/CFD-BF-010-001-N.jpg","1","1","1","1","0","1","0.367248399998061","0.419670000002952","0.397506399982376","1","1","1","1","1","1","1","1","1"
"250018","img/neutralC/CFD-BF-010-001-N.jpg","img/neutralC/CFD-IM-638-250-1-N.jpg","img/neutralC/CFD-AF-202-122-N.jpg","1","1","1","1","1","1","0.397506399982376","0.367248399998061","0.391607200028375","1","1","1","1","1","1","1","1","1"
"250018","img/neutralC/CFD-AF-202-122-N.jpg","img/neutralC/CFD-BF-010-001-N.jpg","img/neutralC/CFD-IM-727-195-N.jpg","1","1","1","1","1","1","0.391607200028375","0.397506399982376","0.388471000012942","1","1","1","1","1","1","1","1","1"
"250018","img/neutralC/CFD-IM-727-195-N.jpg","img/neutralC/CFD-AF-202-122-N.jpg","img/neutralC/CFD-WF-209-052-N.jpg","1","1","1","1","1","1","0.388471000012942","0.391607200028375","0.409745300014038","1","1","1","1","1","1","1","1","1"
"250018","img/neutralC/CFD-WF-209-052-N.jpg","img/neutralC/CFD-IM-727-195-N.jpg","img/neutralC/CFD-LM-219-295-N.jpg","1","1","1","1","1","1","0.409745300014038","0.388471000012942","0.398204800003441","1","1","1","1","1","1","1","1","1"
"250018","img/neutralC/CFD-LM-219-295-N.jpg","img/neutralC/CFD-WF-209-052-N.jpg","img/neutralC/CFD-BM-212-117-N.jpg","1","1","1","1","1","0","0.398204800003441","0.409745300014038","0.483752700005425","1","1","1","1","1","1","1","1","1"
"250018","img/neutralC/CFD-BM-212-117-N.jpg","img/neutralC/CFD-LM-219-295-N.jpg","img/neutralC/CFD-IM-653-008-N.jpg","1","1","1","0","1","0","0.483752700005425","0.398204800003441","0.462374199996702","1","1","1","1","1","1","1","1","1"
"250018","img/neutralC/CFD-IM-653-008-N.jpg","img/neutralC/CFD-BM-212-117-N.jpg","img/neutralC/CFD-BM-018-001-N.jpg","1","1","1","0","0","1","0.462374199996702","0.483752700005425","0.377114500006428","1","1","1","1","1","1","1","1","1"
"250018","img/neutralC/CFD-BM-018-001-N.jpg","img/neutralC/CFD-IM-653-008-N.jpg","img/neutralC/CFD-IF-665-015-N.jpg","1","1","1","1","0","0","0.377114500006428","0.462374199996702","0.405764199997066","1","1","1","1","1","1","1","1","1"
"250018","img/neutralC/CFD-IF-665-015-N.jpg","img/neutralC/CFD-BM-018-001-N.jpg","img/neutralC/CFD-IF-620-218-N.jpg","1","1","1","0","1","0","0.405764199997066","0.377114500006428","0.40323470000294","1","1","1","1","1","1","1","1","1"
"250018","img/neutralC/CFD-IF-620-218-N.jpg","img/neutralC/CFD-IF-665-015-N.jpg","img/neutralC/CFD-BM-005-003-N.jpg","1","1","1","0","0","1","0.40323470000294","0.405764199997066","0.434565900010057","1","1","1","1","1","1","1","1","1"
"250018","img/neutralC/CFD-BM-005-003-N.jpg","img/neutralC/CFD-IF-620-218-N.jpg","img/neutralC/CFD-MF-313-002-N.jpg","1","1","1","1","0","0","0.434565900010057","0.40323470000294","0.492610199988121","1","1","1","1","1","1","1","1","1"
"250018","img/neutralC/CFD-MF-313-002-N.jpg","img/neutralC/CFD-BM-005-003-N.jpg","img/neutralC/CFD-AF-206-079-N.jpg","1","1","1","0","1","1","0.492610199988121","0.434565900010057","0.439438899978995","1","1","1","1","1","1","1","1","1"
"250018","img/neutralC/CFD-AF-206-079-N.jpg","img/neutralC/CFD-MF-313-002-N.jpg","img/neutralC/CFD-IM-686-097-N.jpg","1","1","1","1","0","0","0.439438899978995","0.492610199988121","0.484403000009479","1","1","1","1","1","1","1","1","1"
"250018","img/neutralC/CFD-IM-686-097-N.jpg","img/neutralC/CFD-AF-206-079-N.jpg","img/neutralC/CFD-LF-247-051-N.jpg","1","1","1","0","1","1","0.484403000009479","0.439438899978995","0.430229599995073","1","1","1","1","1","1","1","1","1"
"250018","img/neutralC/CFD-LF-247-051-N.jpg","img/neutralC/CFD-IM-686-097-N.jpg","img/neutralC/CFD-WM-227-099-N.jpg","1","1","1","1","0","1","0.430229599995073","0.484403000009479","0.466846299997996","1","1","1","1","1","1","1","1","1"
"250018","img/neutralC/CFD-WM-227-099-N.jpg","img/neutralC/CFD-LF-247-051-N.jpg","img/neutralC/CFD-WM-242-011-N.jpg","1","1","1","1","1","0","0.466846299997996","0.430229599995073","0.621439200011082","1","1","1","1","1","1","1","1","1"
"250018","img/neutralC/CFD-WM-242-011-N.jpg","img/neutralC/CFD-WM-227-099-N.jpg","img/neutralC/CFD-LM-226-175-N.jpg","1","1","1","0","1","0","0.621439200011082","0.466846299997996","0.522188700007973","1","1","1","1","1","1","1","1","1"
"250018","img/neutralC/CFD-LM-226-175-N.jpg","img/neutralC/CFD-WM-242-011-N.jpg","img/neutralC/CFD-BM-026-002-N.jpg","1","1","1","0","0","0","0.522188700007973","0.621439200011082","0.490459099994041","1","1","1","1","1","1","1","1","1"
"250018","img/neutralC/CFD-BM-026-002-N.jpg","img/neutralC/CFD-LM-226-175-N.jpg","img/neutralC/CFD-BF-238-190-N.jpg","1","1","1","0","0","1","0.490459099994041","0.522188700007973","0.432602500019129","1","1","1","1","1","1","1","1","1"
"250018","img/neutralC/CFD-BF-238-190-N.jpg","img/neutralC/CFD-BM-026-002-N.jpg","img/neutralC/CFD-LF-242-121-N.jpg","1","1","1","1","0","0","0.432602500019129","0.490459099994041","0.492981299990788","1","1","1","1","1","1","1","1","1"
"250018","img/neutralC/CFD-LF-242-121-N.jpg","img/neutralC/CFD-BF-238-190-N.jpg","img/neutralC/CFD-LF-250-169-N.jpg","1","1","1","0","1","1","0.492981299990788","0.432602500019129","0.46813779999502","1","1","1","1","1","1","1","1","1"
"250018","img/neutralC/CFD-LF-250-169-N.jpg","img/neutralC/CFD-LF-242-121-N.jpg","img/neutralC/CFD-AF-241-141-N.jpg","1","1","1","1","0","1","0.46813779999502","0.492981299990788","0.473223100008909","1","1","1","1","1","1","1","1","1"
"250018","img/neutralC/CFD-AF-241-141-N.jpg","img/neutralC/CFD-LF-250-169-N.jpg","img/neutralC/CFD-IM-657-308-N.jpg","1","1","1","1","1","0","0.473223100008909","0.46813779999502","0.542352400021628","1","1","1","1","1","1","1","1","1"
"250018","img/neutralC/CFD-IM-657-308-N.jpg","img/neutralC/CFD-AF-241-141-N.jpg","img/neutralC/CFD-BF-033-028-N.jpg","1","1","1","0","1","0","0.542352400021628","0.473223100008909","0.468389699992258","1","1","1","1","1","1","1","1","1"
"250018","img/neutralC/CFD-BF-033-028-N.jpg","img/neutralC/CFD-IM-657-308-N.jpg","img/neutralC/CFD-WM-258-125-N.jpg","1","1","0","0","0","0","0.468389699992258","0.542352400021628","0.655157700006384","1","1","1","1","1","1","1","1","1"
"250018","img/neutralC/CFD-WM-258-125-N.jpg","img/neutralC/CFD-BF-033-028-N.jpg",NA,"0","1",NA,"0","0",NA,"0.655157700006384","0.468389699992258",NA,"1","1",NA,"1","1",NA,"1","1",NA
"250018","img/neutralC/CFD-LM-217-162-N.jpg",NA,"img/neutralC/CFD-IF-608-390-N.jpg","1",NA,"1","0",NA,"1","0.56493959997897",NA,"0.451350499992259","1",NA,"1","1",NA,"1","1",NA,"1"
"250018","img/neutralC/CFD-IF-608-390-N.jpg","img/neutralC/CFD-LM-217-162-N.jpg","img/neutralC/CFD-WF-217-085-N.jpg","1","1","1","1","0","1","0.451350499992259","0.56493959997897","0.376060000009602","1","1","1","1","1","1","1","1","1"
"250018","img/neutralC/CFD-WF-217-085-N.jpg","img/neutralC/CFD-IF-608-390-N.jpg","img/neutralC/CFD-MM-304-002-N.jpg","1","1","1","1","1","1","0.376060000009602","0.451350499992259","0.366270800004713","1","1","1","1","1","1","1","1","1"
"250018","img/neutralC/CFD-MM-304-002-N.jpg","img/neutralC/CFD-WF-217-085-N.jpg","img/neutralC/CFD-MF-300-002-N.jpg","1","1","0","1","1","0","0.366270800004713","0.376060000009602","0.405516400001943","1","1","1","1","1","1","1","1","1"
"250018","img/neutralC/CFD-MF-300-002-N.jpg","img/neutralC/CFD-MM-304-002-N.jpg","img/neutralC/CFD-AF-215-70-N.jpg","0","1","1","0","1","0","0.405516400001943","0.366270800004713","0.546859599999152","1","1","1","1","1","1","1","1","1"
"250018","img/neutralC/CFD-AF-215-70-N.jpg","img/neutralC/CFD-MF-300-002-N.jpg","img/neutralC/CFD-WF-248-129-N.jpg","1","0","1","0","0","0","0.546859599999152","0.405516400001943","0.49786609999137","1","1","1","1","1","1","1","1","1"
"250018","img/neutralC/CFD-WF-248-129-N.jpg","img/neutralC/CFD-AF-215-70-N.jpg","img/neutralC/CFD-WM-213-076-N.jpg","1","1","1","0","0","1","0.49786609999137","0.546859599999152","0.362817199988058","1","1","1","1","1","1","1","1","1"
"250018","img/neutralC/CFD-WM-213-076-N.jpg","img/neutralC/CFD-WF-248-129-N.jpg","img/neutralC/CFD-MF-340-026-N.jpg","1","1","1","1","0","1","0.362817199988058","0.49786609999137","0.378316700021969","1","1","1","1","1","1","1","1","1"
"250018","img/neutralC/CFD-MF-340-026-N.jpg","img/neutralC/CFD-WM-213-076-N.jpg","img/neutralC/CFD-IF-619-197-N.jpg","1","1","1","1","1","0","0.378316700021969","0.362817199988058","0.42549880000297","1","1","1","1","1","1","1","1","1"
"250018","img/neutralC/CFD-IF-619-197-N.jpg","img/neutralC/CFD-MF-340-026-N.jpg","img/neutralC/CFD-IM-637-007-N.jpg","1","1","1","0","1","0","0.42549880000297","0.378316700021969","0.501818100019591","1","1","1","1","1","1","1","1","1"
"250018","img/neutralC/CFD-IM-637-007-N.jpg","img/neutralC/CFD-IF-619-197-N.jpg","img/neutralC/CFD-MF-327-002-N.jpg","1","1","1","0","0","0","0.501818100019591","0.42549880000297","0.582208100007847","1","1","1","1","1","1","1","1","1"
"250018","img/neutralC/CFD-MF-327-002-N.jpg","img/neutralC/CFD-IM-637-007-N.jpg","img/neutralC/CFD-BF-224-002-N.jpg","1","1","1","0","0","1","0.582208100007847","0.501818100019591","0.351355000020703","1","1","1","1","1","1","1","1","1"
"250018","img/neutralC/CFD-BF-224-002-N.jpg","img/neutralC/CFD-MF-327-002-N.jpg","img/neutralC/CFD-IM-604-014-N.jpg","1","1","1","1","0","0","0.351355000020703","0.582208100007847","0.554047799989348","1","1","1","1","1","1","1","1","1"
"250018","img/neutralC/CFD-IM-604-014-N.jpg","img/neutralC/CFD-BF-224-002-N.jpg","img/neutralC/CFD-BF-051-035-N.jpg","1","1","1","0","1","0","0.554047799989348","0.351355000020703","0.416516199999023","1","1","1","1","1","1","1","1","1"
"250018","img/neutralC/CFD-BF-051-035-N.jpg","img/neutralC/CFD-IM-604-014-N.jpg","img/neutralC/CFD-BM-243-218-N.jpg","1","1","1","0","0","1","0.416516199999023","0.554047799989348","0.386634399998002","1","1","1","1","1","1","1","1","1"
"250018","img/neutralC/CFD-BM-243-218-N.jpg","img/neutralC/CFD-BF-051-035-N.jpg","img/neutralC/CFD-IM-675-015-N.jpg","1","1","1","1","0","1","0.386634399998002","0.416516199999023","0.39338619998307","1","1","1","1","1","1","1","1","1"
"250018","img/neutralC/CFD-IM-675-015-N.jpg","img/neutralC/CFD-BM-243-218-N.jpg","img/neutralC/CFD-WF-212-050-N.jpg","1","1","1","1","1","0","0.39338619998307","0.386634399998002","0.475867400004063","1","1","1","1","1","1","1","1","1"
"250018","img/neutralC/CFD-WF-212-050-N.jpg","img/neutralC/CFD-IM-675-015-N.jpg","img/neutralC/CFD-WM-024-015-N.jpg","1","1","1","0","1","1","0.475867400004063","0.39338619998307","0.610383299994282","1","1","1","1","1","1","1","1","1"
"250018","img/neutralC/CFD-WM-024-015-N.jpg","img/neutralC/CFD-WF-212-050-N.jpg","img/neutralC/CFD-LF-226-174-N.jpg","1","1","0","1","0","0","0.610383299994282","0.475867400004063","0.45810829999391","1","1","1","1","1","1","1","1","1"
"250018","img/neutralC/CFD-LF-226-174-N.jpg","img/neutralC/CFD-WM-024-015-N.jpg","img/neutralC/CFD-AF-229-160-N.jpg","0","1","1","0","1","0","0.45810829999391","0.610383299994282","0.474862799979746","1","1","1","1","1","1","1","1","1"
"250018","img/neutralC/CFD-AF-229-160-N.jpg","img/neutralC/CFD-LF-226-174-N.jpg","img/neutralC/CFD-WM-232-070-N.jpg","1","0","1","0","0","0","0.474862799979746","0.45810829999391","0.450835600000573","1","1","1","1","1","1","1","1","1"
"250018","img/neutralC/CFD-WM-232-070-N.jpg","img/neutralC/CFD-AF-229-160-N.jpg","img/neutralC/CFD-BF-043-003-N.jpg","1","1","1","0","0","0","0.450835600000573","0.474862799979746","0.480780800018692","1","1","1","1","1","1","1","1","1"
"250018","img/neutralC/CFD-BF-043-003-N.jpg","img/neutralC/CFD-WM-232-070-N.jpg","img/neutralC/CFD-IM-709-103-N.jpg","1","1","1","0","0","0","0.480780800018692","0.450835600000573","0.657277999998769","1","1","1","1","1","1","1","1","1"
"250018","img/neutralC/CFD-IM-709-103-N.jpg","img/neutralC/CFD-BF-043-003-N.jpg","img/neutralC/CFD-IM-685-004-N.jpg","1","1","1","0","0","1","0.657277999998769","0.480780800018692","0.384418300003745","1","1","1","1","1","1","1","1","1"
"250018","img/neutralC/CFD-IM-685-004-N.jpg","img/neutralC/CFD-IM-709-103-N.jpg","img/neutralC/CFD-WF-008-002-N.jpg","1","1","1","1","0","1","0.384418300003745","0.657277999998769","0.354419600014808","1","1","1","1","1","1","1","1","1"
"250018","img/neutralC/CFD-WF-008-002-N.jpg","img/neutralC/CFD-IM-685-004-N.jpg","img/neutralC/CFD-LF-201-035-N.jpg","1","1","1","1","1","1","0.354419600014808","0.384418300003745","0.402594799990766","1","1","1","1","1","1","1","1","1"
"250018","img/neutralC/CFD-LF-201-035-N.jpg","img/neutralC/CFD-WF-008-002-N.jpg","img/neutralC/CFD-BM-039-029-N.jpg","1","1","1","1","1","1","0.402594799990766","0.354419600014808","0.357315000001108","1","1","1","1","1","1","1","1","1"
"250018","img/neutralC/CFD-BM-039-029-N.jpg","img/neutralC/CFD-LF-201-035-N.jpg","img/neutralC/CFD-MF-329-001-N.jpg","1","1","1","1","1","0","0.357315000001108","0.402594799990766","0.491458300006343","1","1","1","1","1","1","1","1","1"
"250018","img/neutralC/CFD-MF-329-001-N.jpg","img/neutralC/CFD-BM-039-029-N.jpg","img/neutralC/CFD-AM-236-090-N.jpg","1","1","1","0","1","1","0.491458300006343","0.357315000001108","0.387878999987151","1","1","1","1","1","1","1","1","1"
"250018","img/neutralC/CFD-AM-236-090-N.jpg","img/neutralC/CFD-MF-329-001-N.jpg","img/neutralC/CFD-AF-254-167-N.jpg","1","1","1","1","0","1","0.387878999987151","0.491458300006343","0.428007200011052","1","1","1","1","1","1","1","1","1"
"250018","img/neutralC/CFD-AF-254-167-N.jpg","img/neutralC/CFD-AM-236-090-N.jpg","img/neutralC/CFD-WF-012-002-N.jpg","1","1","1","1","1","1","0.428007200011052","0.387878999987151","0.436003699986031","1","1","1","1","1","1","1","1","1"
"250018","img/neutralC/CFD-WF-012-002-N.jpg","img/neutralC/CFD-AF-254-167-N.jpg",NA,"1","1",NA,"1","1",NA,"0.436003699986031","0.428007200011052",NA,"1","1",NA,"1","1",NA,"1","1",NA
"250018","img/neutralC/CFD-IM-678-482-N.jpg",NA,"img/neutralC/CFD-MF-302-027-N.jpg","0",NA,"1","0",NA,"0","1.01534489999176",NA,"0.534450199978892","1",NA,"1","1",NA,"1","1",NA,"1"
"250018","img/neutralC/CFD-MF-302-027-N.jpg","img/neutralC/CFD-IM-678-482-N.jpg","img/neutralC/CFD-AF-250-200-N.jpg","1","0","1","0","0","1","0.534450199978892","1.01534489999176","0.419864600000437","1","1","1","1","1","1","1","1","1"
"250018","img/neutralC/CFD-AF-250-200-N.jpg","img/neutralC/CFD-MF-302-027-N.jpg","img/neutralC/CFD-WF-210-086-N.jpg","1","1","1","1","0","0","0.419864600000437","0.534450199978892","0.534624400024768","1","1","1","1","1","1","1","1","1"
"250018","img/neutralC/CFD-WF-210-086-N.jpg","img/neutralC/CFD-AF-250-200-N.jpg","img/neutralC/CFD-WF-235-121-N.jpg","1","1","1","0","1","0","0.534624400024768","0.419864600000437","0.478398799983552","1","1","1","1","1","1","1","1","1"
"250018","img/neutralC/CFD-WF-235-121-N.jpg","img/neutralC/CFD-WF-210-086-N.jpg","img/neutralC/CFD-IM-632-097-N.jpg","1","1","0","0","0","0","0.478398799983552","0.534624400024768","0.326623800006928","1","1","1","1","1","1","1","1","2"
"250018","img/neutralC/CFD-IM-632-097-N.jpg","img/neutralC/CFD-WF-235-121-N.jpg","img/neutralC/CFD-AF-246-242-N.jpg","0","1","1","0","0","0","0.326623800006928","0.478398799983552","0.433957500004908","1","1","1","1","1","1","2","1","1"
"250018","img/neutralC/CFD-AF-246-242-N.jpg","img/neutralC/CFD-IM-632-097-N.jpg","img/neutralC/CFD-BF-217-189-N.jpg","1","0","1","0","0","0","0.433957500004908","0.326623800006928","0.443281199986814","1","1","1","1","1","1","1","2","1"
"250018","img/neutralC/CFD-BF-217-189-N.jpg","img/neutralC/CFD-AF-246-242-N.jpg","img/neutralC/CFD-AM-225-102-N.jpg","1","1","1","0","0","0","0.443281199986814","0.433957500004908","0.456161399983102","1","1","1","1","1","1","1","1","1"
"250018","img/neutralC/CFD-AM-225-102-N.jpg","img/neutralC/CFD-BF-217-189-N.jpg","img/neutralC/CFD-LM-204-001-N.jpg","1","1","1","0","0","0","0.456161399983102","0.443281199986814","0.440134200005559","1","1","1","1","1","1","1","1","1"
"250018","img/neutralC/CFD-LM-204-001-N.jpg","img/neutralC/CFD-AM-225-102-N.jpg","img/neutralC/CFD-BF-040-003-N.jpg","1","1","1","0","0","1","0.440134200005559","0.456161399983102","0.402680799976224","1","1","1","1","1","1","1","1","1"
"250018","img/neutralC/CFD-BF-040-003-N.jpg","img/neutralC/CFD-LM-204-001-N.jpg","img/neutralC/CFD-MF-307-002-N.jpg","1","1","1","1","0","1","0.402680799976224","0.440134200005559","0.553097000025446","1","1","1","1","1","1","1","1","1"
"250018","img/neutralC/CFD-MF-307-002-N.jpg","img/neutralC/CFD-BF-040-003-N.jpg","img/neutralC/CFD-AF-244-168-N.jpg","1","1","1","1","1","0","0.553097000025446","0.402680799976224","0.548449299996719","1","1","1","1","1","1","1","1","1"
"250018","img/neutralC/CFD-AF-244-168-N.jpg","img/neutralC/CFD-MF-307-002-N.jpg","img/neutralC/CFD-AM-233-236-N.jpg","1","1","1","0","1","1","0.548449299996719","0.553097000025446","0.401509499992244","1","1","1","1","1","1","1","1","1"
"250018","img/neutralC/CFD-AM-233-236-N.jpg","img/neutralC/CFD-AF-244-168-N.jpg","img/neutralC/CFD-WM-253-119-N.jpg","1","1","1","1","0","1","0.401509499992244","0.548449299996719","0.415798300004099","1","1","1","1","1","1","1","1","1"
"250018","img/neutralC/CFD-WM-253-119-N.jpg","img/neutralC/CFD-AM-233-236-N.jpg","img/neutralC/CFD-IM-669-111-N.jpg","1","1","1","1","1","1","0.415798300004099","0.401509499992244","0.404989300004672","1","1","1","1","1","1","1","1","1"
"250018","img/neutralC/CFD-IM-669-111-N.jpg","img/neutralC/CFD-WM-253-119-N.jpg","img/neutralC/CFD-BF-020-002-N.jpg","1","1","1","1","1","1","0.404989300004672","0.415798300004099","0.370406100002583","1","1","1","1","1","1","1","1","1"
"250018","img/neutralC/CFD-BF-020-002-N.jpg","img/neutralC/CFD-IM-669-111-N.jpg","img/neutralC/CFD-BF-206-143-N.jpg","1","1","1","1","1","1","0.370406100002583","0.404989300004672","0.380799000005936","1","1","1","1","1","1","1","1","1"
"250018","img/neutralC/CFD-BF-206-143-N.jpg","img/neutralC/CFD-BF-020-002-N.jpg","img/neutralC/CFD-IF-636-011-N.jpg","1","1","1","1","1","1","0.380799000005936","0.370406100002583","0.35768710001139","1","1","1","1","1","1","1","1","1"
"250018","img/neutralC/CFD-IF-636-011-N.jpg","img/neutralC/CFD-BF-206-143-N.jpg","img/neutralC/CFD-LF-239-148-N.jpg","1","1","1","1","1","0","0.35768710001139","0.380799000005936","0.382196699996712","1","1","1","1","1","1","1","1","1"
"250018","img/neutralC/CFD-LF-239-148-N.jpg","img/neutralC/CFD-IF-636-011-N.jpg","img/neutralC/CFD-AF-234-208-N.jpg","1","1","1","0","1","1","0.382196699996712","0.35768710001139","0.472175700007938","1","1","1","1","1","1","1","1","1"
"250018","img/neutralC/CFD-AF-234-208-N.jpg","img/neutralC/CFD-LF-239-148-N.jpg","img/neutralC/CFD-BF-235-168-N.jpg","1","1","1","1","0","1","0.472175700007938","0.382196699996712","0.426158200018108","1","1","1","1","1","1","1","1","1"
"250018","img/neutralC/CFD-BF-235-168-N.jpg","img/neutralC/CFD-AF-234-208-N.jpg","img/neutralC/CFD-IF-732-260-N.jpg","1","1","0","1","1","0","0.426158200018108","0.472175700007938","0.373584799992386","1","1","1","1","1","1","1","1","1"
"250018","img/neutralC/CFD-IF-732-260-N.jpg","img/neutralC/CFD-BF-235-168-N.jpg","img/neutralC/CFD-BF-042-026-N.jpg","0","1","1","0","1","1","0.373584799992386","0.426158200018108","0.371889100002591","1","1","1","1","1","1","1","1","1"
"250018","img/neutralC/CFD-BF-042-026-N.jpg","img/neutralC/CFD-IF-732-260-N.jpg","img/neutralC/CFD-WM-018-002-N.jpg","1","0","1","1","0","0","0.371889100002591","0.373584799992386","0.462321600003634","1","1","1","1","1","1","1","1","1"
"250018","img/neutralC/CFD-WM-018-002-N.jpg","img/neutralC/CFD-BF-042-026-N.jpg","img/neutralC/CFD-AF-205-155-N.jpg","1","1","1","0","1","0","0.462321600003634","0.371889100002591","0.428109500004211","1","1","1","1","1","1","1","1","1"
"250018","img/neutralC/CFD-AF-205-155-N.jpg","img/neutralC/CFD-WM-018-002-N.jpg","img/neutralC/CFD-BM-004-002-N.jpg","1","1","1","0","0","0","0.428109500004211","0.462321600003634","0.425337599997874","1","1","1","1","1","1","1","1","1"
"250018","img/neutralC/CFD-BM-004-002-N.jpg","img/neutralC/CFD-AF-205-155-N.jpg","img/neutralC/CFD-IM-635-010-N.jpg","1","1","1","0","0","1","0.425337599997874","0.428109500004211","0.361762600019574","1","1","1","1","1","1","1","1","1"
"250018","img/neutralC/CFD-IM-635-010-N.jpg","img/neutralC/CFD-BM-004-002-N.jpg","img/neutralC/CFD-BM-215-155-N.jpg","1","1","1","1","0","0","0.361762600019574","0.425337599997874","0.384324500017101","1","1","1","1","1","1","1","1","1"
"250018","img/neutralC/CFD-BM-215-155-N.jpg","img/neutralC/CFD-IM-635-010-N.jpg","img/neutralC/CFD-LM-241-125-N.jpg","1","1","1","0","1","1","0.384324500017101","0.361762600019574","0.420412000006763","1","1","1","1","1","1","1","1","1"
"250018","img/neutralC/CFD-LM-241-125-N.jpg","img/neutralC/CFD-BM-215-155-N.jpg","img/neutralC/CFD-AF-213-126-N.jpg","1","1","1","1","0","1","0.420412000006763","0.384324500017101","0.439440500020282","1","1","1","1","1","1","1","1","1"
"250018","img/neutralC/CFD-AF-213-126-N.jpg","img/neutralC/CFD-LM-241-125-N.jpg","img/neutralC/CFD-AM-245-111-N.jpg","1","1","1","1","1","1","0.439440500020282","0.420412000006763","0.371791999990819","1","1","1","1","1","1","1","1","1"
"250018","img/neutralC/CFD-AM-245-111-N.jpg","img/neutralC/CFD-AF-213-126-N.jpg",NA,"1","1",NA,"1","1",NA,"0.371791999990819","0.439440500020282",NA,"1","1",NA,"1","1",NA,"1","1",NA
