"participant_id","face","surpAcc","memory_surp_responses","memory_surp_rt","keep_surp_memory_trial_based_on_rt","surp_block_num","exclude_block","number_of_surp_resp_items_used","num_blocks_excluded"
"250028","img/neutralC/CFD-WF-001-003-N.jpg","1","k","2.54518140002619",1,1,0,2,0
"250028","img/neutralC/CFD-IF-744-114-N.jpg","1","k","3.99227599997539",1,1,0,2,0
"250028","img/neutralC/CFD-WM-227-099-N.jpg","1","s","2.46828319999622",1,1,0,2,0
"250028","img/neutralC/CFD-WM-023-001-N.jpg","1","s","1.10845800000243",1,1,0,2,0
"250028","img/neutralC/CFD-MF-305-014-N.jpg","1","k","1.20921060000546",1,1,0,2,0
"250028","img/neutralC/CFD-BM-213-134-N.jpg","0","k","1.10944800003199",1,1,0,2,0
"250028","img/neutralC/CFD-BM-227-191-N.jpg","1","s","2.74599900003523",1,1,0,2,0
"250028","img/neutralC/CFD-LF-225-164-N.jpg","0","s","1.95729380002012",1,1,0,2,0
"250028","img/neutralC/CFD-AF-253-130-N.jpg","0","s","1.22883609996643",1,1,0,2,0
"250028","img/neutralC/CFD-LF-204-133-N.jpg","1","s","1.6969328999985",1,1,0,2,0
"250028","img/neutralC/CFD-LM-247-095-N.jpg","0","s","1.5005859999801",1,1,0,2,0
"250028","img/neutralC/CFD-IM-707-105-N.jpg","1","s","1.41420200001448",1,1,0,2,0
"250028","img/neutralC/CFD-AM-219-101-N.jpg","0","s","1.78365870000562",1,1,0,2,0
"250028","img/neutralC/CFD-LF-245-166-N.jpg","0","k","1.39947330002906",1,1,0,2,0
"250028","img/neutralC/CFD-WF-244-163-N.jpg","0","k","1.78004709997913",1,1,0,2,0
"250028","img/neutralC/CFD-IM-617-174-N.jpg","0","k","3.30605399998603",1,1,0,2,0
"250028","img/neutralC/CFD-WF-213-031-N.jpg","0","s","2.56564809998963",1,1,0,2,0
"250028","img/neutralC/CFD-MF-307-002-N.jpg","1","s","2.14952829998219",1,1,0,2,0
"250028","img/neutralC/CFD-MM-304-002-N.jpg","1","s","1.71957240003394",1,1,0,2,0
"250028","img/neutralC/CFD-AF-246-242-N.jpg","0","s","2.3197829000419",1,1,0,2,0
"250028","img/neutralC/CFD-WM-028-003-N.jpg","1","s","1.85406969999894",1,1,0,2,0
"250028","img/neutralC/CFD-WF-030-002-N.jpg","0","k","1.90950000000885",1,1,0,2,0
"250028","img/neutralC/CFD-MF-300-002-N.jpg","1","s","2.25165839999681",1,1,0,2,0
"250028","img/neutralC/CFD-BM-020-001-N.jpg","0","k","1.18697410001187",1,1,0,2,0
"250028","img/neutralC/CFD-IM-674-281-N.jpg","1","s","1.38303740002448",1,1,0,2,0
"250028","img/neutralC/CFD-BM-239-136-N.jpg","1","s","1.55052560003242",1,1,0,2,0
"250028","img/neutralC/CFD-IM-632-097-N.jpg","1","s","1.40174689999549",1,1,0,2,0
"250028","img/neutralC/CFD-WM-004-010-N.jpg","1","k","2.09279209998203",1,1,0,2,0
"250028","img/neutralC/CFD-IM-657-308-N.jpg","0","k","1.8671161000384",1,1,0,2,0
"250028","img/neutralC/CFD-WF-233-112-N.jpg","0","k","1.96379629999865",1,1,0,2,0
"250028","img/neutralC/CFD-IM-700-009-N.jpg","0","s","4.18179339997005",1,1,0,2,0
"250028","img/neutralC/CFD-BM-253-004-N.jpg","1","s","1.32562379998853",1,1,0,2,0
"250028","img/neutralC/CFD-WM-215-041-N.jpg","0","s","3.55808340001386",1,1,0,2,0
"250028","img/neutralC/CFD-WF-250-167-N.jpg","0","s","1.26532110001426",1,1,0,2,0
"250028","img/neutralC/CFD-WF-234-086-N.jpg","1","s","1.57711219997145",1,1,0,2,0
"250028","img/neutralC/CFD-BF-205-141-N.jpg","1","k","1.38790349999908",1,1,0,2,0
"250028","img/neutralC/CFD-AM-233-236-N.jpg","0","s","1.78587419999531",1,1,0,2,0
"250028","img/neutralC/CFD-BM-009-002-N.jpg","0","k","5.80672529997537",1,1,0,2,0
"250028","img/neutralC/CFD-WM-020-001-N.jpg","1","s","1.33902209997177",1,1,0,2,0
"250028","img/neutralC/CFD-IF-660-464-N.jpg","1","s","1.83385809999891",1,1,0,2,0
"250028","img/neutralC/CFD-WM-034-030-N.jpg","0","s","2.61796129995491",1,1,0,2,0
"250028","img/neutralC/CFD-BF-012-001-N.jpg","0","s","4.66073150001466",1,1,0,2,0
"250028","img/neutralC/CFD-IM-671-601-N.jpg","1","k","1.34736989997327",1,1,0,2,0
"250028","img/neutralC/CFD-WM-033-025-N.jpg","0","s","1.30498130002525",1,1,0,2,0
"250028","img/neutralC/CFD-WM-012-001-N.jpg","0","s","3.17420270002913",1,1,0,2,0
"250028","img/neutralC/CFD-BM-004-002-N.jpg","0","k","1.71489380003186",1,1,0,2,0
"250028","img/neutralC/CFD-BM-238-242-N.jpg","1","s","1.2425672999816",1,1,0,2,0
"250028","img/neutralC/CFD-WM-212-097-N.jpg","0","k","2.20474329998251",1,1,0,2,0
"250028","img/neutralC/CFD-BM-036-003-N.jpg","0","s","2.48580560000846",1,2,0,2,0
"250028","img/neutralC/CFD-LF-224-176-N.jpg","0","s","1.60291669995058",1,2,0,2,0
"250028","img/neutralC/CFD-WM-228-065-N.jpg","0","k","1.72015029995237",1,2,0,2,0
"250028","img/neutralC/CFD-IM-667-369-N.jpg","1","s","1.87093370000366",1,2,0,2,0
"250028","img/neutralC/CFD-WF-208-068-N.jpg","1","s","1.63214609998977",1,2,0,2,0
"250028","img/neutralC/CFD-BF-043-003-N.jpg","1","s","2.10769319999963",1,2,0,2,0
"250028","img/neutralC/CFD-IM-669-111-N.jpg","1","s","1.62706879997859",1,2,0,2,0
"250028","img/neutralC/CFD-WM-017-002-N.jpg","1","s","1.83493269997416",1,2,0,2,0
"250028","img/neutralC/CFD-IM-664-651-N.jpg","0","s","2.23893340001814",1,2,0,2,0
"250028","img/neutralC/CFD-AF-250-200-N.jpg","0","s","1.89004690002184",1,2,0,2,0
"250028","img/neutralC/CFD-IF-634-382-N.jpg","1","s","2.10149319999619",1,2,0,2,0
"250028","img/neutralC/CFD-LM-241-125-N.jpg","1","k","1.98077449999982",1,2,0,2,0
"250028","img/neutralC/CFD-WM-015-002-N.jpg","1","s","3.30385189998196",1,2,0,2,0
"250028","img/neutralC/CFD-BM-207-024-N.jpg","1","s","1.77387219999218",1,2,0,2,0
"250028","img/neutralC/CFD-AF-239-171-N.jpg","0","s","1.73276319995057",1,2,0,2,0
"250028","img/neutralC/CFD-WF-200-099-N.jpg","1","k","2.21879339998122",1,2,0,2,0
"250028","img/neutralC/CFD-WF-240-083-N.jpg","0","s","1.70924290001858",1,2,0,2,0
"250028","img/neutralC/CFD-IF-665-015-N.jpg","0","k","2.4416465999675",1,2,0,2,0
"250028","img/neutralC/CFD-AM-211-052-N.jpg","1","s","1.65919909998775",1,2,0,2,0
"250028","img/neutralC/CFD-WM-019-003-N.jpg","0","k","2.05405269999756",1,2,0,2,0
"250028","img/neutralC/CFD-MM-319-052-N.jpg","1","s","1.19505059998482",1,2,0,2,0
"250028","img/neutralC/CFD-BM-030-003-N.jpg","1","k","2.15063679998275",1,2,0,2,0
"250028","img/neutralC/CFD-LM-213-061-N.jpg","0","s","1.61649700003909",1,2,0,2,0
"250028","img/neutralC/CFD-MF-313-002-N.jpg","1","s","2.05115720001049",1,2,0,2,0
"250028","img/neutralC/CFD-BM-026-002-N.jpg","0","s","1.74223370000254",1,2,0,2,0
"250028","img/neutralC/CFD-MM-306-010-N.jpg","0","s","2.60612499999115",1,2,0,2,0
"250028","img/neutralC/CFD-MF-321-003-N.jpg","0","k","3.99197619996266",1,2,0,2,0
"250028","img/neutralC/CFD-BM-003-003-N.jpg","1","k","5.73465270001907",1,2,0,2,0
"250028","img/neutralC/CFD-IF-672-305-N.jpg","1","s","1.54046910000034",1,2,0,2,0
"250028","img/neutralC/CFD-IM-627-178-N.jpg","0","k","1.3015018000151",1,2,0,2,0
"250028","img/neutralC/CFD-BF-051-035-N.jpg","1","k","1.23177100002067",1,2,0,2,0
"250028","img/neutralC/CFD-IM-651-308-N.jpg","1","s","1.12927809997927",1,2,0,2,0
"250028","img/neutralC/CFD-BM-217-082-N.jpg","0","k","1.05806529999245",1,2,0,2,0
"250028","img/neutralC/CFD-WF-023-003-N.jpg","1","k","1.7668484999449",1,2,0,2,0
"250028","img/neutralC/CFD-IF-718-001-N.jpg","0","k","1.17325460002758",1,2,0,2,0
"250028","img/neutralC/CFD-BF-044-034-N.jpg","0","k","3.58737139997538",1,2,0,2,0
"250028","img/neutralC/CFD-LM-237-264-N.jpg","1","k","2.51573390001431",1,2,0,2,0
"250028","img/neutralC/CFD-BM-015-015-N.jpg","1","k","1.9318603000138",1,2,0,2,0
"250028","img/neutralC/CFD-WF-033-002-N.jpg","1","s","2.00107910000952",1,2,0,2,0
"250028","img/neutralC/CFD-WM-219-008-N.jpg","0","k","2.12785170000279",1,2,0,2,0
"250028","img/neutralC/CFD-WM-009-002-N.jpg","1","s","1.69794739998179",1,2,0,2,0
"250028","img/neutralC/CFD-BM-023-029-N.jpg","1","k","1.21012130001327",1,2,0,2,0
"250028","img/neutralC/CFD-BF-218-207-N.jpg","0","k","1.97115840000333",1,2,0,2,0
"250028","img/neutralC/CFD-IF-693-172-N.jpg","0","s","1.26951459998963",1,2,0,2,0
"250028","img/neutralC/CFD-IM-689-263-N.jpg","1","k","1.0049722000258",1,2,0,2,0
"250028","img/neutralC/CFD-WM-242-011-N.jpg","1","k","3.25174169999082",1,2,0,2,0
"250028","img/neutralC/CFD-IF-710-016-N.jpg","0","s","1.90065070003038",1,2,0,2,0
"250028","img/neutralC/CFD-WM-248-036-N.jpg","0","k","2.1266072000144",1,2,0,2,0
"250028","img/neutralC/CFD-IM-659-359-N.jpg","1","k","1.31523439998273",1,3,0,2,0
"250028","img/neutralC/CFD-BF-045-003-N.jpg","0","s","1.52514739998151",1,3,0,2,0
"250028","img/neutralC/CFD-WF-036-023-N.jpg","1","s","1.52483329997631",1,3,0,2,0
"250028","img/neutralC/CFD-BF-238-190-N.jpg","0","k","1.52366760000587",1,3,0,2,0
"250028","img/neutralC/CFD-LF-241-188-N.jpg","1","s","2.32948539999779",1,3,0,2,0
"250028","img/neutralC/CFD-IM-680-369-N.jpg","1","k","2.54654070001561",1,3,0,2,0
"250028","img/neutralC/CFD-BM-005-003-N.jpg","1","s","3.00554030004423",1,3,0,2,0
"250028","img/neutralC/CFD-IF-673-389-N.jpg","1","k","2.08285499998601",1,3,0,2,0
"250028","img/neutralC/CFD-WM-254-152-N.jpg","0","s","1.13742049998837",1,3,0,2,0
"250028","img/neutralC/CFD-BM-039-029-N.jpg","0","k","2.55343490000814",1,3,0,2,0
"250028","img/neutralC/CFD-BM-251-013-N.jpg","1","k","1.95195249997778",1,3,0,2,0
"250028","img/neutralC/CFD-WM-255-219-N.jpg","1","s","1.45024310000008",1,3,0,2,0
"250028","img/neutralC/CFD-BF-208-266-N.jpg","1","s","1.9172927000327",1,3,0,2,0
"250028","img/neutralC/CFD-MM-321-021-N.jpg","1","k","3.53413970000111",1,3,0,2,0
"250028","img/neutralC/CFD-MM-316-156-N.jpg","1","k","1.70675359998131",1,3,0,2,0
"250028","img/neutralC/CFD-LM-217-162-N.jpg","1","k","1.19076599995606",1,3,0,2,0
"250028","img/neutralC/CFD-BF-255-140-N.jpg","1","k","1.77747939998517",1,3,0,2,0
"250028","img/neutralC/CFD-WM-014-002-N.jpg","1","k","1.44320690003224",1,3,0,2,0
"250028","img/neutralC/CFD-WM-202-107-N.jpg","0","s","2.20929940004135",1,3,0,2,0
"250028","img/neutralC/CFD-IM-639-263-N.jpg","1","s","1.83106509997742",1,3,0,2,0
"250028","img/neutralC/CFD-LF-206-078-N.jpg","0","k","2.98605720000342",1,3,0,2,0
"250028","img/neutralC/CFD-LM-204-001-N.jpg","0","k","2.69108590000542",1,3,0,2,0
"250028","img/neutralC/CFD-AM-212-050-N.jpg","0","k","1.59352460002992",1,3,0,2,0
"250028","img/neutralC/CFD-AM-251-124-N.jpg","0","k","2.83743779995712",1,3,0,2,0
"250028","img/neutralC/CFD-WF-026-002-N.jpg","0","s","1.49411749996943",1,3,0,2,0
"250028","img/neutralC/CFD-AM-242-176-N.jpg","1","s","2.05107869999483",1,3,0,2,0
"250028","img/neutralC/CFD-IF-677-452-1-N.jpg","1","s","1.87474790000124",1,3,0,2,0
"250028","img/neutralC/CFD-BF-025-002-N.jpg","0","k","1.32880399998976",1,3,0,2,0
"250028","img/neutralC/CFD-IM-701-312-N.jpg","0","k","1.41134400002193",1,3,0,2,0
"250028","img/neutralC/CFD-AF-213-126-N.jpg","0","s","3.17884139996022",1,3,0,2,0
"250028","img/neutralC/CFD-BF-033-028-N.jpg","1","k","2.29927139997017",1,3,0,2,0
"250028","img/neutralC/CFD-WM-213-076-N.jpg","0","k","6.80566899996484",1,3,0,2,0
"250028","img/neutralC/CFD-IM-738-191-N.jpg","0","s","1.36042630003067",1,3,0,2,0
"250028","img/neutralC/CFD-BF-038-037-N.jpg","1","k","2.52132409997284",1,3,0,2,0
"250028","img/neutralC/CFD-WM-209-038-N.jpg","1","k","1.7999540999881",1,3,0,2,0
"250028","img/neutralC/CFD-AF-227-207-N.jpg","1","k","1.19129909999901",1,3,0,2,0
"250028","img/neutralC/CFD-LM-216-082-N.jpg","0","s","1.59198739996646",1,3,0,2,0
"250028","img/neutralC/CFD-BF-004-014-N.jpg","0","k","1.9619216999854",1,3,0,2,0
"250028","img/neutralC/CFD-AF-244-168-N.jpg","1","s","1.89036819996545",1,3,0,2,0
"250028","img/neutralC/CFD-WM-038-003-N.jpg","0","k","3.502932399977",1,3,0,2,0
"250028","img/neutralC/CFD-LF-255-088-N.jpg","1","k","1.58813539997209",1,3,0,2,0
"250028","img/neutralC/CFD-AF-232-078-N.jpg","0","s","3.53848220000509",1,3,0,2,0
"250028","img/neutralC/CFD-BF-018-039-N.jpg","1","s","1.32338110002456",1,3,0,2,0
"250028","img/neutralC/CFD-WM-258-125-N.jpg","0","s","1.66558299999451",1,3,0,2,0
"250028","img/neutralC/CFD-BF-003-003-N.jpg","0","k","3.05251929996302",1,3,0,2,0
"250028","img/neutralC/CFD-BF-027-002-N.jpg","0","k","2.05483789998107",1,3,0,2,0
"250028","img/neutralC/CFD-WF-008-002-N.jpg","1","s","1.51928120001685",1,3,0,2,0
"250028","img/neutralC/CFD-AM-225-102-N.jpg","0","s","3.39828939997824",1,3,0,2,0
"250028","img/neutralC/CFD-LM-200-045-N.jpg","1","s","2.26188060001004",1,4,0,2,0
"250028","img/neutralC/CFD-LF-222-147-N.jpg","1","s","1.51746369997272",1,4,0,2,0
"250028","img/neutralC/CFD-WF-238-023-N.jpg","1","s","1.59611210000003",1,4,0,2,0
"250028","img/neutralC/CFD-BF-020-002-N.jpg","0","s","2.23329970001942",1,4,0,2,0
"250028","img/neutralC/CFD-BM-247-240-N.jpg","1","s","1.68518090003636",1,4,0,2,0
"250028","img/neutralC/CFD-WF-209-052-N.jpg","1","k","1.65360200003488",1,4,0,2,0
"250028","img/neutralC/CFD-AM-245-111-N.jpg","0","k","2.18707730004098",1,4,0,2,0
"250028","img/neutralC/CFD-BF-232-187-N.jpg","1","k","3.57961169996997",1,4,0,2,0
"250028","img/neutralC/CFD-AF-229-160-N.jpg","1","k","3.89670490002027",1,4,0,2,0
"250028","img/neutralC/CFD-WM-024-015-N.jpg","1","s","1.6947578000254",1,4,0,2,0
"250028","img/neutralC/CFD-WF-226-095-N.jpg","0","k","2.71807719999924",1,4,0,2,0
"250028","img/neutralC/CFD-BF-002-001-N.jpg","1","s","1.50104970001848",1,4,0,2,0
"250028","img/neutralC/CFD-BF-212-315-N.jpg","1","k","2.11813640000764",1,4,0,2,0
"250028","img/neutralC/CFD-AF-215-70-N.jpg","1","s","1.42576559999725",1,4,0,2,0
"250028","img/neutralC/CFD-BM-018-001-N.jpg","1","k","2.01096699998016",1,4,0,2,0
"250028","img/neutralC/CFD-WM-006-002-N.jpg","1","k","1.27615190000506",1,4,0,2,0
"250028","img/neutralC/CFD-BF-028-001-N.jpg","1","s","3.02616569999373",1,4,0,2,0
"250028","img/neutralC/CFD-AF-237-223-N.jpg","1","s","3.73749759997008",1,4,0,2,0
"250028","img/neutralC/CFD-LM-218-183-N.jpg","1","k","1.88981429999694",1,4,0,2,0
"250028","img/neutralC/CFD-IM-703-182-N.jpg","1","k","1.21038780000526",1,4,0,2,0
"250028","img/neutralC/CFD-LF-214-090-N.jpg","1","k","2.15397799998755",1,4,0,2,0
"250028","img/neutralC/CFD-BF-010-001-N.jpg","0","k","3.65228939999361",1,4,0,2,0
"250028","img/neutralC/CFD-MF-318-022-N.jpg","1","k","1.14062270004069",1,4,0,2,0
"250028","img/neutralC/CFD-BF-039-031-N.jpg","1","s","1.53067100001499",1,4,0,2,0
"250028","img/neutralC/CFD-BF-226-119-N.jpg","0","s","1.49677850003354",1,4,0,2,0
"250028","img/neutralC/CFD-LM-226-175-N.jpg","0","k","1.76230499998201",1,4,0,2,0
"250028","img/neutralC/CFD-AM-235-241-N.jpg","0","s","1.70998879999388",1,4,0,2,0
"250028","img/neutralC/CFD-AF-221-147-N.jpg","0","s","1.90073470002972",1,4,0,2,0
"250028","img/neutralC/CFD-MF-301-024-N.jpg","0","s","3.18517529999372",1,4,0,2,0
"250028","img/neutralC/CFD-IM-675-015-N.jpg","1","k","2.76073440001346",1,4,0,2,0
"250028","img/neutralC/CFD-WM-253-119-N.jpg","1","k","2.65215909999097",1,4,0,2,0
"250028","img/neutralC/CFD-MF-335-002-N.jpg","0","s","1.44546789996093",1,4,0,2,0
"250028","img/neutralC/CFD-WF-235-121-N.jpg","0","k","1.00589069997659",1,4,0,2,0
"250028","img/neutralC/CFD-LM-243-075-N.jpg","0","k","1.36458479997236",1,4,0,2,0
"250028","img/neutralC/CFD-WM-018-002-N.jpg","1","s","2.6258273999556",1,4,0,2,0
"250028","img/neutralC/CFD-BM-013-002-N.jpg","0","s","1.3181334999972",1,4,0,2,0
"250028","img/neutralC/CFD-WF-007-001-N.jpg","0","s","3.3243819999625",1,4,0,2,0
"250028","img/neutralC/CFD-LF-212-066-N.jpg","1","s","2.32870459998958",1,4,0,2,0
"250028","img/neutralC/CFD-IM-696-001-N.jpg","1","s","2.01020479999715",1,4,0,2,0
"250028","img/neutralC/CFD-AM-230-150-N.jpg","0","s","1.3994261000189",1,4,0,2,0
"250028","img/neutralC/CFD-LF-208-127-N.jpg","0","k","1.05426869995426",1,4,0,2,0
"250028","img/neutralC/CFD-MF-309-002-N.jpg","0","s","2.54622199997539",1,4,0,2,0
"250028","img/neutralC/CFD-LM-238-129-N.jpg","0","k","1.16452489997027",1,4,0,2,0
"250028","img/neutralC/CFD-BM-250-170-N.jpg","1","k","2.25980230001733",1,4,0,2,0
"250028","img/neutralC/CFD-AM-247-165-N.jpg","0","k","3.47685580002144",1,4,0,2,0
"250028","img/neutralC/CFD-BM-001-014-N.jpg","0","k","2.12955000001239",1,4,0,2,0
"250028","img/neutralC/CFD-WF-006-002-N.jpg","1","k","3.56447250000201",1,4,0,2,0
"250028","img/neutralC/CFD-LM-219-295-N.jpg","1","s","1.49152099998901",1,4,0,2,0
"250028","img/neutralC/CFD-BF-041-001-N.jpg","1","k","1.64348239998799",1,5,0,2,0
"250028","img/neutralC/CFD-WF-245-084-N.jpg","1","s","1.97922370000742",1,5,0,2,0
"250028","img/neutralC/CFD-AM-221-184-N.jpg","0","k","1.75610060000326",1,5,0,2,0
"250028","img/neutralC/CFD-IM-635-010-N.jpg","0","s","3.57881940004881",1,5,0,2,0
"250028","img/neutralC/CFD-BF-207-004-N.jpg","1","s","1.71711420000065",1,5,0,2,0
"250028","img/neutralC/CFD-BF-014-002-N.jpg","1","k","1.3816996999667",1,5,0,2,0
"250028","img/neutralC/CFD-IM-638-250-1-N.jpg","0","k","2.2098004000145",1,5,0,2,0
"250028","img/neutralC/CFD-IF-642-295-N.jpg","1","s","1.8563259000075",1,5,0,2,0
"250028","img/neutralC/CFD-AM-236-090-N.jpg","1","k","1.14124279998941",1,5,0,2,0
"250028","img/neutralC/CFD-BM-029-024-N.jpg","1","s","4.55456099996809",1,5,0,2,0
"250028","img/neutralC/CFD-BF-217-189-N.jpg","1","k","1.12330700003076",1,5,0,2,0
"250028","img/neutralC/CFD-WF-002-004-N.jpg","0","k","2.06460099999094",1,5,0,2,0
"250028","img/neutralC/CFD-WF-029-002-N.jpg","1","k","1.39109849999659",1,5,0,2,0
"250028","img/neutralC/CFD-WM-225-127-N.jpg","1","k","2.11210189998383",1,5,0,2,0
"250028","img/neutralC/CFD-LF-239-148-N.jpg","0","s","2.23540340003092",1,5,0,2,0
"250028","img/neutralC/CFD-WF-207-014-N.jpg","1","s","1.2390731999767",1,5,0,2,0
"250028","img/neutralC/CFD-WF-221-005-N.jpg","1","k","2.35247909999453",1,5,0,2,0
"250028","img/neutralC/CFD-AF-254-167-N.jpg","0","s","0.981182200019248",1,5,0,2,0
"250028","img/neutralC/CFD-MF-328-020-N.jpg","1","k","1.12342699995497",1,5,0,2,0
"250028","img/neutralC/CFD-WM-249-239-N.jpg","0","k","2.13563589996193",1,5,0,2,0
"250028","img/neutralC/CFD-MF-336-016-N.jpg","1","k","1.4998770999955",1,5,0,2,0
"250028","img/neutralC/CFD-WF-243-148-N.jpg","1","k","2.26534699997865",1,5,0,2,0
"250028","img/neutralC/CFD-AM-220-134-N.jpg","1","s","1.74487769999541",1,5,0,2,0
"250028","img/neutralC/CFD-BM-010-003-N.jpg","0","k","1.82272980001289",1,5,0,2,0
"250028","img/neutralC/CFD-WF-228-196-N.jpg","1","s","3.87510120001389",1,5,0,2,0
"250028","img/neutralC/CFD-WF-005-010-N.jpg","1","k","1.08210390002932",1,5,0,2,0
"250028","img/neutralC/CFD-LF-203-066-N.jpg","1","s","1.34524639998563",1,5,0,2,0
"250028","img/neutralC/CFD-LF-211-003-N.jpg","0","k","1.36843309999676",1,5,0,2,0
"250028","img/neutralC/CFD-LF-242-121-N.jpg","0","k","1.41950130002806",1,5,0,2,0
"250028","img/neutralC/CFD-BF-236-177-N.jpg","0","s","1.10502339998493",1,5,0,2,0
"250028","img/neutralC/CFD-AF-233-190-N.jpg","1","s","2.26107130001765",1,5,0,2,0
"250028","img/neutralC/CFD-IM-684-008-N.jpg","1","s","1.51499490003334",1,5,0,2,0
"250028","img/neutralC/CFD-IM-743-006-N.jpg","0","k","1.25783859996591",1,5,0,2,0
"250028","img/neutralC/CFD-MF-340-026-N.jpg","1","s","2.1645445000031",1,5,0,2,0
"250028","img/neutralC/CFD-AF-240-206-N.jpg","1","s","2.26036439999007",1,5,0,2,0
"250028","img/neutralC/CFD-IM-606-008-N.jpg","1","k","1.44369939999888",1,5,0,2,0
"250028","img/neutralC/CFD-BF-237-172-N.jpg","0","s","2.43903379997937",1,5,0,2,0
"250028","img/neutralC/CFD-LM-244-068-N.jpg","0","s","1.47860189998755",1,5,0,2,0
"250028","img/neutralC/CFD-BM-027-001-N.jpg","1","s","1.80828140000813",1,5,0,2,0
"250028","img/neutralC/CFD-BF-201-080-N.jpg","1","k","1.39665509999031",1,5,0,2,0
"250028","img/neutralC/CFD-BF-202-109-N.jpg","1","k","1.9808394999709",1,5,0,2,0
"250028","img/neutralC/CFD-LM-252-076-N.jpg","1","s","1.27571339998394",1,5,0,2,0
"250028","img/neutralC/CFD-WF-027-003-N.jpg","1","s","1.18274550000206",1,5,0,2,0
"250028","img/neutralC/CFD-WF-224-099-N.jpg","0","s","1.41004560003057",1,5,0,2,0
"250028","img/neutralC/CFD-AF-205-155-N.jpg","1","s","0.957916899991687",1,5,0,2,0
"250028","img/neutralC/CFD-WM-021-001-N.jpg","0","k","1.27003200002946",1,5,0,2,0
"250028","img/neutralC/CFD-IF-625-225-N.jpg","1","k","1.06132640002761",1,5,0,2,0
"250028","img/neutralC/CFD-WM-221-091-N.jpg","1","k","2.02560059999814",1,5,0,2,0
"250028","img/neutralC/CFD-IM-702-101-N.jpg","1","k","2.53755529999034",1,6,0,2,0
"250028","img/neutralC/CFD-LM-253-075-N.jpg","0","s","1.30778899998404",1,6,0,2,0
"250028","img/neutralC/CFD-MF-337-026-N.jpg","1","k","1.08926719997544",1,6,0,2,0
"250028","img/neutralC/CFD-IM-697-015-N.jpg","1","s","1.00189539999701",1,6,0,2,0
"250028","img/neutralC/CFD-BF-214-308-N.jpg","0","k","2.05224620003719",1,6,0,2,0
"250028","img/neutralC/CFD-LF-250-169-N.jpg","1","k","2.49421760003315",1,6,0,2,0
"250028","img/neutralC/CFD-IF-676-017-N.jpg","1","k","1.71754629997304",1,6,0,2,0
"250028","img/neutralC/CFD-MF-343-001-N.jpg","0","s","1.50026619998971",1,6,0,2,0
"250028","img/neutralC/CFD-BF-006-017-N.jpg","1","s","1.43104379996657",1,6,0,2,0
"250028","img/neutralC/CFD-WM-237-052-N.jpg","1","k","1.81293959997129",1,6,0,2,0
"250028","img/neutralC/CFD-LF-218-072-N.jpg","1","k","2.34799090004526",1,6,0,2,0
"250028","img/neutralC/CFD-LF-210-220-N.jpg","1","k","2.25989099999424",1,6,0,2,0
"250028","img/neutralC/CFD-WF-222-092-N.jpg","0","k","2.61781840003096",1,6,0,2,0
"250028","img/neutralC/CFD-AF-206-079-N.jpg","0","s","2.75532599998405",1,6,0,2,0
"250028","img/neutralC/CFD-WM-041-021-N.jpg","1","k","4.07116429996677",1,6,0,2,0
"250028","img/neutralC/CFD-IM-646-023-N.jpg","0","k","2.82220009999582",1,6,0,2,0
"250028","img/neutralC/CFD-LF-238-154-N.jpg","0","s","6.05369809997501",1,6,0,2,0
"250028","img/neutralC/CFD-IF-608-390-N.jpg","0","k","3.97719830001006",1,6,0,2,0
"250028","img/neutralC/CFD-LF-247-051-N.jpg","0","k","2.01789910002844",1,6,0,2,0
"250028","img/neutralC/CFD-LF-236-221-N.jpg","0","k","1.21228089998476",1,6,0,2,0
"250028","img/neutralC/CFD-WM-002-009-N.jpg","0","k","1.69362480001291",1,6,0,2,0
"250028","img/neutralC/CFD-WF-241-210-N.jpg","1","s","2.30813790002139",1,6,0,2,0
"250028","img/neutralC/CFD-IF-629-234-N.jpg","0","s","4.60456810001051",1,6,0,2,0
"250028","img/neutralC/CFD-IF-620-218-N.jpg","1","s","3.59899810003117",1,6,0,2,0
"250028","img/neutralC/CFD-IM-719-221-N.jpg","0","k","2.03851630003192",1,6,0,2,0
"250028","img/neutralC/CFD-LM-214-165-N.jpg","0","s","1.16446499997983",1,6,0,2,0
"250028","img/neutralC/CFD-LM-233-171-N.jpg","0","s","1.60232659999747",1,6,0,2,0
"250028","img/neutralC/CFD-LF-230-203-N.jpg","0","k","1.60502239997732",1,6,0,2,0
"250028","img/neutralC/CFD-BF-253-202-N.jpg","0","k","2.52518920000875",1,6,0,2,0
"250028","img/neutralC/CFD-BF-254-201-N.jpg","1","s","3.05960560002131",1,6,0,2,0
"250028","img/neutralC/CFD-BM-225-154-N.jpg","1","k","3.10891300003277",1,6,0,2,0
"250028","img/neutralC/CFD-IM-604-014-N.jpg","1","s","1.52838679996785",1,6,0,2,0
"250028","img/neutralC/CFD-IM-616-214-N.jpg","1","s","1.72435759997461",1,6,0,2,0
"250028","img/neutralC/CFD-IM-637-007-N.jpg","0","k","2.15925229998538",1,6,0,2,0
"250028","img/neutralC/CFD-MF-302-027-N.jpg","1","k","2.05439140001545",1,6,0,2,0
"250028","img/neutralC/CFD-BF-042-026-N.jpg","1","k","1.0934490999789",1,6,0,2,0
"250028","img/neutralC/CFD-IM-615-167-N.jpg","1","k","1.25051610002993",1,6,0,2,0
"250028","img/neutralC/CFD-LM-215-247-N.jpg","0","s","1.38982550002402",1,6,0,2,0
"250028","img/neutralC/CFD-BM-241-235-N.jpg","0","k","1.1321754999808",1,6,0,2,0
"250028","img/neutralC/CFD-BM-243-218-N.jpg","1","k","1.08764769998379",1,6,0,2,0
"250028","img/neutralC/CFD-WF-223-133-N.jpg","1","k","1.34325119998539",1,6,0,2,0
"250028","img/neutralC/CFD-WF-018-017-N.jpg","1","k","1.7170586999855",1,6,0,2,0
"250028","img/neutralC/CFD-AF-202-122-N.jpg","0","k","2.07252099999459",1,6,0,2,0
"250028","img/neutralC/CFD-BM-019-002-N.jpg","0","s","2.00465409999015",1,6,0,2,0
"250028","img/neutralC/CFD-BM-215-155-N.jpg","0","k","1.89632409997284",1,6,0,2,0
"250028","img/neutralC/CFD-BF-222-240-N.jpg","1","k","1.38198179996107",1,6,0,2,0
"250028","img/neutralC/CFD-AM-244-222-N.jpg","0","k","2.03239680000115",1,6,0,2,0
"250028","img/neutralC/CFD-BM-021-021-N.jpg","0","s","1.7770588999847",1,6,0,2,0
"250028","img/neutralC/CFD-LM-225-130-N.jpg","0","k","1.20858109998517",1,7,0,2,0
"250028","img/neutralC/CFD-AM-249-163-N.jpg","1","k","2.15846020000754",1,7,0,2,0
"250028","img/neutralC/CFD-WF-248-129-N.jpg","1","k","2.10943690000568",1,7,0,2,0
"250028","img/neutralC/CFD-IM-648-337-N.jpg","1","k","1.13676259998465",1,7,0,2,0
"250028","img/neutralC/CFD-WF-214-122-N.jpg","1","s","2.47873210004764",1,7,0,2,0
"250028","img/neutralC/CFD-MF-327-002-N.jpg","1","k","3.10924879997037",1,7,0,2,0
"250028","img/neutralC/CFD-IF-729-393-N.jpg","1","s","1.53371759998845",1,7,0,2,0
"250028","img/neutralC/CFD-IF-650-315-N.jpg","1","k","1.42206149996491",1,7,0,2,0
"250028","img/neutralC/CFD-BF-029-031-N.jpg","1","s","1.4049723999924",1,7,0,2,0
"250028","img/neutralC/CFD-LF-205-100-N.jpg","1","s","1.5591526000062",1,7,0,2,0
"250028","img/neutralC/CFD-MF-329-001-N.jpg","0","s","1.25566279998748",1,7,0,2,0
"250028","img/neutralC/CFD-WM-257-161-N.jpg","0","s","6.15463940001791",1,7,0,2,0
"250028","img/neutralC/CFD-BM-212-117-N.jpg","0","s","1.27938919997541",1,7,0,2,0
"250028","img/neutralC/CFD-BM-033-003-N.jpg","1","k","1.64786029997049",1,7,0,2,0
"250028","img/neutralC/CFD-WF-012-002-N.jpg","0","s","1.69751609995728",1,7,0,2,0
"250028","img/neutralC/CFD-IM-685-004-N.jpg","0","s","2.35308039997471",1,7,0,2,0
"250028","img/neutralC/CFD-BM-204-003-N.jpg","0","k","1.7830915999948",1,7,0,2,0
"250028","img/neutralC/CFD-LF-220-120-N.jpg","0","s","1.39321830001427",1,7,0,2,0
"250028","img/neutralC/CFD-WM-040-022-N.jpg","0","s","1.38615310000023",1,7,0,2,0
"250028","img/neutralC/CFD-WM-025-002-N.jpg","1","k","1.7498162999982",1,7,0,2,0
"250028","img/neutralC/CFD-WF-210-086-N.jpg","0","s","3.27107860002434",1,7,0,2,0
"250028","img/neutralC/CFD-IM-709-103-N.jpg","1","k","1.71853969997028",1,7,0,2,0
"250028","img/neutralC/CFD-IM-653-008-N.jpg","1","k","3.50588750001043",1,7,0,2,0
"250028","img/neutralC/CFD-WM-232-070-N.jpg","1","k","2.55461029999424",1,7,0,2,0
"250028","img/neutralC/CFD-BF-224-002-N.jpg","1","k","2.41777100000763",1,7,0,2,0
"250028","img/neutralC/CFD-AM-201-076-N.jpg","1","s","1.83948879997479",1,7,0,2,0
"250028","img/neutralC/CFD-MF-316-001-N.jpg","1","k","1.18448019999778",1,7,0,2,0
"250028","img/neutralC/CFD-BM-248-128-N.jpg","1","k","2.63592849997804",1,7,0,2,0
"250028","img/neutralC/CFD-MF-303-013-N.jpg","1","k","6.52458690002095",1,7,0,2,0
"250028","img/neutralC/CFD-BM-211-174-N.jpg","1","s","3.2685323000187",1,7,0,2,0
"250028","img/neutralC/CFD-IM-727-195-N.jpg","1","s","2.44325529999333",1,7,0,2,0
"250028","img/neutralC/CFD-IF-732-260-N.jpg","1","k","1.84350110002561",1,7,0,2,0
"250028","img/neutralC/CFD-IM-706-002-N.jpg","1","k","3.61572030000389",1,7,0,2,0
"250028","img/neutralC/CFD-AM-205-153-N.jpg","1","k","1.59400929999538",1,7,0,2,0
"250028","img/neutralC/CFD-AF-241-141-N.jpg","1","k","2.10112830001162",1,7,0,2,0
"250028","img/neutralC/CFD-MF-357-002-N.jpg","0","k","2.03747949999524",1,7,0,2,0
"250028","img/neutralC/CFD-AM-243-212-N.jpg","0","k","2.1139841999975",1,7,0,2,0
"250028","img/neutralC/CFD-AF-210-050-N.jpg","0","s","1.91481000004569",1,7,0,2,0
"250028","img/neutralC/CFD-BM-200-046-N.jpg","0","k","2.31128489994444",1,7,0,2,0
"250028","img/neutralC/CFD-IF-742-103-N.jpg","0","s","1.50475499994354",1,7,0,2,0
"250028","img/neutralC/CFD-MF-312-002-N.jpg","0","s","4.34072620002553",1,7,0,2,0
"250028","img/neutralC/CFD-LF-226-174-N.jpg","1","k","2.699869700009",1,7,0,2,0
"250028","img/neutralC/CFD-BF-213-188-N.jpg","0","s","2.02446159999818",1,7,0,2,0
"250028","img/neutralC/CFD-BF-206-143-N.jpg","0","k","1.5681554999901",1,7,0,2,0
"250028","img/neutralC/CFD-IM-721-341-N.jpg","1","k","1.22657669999171",1,7,0,2,0
"250028","img/neutralC/CFD-WM-026-001-N.jpg","1","s","1.34266060002847",1,7,0,2,0
"250028","img/neutralC/CFD-MF-342-022-N.jpg","1","s","2.18642049998743",1,7,0,2,0
"250028","img/neutralC/CFD-WF-009-001-N.jpg","1","k","1.21664259996032",1,7,0,2,0
"250028","img/neutralC/CFD-WF-212-050-N.jpg","1","s","1.3203032000456",1,8,0,2,0
"250028","img/neutralC/CFD-LF-215-157-N.jpg","1","k","4.84783680003602",1,8,0,2,0
"250028","img/neutralC/CFD-WM-201-063-N.jpg","1","s","1.39832820004085",1,8,0,2,0
"250028","img/neutralC/CFD-BF-040-003-N.jpg","0","s","1.68296229996486",1,8,0,2,0
"250028","img/neutralC/CFD-LF-201-035-N.jpg","1","s","1.39877799997339",1,8,0,2,0
"250028","img/neutralC/CFD-IF-626-375-N.jpg","0","s","1.72656049998477",1,8,0,2,0
"250028","img/neutralC/CFD-WF-017-003-N.jpg","0","s","1.75220360001549",1,8,0,2,0
"250028","img/neutralC/CFD-IM-686-097-N.jpg","1","k","1.10475100000622",1,8,0,2,0
"250028","img/neutralC/CFD-BM-231-155-N.jpg","0","k","1.7761399000301",1,8,0,2,0
"250028","img/neutralC/CFD-IF-636-011-N.jpg","1","k","1.52997470000992",1,8,0,2,0
"250028","img/neutralC/CFD-IM-645-001-N.jpg","1","k","1.16690170002403",1,8,0,2,0
"250028","img/neutralC/CFD-MF-333-012-N.jpg","1","s","1.94566969998414",1,8,0,2,0
"250028","img/neutralC/CFD-AF-231-357-N.jpg","1","k","0.998047500033863",1,8,0,2,0
"250028","img/neutralC/CFD-BF-011-002-N.jpg","1","s","2.3846364999772",1,8,0,2,0
"250028","img/neutralC/CFD-LM-201-057-N.jpg","1","k","1.89718859997811",1,8,0,2,0
"250028","img/neutralC/CFD-LM-240-013-N.jpg","1","k","2.52300970000215",1,8,0,2,0
"250028","img/neutralC/CFD-MF-359-019-N.jpg","1","k","1.26639070000965",1,8,0,2,0
"250028","img/neutralC/CFD-LM-228-188-N.jpg","0","k","3.35798610001802",1,8,0,2,0
"250028","img/neutralC/CFD-BF-244-231-N.jpg","0","k","2.13860800000839",1,8,0,2,0
"250028","img/neutralC/CFD-AM-217-085-N.jpg","1","k","2.15571540000383",1,8,0,2,0
"250028","img/neutralC/CFD-AF-234-208-N.jpg","1","k","2.37907510000514",1,8,0,2,0
"250028","img/neutralC/CFD-LF-216-121-N.jpg","1","s","1.32594090001658",1,8,0,2,0
"250028","img/neutralC/CFD-BM-043-071-N.jpg","1","s","2.18517770001199",1,8,0,2,0
"250028","img/neutralC/CFD-IF-619-197-N.jpg","1","s","1.53079709998565",1,8,0,2,0
"250028","img/neutralC/CFD-MF-352-054-N.jpg","1","s","1.56173580000177",1,8,0,2,0
"250028","img/neutralC/CFD-IM-726-248-N.jpg","0","s","1.57880600000499",1,8,0,2,0
"250028","img/neutralC/CFD-BM-028-002-N.jpg","0","k","1.81108569999924",1,8,0,2,0
"250028","img/neutralC/CFD-IM-678-482-N.jpg","1","k","1.6836115999613",1,8,0,2,0
"250028","img/neutralC/CFD-BF-229-179-N.jpg","0","s","2.53907040000195",1,8,0,2,0
"250028","img/neutralC/CFD-BF-228-212-N.jpg","0","k","1.59283639997011",1,8,0,2,0
"250028","img/neutralC/CFD-BF-036-027-N.jpg","0","k","2.74038900004234",1,8,0,2,0
"250028","img/neutralC/CFD-MM-317-061-N.jpg","1","s","2.22403250000207",1,8,0,2,0
"250028","img/neutralC/CFD-BM-041-035-N.jpg","1","s","2.69900500000222",1,8,0,2,0
"250028","img/neutralC/CFD-BF-247-179-N.jpg","1","s","1.61354009999195",1,8,0,2,0
"250028","img/neutralC/CFD-WF-022-017-N.jpg","1","s","1.84750770003302",1,8,0,2,0
"250028","img/neutralC/CFD-AM-215-120-N.jpg","0","k","1.60060370003339",1,8,0,2,0
"250028","img/neutralC/CFD-WM-011-002-N.jpg","1","k","1.53485229995567",1,8,0,2,0
"250028","img/neutralC/CFD-IM-728-041-N.jpg","1","k","0.970432600006461",1,8,0,2,0
"250028","img/neutralC/CFD-WM-218-074-N.jpg","1","s","1.54010899999412",1,8,0,2,0
"250028","img/neutralC/CFD-WM-013-001-N.jpg","0","s","2.04330329998629",1,8,0,2,0
"250028","img/neutralC/CFD-WF-217-085-N.jpg","1","s","1.37811109999893",1,8,0,2,0
"250028","img/neutralC/CFD-BF-023-010-N.jpg","1","k","1.5267866999493",1,8,0,2,0
"250028","img/neutralC/CFD-BM-205-001-N.jpg","0","k","1.29672380001284",1,8,0,2,0
"250028","img/neutralC/CFD-MM-324-069-N.jpg","1","s","1.32246880000457",1,8,0,2,0
"250028","img/neutralC/CFD-BF-235-168-N.jpg","1","s","1.35093030001735",1,8,0,2,0
"250028","img/neutralC/CFD-WM-235-147-N.jpg","1","s","1.33889830001863",1,8,0,2,0
"250028","img/neutralC/CFD-BF-204-189-N.jpg","0","k","1.96200790000148",1,8,0,2,0
"250028","img/neutralC/CFD-IF-623-129-N.jpg","1","s","1.22663130000001",1,8,0,2,0
