"participant_id","current_trial_face","pre_trial_face","post_trial_face","current_trial_accuracy","pre_trial_accuracy","post_trial_accuracy","current_trial_congruency","pre_trial_congruency","post_trial_congruency","current_trial_rt","pre_trial_rt","post_trial_rt","current_trial_responded","pre_trial_responded","post_trial_responded","current_trial_legitResponse","pre_trial_legitResponse","post_trial_legitResponse","current_trial_resp_nums","pre_trial_resp_nums","post_trial_resp_nums"
"250039","img/neutralC/CFD-WM-249-239-N.jpg",NA,"img/neutralC/CFD-WF-240-083-N.jpg","1",NA,"1","1",NA,"0","1.24491610005498",NA,"0.724493599962443","1",NA,"1","1",NA,"1","1",NA,"1"
"250039","img/neutralC/CFD-WF-240-083-N.jpg","img/neutralC/CFD-WM-249-239-N.jpg","img/neutralC/CFD-WM-212-097-N.jpg","1","1","1","0","1","0","0.724493599962443","1.24491610005498","0.74277410004288","1","1","1","1","1","1","1","1","1"
"250039","img/neutralC/CFD-WM-212-097-N.jpg","img/neutralC/CFD-WF-240-083-N.jpg","img/neutralC/CFD-WF-005-010-N.jpg","1","1","1","0","0","0","0.74277410004288","0.724493599962443","0.660840200027451","1","1","1","1","1","1","1","1","1"
"250039","img/neutralC/CFD-WF-005-010-N.jpg","img/neutralC/CFD-WM-212-097-N.jpg","img/neutralC/CFD-AM-247-165-N.jpg","1","1","1","0","0","1","0.660840200027451","0.74277410004288","0.603545000078157","1","1","1","1","1","1","1","1","1"
"250039","img/neutralC/CFD-AM-247-165-N.jpg","img/neutralC/CFD-WF-005-010-N.jpg","img/neutralC/CFD-MF-309-002-N.jpg","1","1","1","1","0","0","0.603545000078157","0.660840200027451","0.624013600172475","1","1","1","1","1","1","1","1","1"
"250039","img/neutralC/CFD-MF-309-002-N.jpg","img/neutralC/CFD-AM-247-165-N.jpg","img/neutralC/CFD-WM-026-001-N.jpg","1","1","1","0","1","1","0.624013600172475","0.603545000078157","0.553420699900016","1","1","1","1","1","1","1","1","1"
"250039","img/neutralC/CFD-WM-026-001-N.jpg","img/neutralC/CFD-MF-309-002-N.jpg","img/neutralC/CFD-LM-243-075-N.jpg","1","1","1","1","0","0","0.553420699900016","0.624013600172475","0.656414999859408","1","1","1","1","1","1","1","1","1"
"250039","img/neutralC/CFD-LM-243-075-N.jpg","img/neutralC/CFD-WM-026-001-N.jpg","img/neutralC/CFD-BF-202-109-N.jpg","1","1","1","0","1","1","0.656414999859408","0.553420699900016","0.63106880011037","1","1","1","1","1","1","1","1","1"
"250039","img/neutralC/CFD-BF-202-109-N.jpg","img/neutralC/CFD-LM-243-075-N.jpg","img/neutralC/CFD-LM-244-068-N.jpg","1","1","1","1","0","1","0.63106880011037","0.656414999859408","0.602536599850282","1","1","1","1","1","1","1","1","1"
"250039","img/neutralC/CFD-LM-244-068-N.jpg","img/neutralC/CFD-BF-202-109-N.jpg","img/neutralC/CFD-LM-214-165-N.jpg","1","1","1","1","1","1","0.602536599850282","0.63106880011037","0.629856999963522","1","1","1","1","1","1","1","1","1"
"250039","img/neutralC/CFD-LM-214-165-N.jpg","img/neutralC/CFD-LM-244-068-N.jpg","img/neutralC/CFD-BF-041-001-N.jpg","1","1","1","1","1","1","0.629856999963522","0.602536599850282","0.580312599893659","1","1","1","1","1","1","1","1","1"
"250039","img/neutralC/CFD-BF-041-001-N.jpg","img/neutralC/CFD-LM-214-165-N.jpg","img/neutralC/CFD-MF-335-002-N.jpg","1","1","1","1","1","0","0.580312599893659","0.629856999963522","0.625162800075486","1","1","1","1","1","1","1","1","1"
"250039","img/neutralC/CFD-MF-335-002-N.jpg","img/neutralC/CFD-BF-041-001-N.jpg","img/neutralC/CFD-LM-216-082-N.jpg","1","1","1","0","1","0","0.625162800075486","0.580312599893659","0.534260099986568","1","1","1","1","1","1","1","1","1"
"250039","img/neutralC/CFD-LM-216-082-N.jpg","img/neutralC/CFD-MF-335-002-N.jpg","img/neutralC/CFD-IF-642-295-N.jpg","1","1","1","0","0","1","0.534260099986568","0.625162800075486","0.655870500020683","1","1","1","1","1","1","1","1","1"
"250039","img/neutralC/CFD-IF-642-295-N.jpg","img/neutralC/CFD-LM-216-082-N.jpg","img/neutralC/CFD-WM-012-001-N.jpg","1","1","1","1","0","1","0.655870500020683","0.534260099986568","0.527442099992186","1","1","1","1","1","1","1","1","1"
"250039","img/neutralC/CFD-WM-012-001-N.jpg","img/neutralC/CFD-IF-642-295-N.jpg","img/neutralC/CFD-WM-215-041-N.jpg","1","1","1","1","1","0","0.527442099992186","0.655870500020683","0.666935499990359","1","1","1","1","1","1","1","1","1"
"250039","img/neutralC/CFD-WM-215-041-N.jpg","img/neutralC/CFD-WM-012-001-N.jpg","img/neutralC/CFD-BM-248-128-N.jpg","1","1","1","0","1","0","0.666935499990359","0.527442099992186","0.643059900030494","1","1","1","1","1","1","1","1","1"
"250039","img/neutralC/CFD-BM-248-128-N.jpg","img/neutralC/CFD-WM-215-041-N.jpg","img/neutralC/CFD-IM-648-337-N.jpg","1","1","1","0","0","0","0.643059900030494","0.666935499990359","0.75075179990381","1","1","1","1","1","1","1","1","1"
"250039","img/neutralC/CFD-IM-648-337-N.jpg","img/neutralC/CFD-BM-248-128-N.jpg","img/neutralC/CFD-WF-228-196-N.jpg","1","1","1","0","0","0","0.75075179990381","0.643059900030494","1.0036037999671","1","1","1","1","1","1","1","1","1"
"250039","img/neutralC/CFD-WF-228-196-N.jpg","img/neutralC/CFD-IM-648-337-N.jpg","img/neutralC/CFD-BF-025-002-N.jpg","1","1","1","0","0","0","1.0036037999671","0.75075179990381","0.739510799990967","1","1","1","1","1","1","1","1","1"
"250039","img/neutralC/CFD-BF-025-002-N.jpg","img/neutralC/CFD-WF-228-196-N.jpg","img/neutralC/CFD-BF-228-212-N.jpg","1","1","1","0","0","0","0.739510799990967","1.0036037999671","0.647727400064468","1","1","1","1","1","1","1","1","1"
"250039","img/neutralC/CFD-BF-228-212-N.jpg","img/neutralC/CFD-BF-025-002-N.jpg","img/neutralC/CFD-WM-006-002-N.jpg","1","1","1","0","0","0","0.647727400064468","0.739510799990967","0.774606799939647","1","1","1","1","1","1","1","1","1"
"250039","img/neutralC/CFD-WM-006-002-N.jpg","img/neutralC/CFD-BF-228-212-N.jpg","img/neutralC/CFD-LM-201-057-N.jpg","1","1","1","0","0","1","0.774606799939647","0.647727400064468","0.642208399949595","1","1","1","1","1","1","1","1","1"
"250039","img/neutralC/CFD-LM-201-057-N.jpg","img/neutralC/CFD-WM-006-002-N.jpg","img/neutralC/CFD-WM-019-003-N.jpg","1","1","1","1","0","1","0.642208399949595","0.774606799939647","0.589683500118554","1","1","1","1","1","1","1","1","1"
"250039","img/neutralC/CFD-WM-019-003-N.jpg","img/neutralC/CFD-LM-201-057-N.jpg","img/neutralC/CFD-MM-317-061-N.jpg","1","1","1","1","1","1","0.589683500118554","0.642208399949595","0.621271499898285","1","1","1","1","1","1","1","1","1"
"250039","img/neutralC/CFD-MM-317-061-N.jpg","img/neutralC/CFD-WM-019-003-N.jpg","img/neutralC/CFD-BF-212-315-N.jpg","1","1","1","1","1","1","0.621271499898285","0.589683500118554","0.56789300008677","1","1","1","1","1","1","1","1","1"
"250039","img/neutralC/CFD-BF-212-315-N.jpg","img/neutralC/CFD-MM-317-061-N.jpg","img/neutralC/CFD-AF-240-206-N.jpg","1","1","1","1","1","0","0.56789300008677","0.621271499898285","0.863064500037581","1","1","1","1","1","1","1","1","1"
"250039","img/neutralC/CFD-AF-240-206-N.jpg","img/neutralC/CFD-BF-212-315-N.jpg","img/neutralC/CFD-BM-251-013-N.jpg","1","1","1","0","1","1","0.863064500037581","0.56789300008677","0.602860799990594","1","1","1","1","1","1","1","1","1"
"250039","img/neutralC/CFD-BM-251-013-N.jpg","img/neutralC/CFD-AF-240-206-N.jpg","img/neutralC/CFD-IM-646-023-N.jpg","1","1","1","1","0","1","0.602860799990594","0.863064500037581","0.630984400166199","1","1","1","1","1","1","1","1","1"
"250039","img/neutralC/CFD-IM-646-023-N.jpg","img/neutralC/CFD-BM-251-013-N.jpg","img/neutralC/CFD-BM-205-001-N.jpg","1","1","1","1","1","0","0.630984400166199","0.602860799990594","0.960831800010055","1","1","1","1","1","1","1","1","1"
"250039","img/neutralC/CFD-BM-205-001-N.jpg","img/neutralC/CFD-IM-646-023-N.jpg","img/neutralC/CFD-WF-017-003-N.jpg","1","1","1","0","1","1","0.960831800010055","0.630984400166199","0.750700399978086","1","1","1","1","1","1","1","1","1"
"250039","img/neutralC/CFD-WF-017-003-N.jpg","img/neutralC/CFD-BM-205-001-N.jpg",NA,"1","1",NA,"1","0",NA,"0.750700399978086","0.960831800010055",NA,"1","1",NA,"1","1",NA,"1","1",NA
"250039","img/neutralC/CFD-LF-241-188-N.jpg",NA,"img/neutralC/CFD-IF-625-225-N.jpg","1",NA,"1","0",NA,"0","0.690512700006366",NA,"0.580862100003287","1",NA,"1","1",NA,"1","1",NA,"1"
"250039","img/neutralC/CFD-IF-625-225-N.jpg","img/neutralC/CFD-LF-241-188-N.jpg","img/neutralC/CFD-BF-004-014-N.jpg","1","1","1","0","0","1","0.580862100003287","0.690512700006366","0.407048000022769","1","1","1","1","1","1","1","1","1"
"250039","img/neutralC/CFD-BF-004-014-N.jpg","img/neutralC/CFD-IF-625-225-N.jpg","img/neutralC/CFD-BM-028-002-N.jpg","1","1","1","1","0","1","0.407048000022769","0.580862100003287","0.346174700185657","1","1","1","1","1","1","1","1","1"
"250039","img/neutralC/CFD-BM-028-002-N.jpg","img/neutralC/CFD-BF-004-014-N.jpg","img/neutralC/CFD-LF-225-164-N.jpg","1","1","1","1","1","1","0.346174700185657","0.407048000022769","0.461618799949065","1","1","1","1","1","1","1","1","1"
"250039","img/neutralC/CFD-LF-225-164-N.jpg","img/neutralC/CFD-BM-028-002-N.jpg","img/neutralC/CFD-WM-202-107-N.jpg","1","1","1","1","1","1","0.461618799949065","0.346174700185657","0.410568699939176","1","1","1","1","1","1","1","1","1"
"250039","img/neutralC/CFD-WM-202-107-N.jpg","img/neutralC/CFD-LF-225-164-N.jpg","img/neutralC/CFD-MF-312-002-N.jpg","1","1","1","1","1","1","0.410568699939176","0.461618799949065","0.498557800194249","1","1","1","1","1","1","1","1","1"
"250039","img/neutralC/CFD-MF-312-002-N.jpg","img/neutralC/CFD-WM-202-107-N.jpg","img/neutralC/CFD-BM-010-003-N.jpg","1","1","1","1","1","0","0.498557800194249","0.410568699939176","0.514709400013089","1","1","1","1","1","1","1","1","1"
"250039","img/neutralC/CFD-BM-010-003-N.jpg","img/neutralC/CFD-MF-312-002-N.jpg","img/neutralC/CFD-BF-045-003-N.jpg","1","1","1","0","1","0","0.514709400013089","0.498557800194249","0.492017599986866","1","1","1","1","1","1","1","1","1"
"250039","img/neutralC/CFD-BF-045-003-N.jpg","img/neutralC/CFD-BM-010-003-N.jpg","img/neutralC/CFD-AM-221-184-N.jpg","1","1","1","0","0","1","0.492017599986866","0.514709400013089","0.534476900007576","1","1","1","1","1","1","1","1","1"
"250039","img/neutralC/CFD-AM-221-184-N.jpg","img/neutralC/CFD-BF-045-003-N.jpg","img/neutralC/CFD-AF-227-207-N.jpg","1","1","1","1","0","1","0.534476900007576","0.492017599986866","0.460681499913335","1","1","1","1","1","1","1","1","1"
"250039","img/neutralC/CFD-AF-227-207-N.jpg","img/neutralC/CFD-AM-221-184-N.jpg","img/neutralC/CFD-WF-006-002-N.jpg","1","1","0","1","1","0","0.460681499913335","0.534476900007576","0.34827210009098","1","1","1","1","1","1","1","1","1"
"250039","img/neutralC/CFD-WF-006-002-N.jpg","img/neutralC/CFD-AF-227-207-N.jpg","img/neutralC/CFD-IF-744-114-N.jpg","0","1","1","0","1","0","0.34827210009098","0.460681499913335","0.514689899981022","1","1","1","1","1","1","1","1","1"
"250039","img/neutralC/CFD-IF-744-114-N.jpg","img/neutralC/CFD-WF-006-002-N.jpg","img/neutralC/CFD-BM-213-134-N.jpg","1","0","1","0","0","1","0.514689899981022","0.34827210009098","0.469912600005046","1","1","1","1","1","1","1","1","1"
"250039","img/neutralC/CFD-BM-213-134-N.jpg","img/neutralC/CFD-IF-744-114-N.jpg","img/neutralC/CFD-IM-738-191-N.jpg","1","1","1","1","0","0","0.469912600005046","0.514689899981022","0.491667000111192","1","1","1","1","1","1","1","1","1"
"250039","img/neutralC/CFD-IM-738-191-N.jpg","img/neutralC/CFD-BM-213-134-N.jpg","img/neutralC/CFD-MF-336-016-N.jpg","1","1","1","0","1","1","0.491667000111192","0.469912600005046","0.545026199892163","1","1","1","1","1","1","1","1","1"
"250039","img/neutralC/CFD-MF-336-016-N.jpg","img/neutralC/CFD-IM-738-191-N.jpg","img/neutralC/CFD-IM-701-312-N.jpg","1","1","1","1","0","0","0.545026199892163","0.491667000111192","0.522526300046593","1","1","1","1","1","1","1","1","1"
"250039","img/neutralC/CFD-IM-701-312-N.jpg","img/neutralC/CFD-MF-336-016-N.jpg","img/neutralC/CFD-LM-247-095-N.jpg","1","1","1","0","1","0","0.522526300046593","0.545026199892163","0.534554400015622","1","1","1","1","1","1","1","1","1"
"250039","img/neutralC/CFD-LM-247-095-N.jpg","img/neutralC/CFD-IM-701-312-N.jpg","img/neutralC/CFD-BM-003-003-N.jpg","1","1","1","0","0","0","0.534554400015622","0.522526300046593","0.574913199990988","1","1","1","1","1","1","1","1","1"
"250039","img/neutralC/CFD-BM-003-003-N.jpg","img/neutralC/CFD-LM-247-095-N.jpg","img/neutralC/CFD-IF-673-389-N.jpg","1","1","1","0","0","0","0.574913199990988","0.534554400015622","0.60584029997699","1","1","1","1","1","1","1","1","1"
"250039","img/neutralC/CFD-IF-673-389-N.jpg","img/neutralC/CFD-BM-003-003-N.jpg","img/neutralC/CFD-WM-228-065-N.jpg","1","1","1","0","0","0","0.60584029997699","0.574913199990988","0.593895700061694","1","1","1","1","1","1","1","1","1"
"250039","img/neutralC/CFD-WM-228-065-N.jpg","img/neutralC/CFD-IF-673-389-N.jpg","img/neutralC/CFD-LF-210-220-N.jpg","1","1","1","0","0","1","0.593895700061694","0.60584029997699","0.563311600126326","1","1","1","1","1","1","1","1","1"
"250039","img/neutralC/CFD-LF-210-220-N.jpg","img/neutralC/CFD-WM-228-065-N.jpg","img/neutralC/CFD-AF-239-171-N.jpg","1","1","1","1","0","1","0.563311600126326","0.593895700061694","0.504058900056407","1","1","1","1","1","1","1","1","1"
"250039","img/neutralC/CFD-AF-239-171-N.jpg","img/neutralC/CFD-LF-210-220-N.jpg","img/neutralC/CFD-WM-254-152-N.jpg","1","1","1","1","1","1","0.504058900056407","0.563311600126326","0.395679099950939","1","1","1","1","1","1","1","1","1"
"250039","img/neutralC/CFD-WM-254-152-N.jpg","img/neutralC/CFD-AF-239-171-N.jpg","img/neutralC/CFD-LM-238-129-N.jpg","1","1","1","1","1","1","0.395679099950939","0.504058900056407","0.407136299880221","1","1","1","1","1","1","1","1","1"
"250039","img/neutralC/CFD-LM-238-129-N.jpg","img/neutralC/CFD-WM-254-152-N.jpg","img/neutralC/CFD-IM-659-359-N.jpg","1","1","1","1","1","0","0.407136299880221","0.395679099950939","0.500112800160423","1","1","1","1","1","1","1","1","1"
"250039","img/neutralC/CFD-IM-659-359-N.jpg","img/neutralC/CFD-LM-238-129-N.jpg","img/neutralC/CFD-BF-222-240-N.jpg","1","1","1","0","1","0","0.500112800160423","0.407136299880221","0.480626299977303","1","1","1","1","1","1","1","1","1"
"250039","img/neutralC/CFD-BF-222-240-N.jpg","img/neutralC/CFD-IM-659-359-N.jpg","img/neutralC/CFD-AF-210-050-N.jpg","1","1","1","0","0","1","0.480626299977303","0.500112800160423","0.494558000005782","1","1","1","1","1","1","1","1","1"
"250039","img/neutralC/CFD-AF-210-050-N.jpg","img/neutralC/CFD-BF-222-240-N.jpg","img/neutralC/CFD-WF-223-133-N.jpg","1","1","1","1","0","0","0.494558000005782","0.480626299977303","0.605214199982584","1","1","1","1","1","1","1","1","1"
"250039","img/neutralC/CFD-WF-223-133-N.jpg","img/neutralC/CFD-AF-210-050-N.jpg","img/neutralC/CFD-WF-033-002-N.jpg","1","1","1","0","1","1","0.605214199982584","0.494558000005782","0.422416799934581","1","1","1","1","1","1","1","1","1"
"250039","img/neutralC/CFD-WF-033-002-N.jpg","img/neutralC/CFD-WF-223-133-N.jpg","img/neutralC/CFD-LF-208-127-N.jpg","1","1","1","1","0","0","0.422416799934581","0.605214199982584","0.572402000194415","1","1","1","1","1","1","1","1","1"
"250039","img/neutralC/CFD-LF-208-127-N.jpg","img/neutralC/CFD-WF-033-002-N.jpg","img/neutralC/CFD-BM-013-002-N.jpg","1","1","1","0","1","1","0.572402000194415","0.422416799934581","0.495325000025332","1","1","1","1","1","1","1","1","1"
"250039","img/neutralC/CFD-BM-013-002-N.jpg","img/neutralC/CFD-LF-208-127-N.jpg",NA,"1","1",NA,"1","0",NA,"0.495325000025332","0.572402000194415",NA,"1","1",NA,"1","1",NA,"1","1",NA
"250039","img/neutralC/CFD-BM-039-029-N.jpg",NA,"img/neutralC/CFD-WF-248-129-N.jpg","1",NA,"1","1",NA,"0","0.572820900008082",NA,"0.461242800112814","1",NA,"1","1",NA,"1","1",NA,"1"
"250039","img/neutralC/CFD-WF-248-129-N.jpg","img/neutralC/CFD-BM-039-029-N.jpg","img/neutralC/CFD-MF-300-002-N.jpg","1","1","0","0","1","0","0.461242800112814","0.572820900008082","0.386550900060683","1","1","1","1","1","1","1","1","2"
"250039","img/neutralC/CFD-MF-300-002-N.jpg","img/neutralC/CFD-WF-248-129-N.jpg","img/neutralC/CFD-WF-012-002-N.jpg","0","1","1","0","0","1","0.386550900060683","0.461242800112814","0.451174500165507","1","1","1","1","1","1","2","1","1"
"250039","img/neutralC/CFD-WF-012-002-N.jpg","img/neutralC/CFD-MF-300-002-N.jpg","img/neutralC/CFD-BF-224-002-N.jpg","1","0","0","1","0","1","0.451174500165507","0.386550900060683",NA,"1","1","0","1","1","0","1","2","0"
"250039","img/neutralC/CFD-BF-224-002-N.jpg","img/neutralC/CFD-WF-012-002-N.jpg","img/neutralC/CFD-WF-008-002-N.jpg","0","1","1","1","1","1",NA,"0.451174500165507","0.449425800004974","0","1","1","0","1","1","0","1","1"
"250039","img/neutralC/CFD-WF-008-002-N.jpg","img/neutralC/CFD-BF-224-002-N.jpg","img/neutralC/CFD-WF-212-050-N.jpg","1","0","1","1","1","0","0.449425800004974",NA,"0.47944000014104","1","0","1","1","0","1","1","0","1"
"250039","img/neutralC/CFD-WF-212-050-N.jpg","img/neutralC/CFD-WF-008-002-N.jpg","img/neutralC/CFD-IM-709-103-N.jpg","1","1","1","0","1","0","0.47944000014104","0.449425800004974","0.417102000210434","1","1","1","1","1","1","1","1","1"
"250039","img/neutralC/CFD-IM-709-103-N.jpg","img/neutralC/CFD-WF-212-050-N.jpg","img/neutralC/CFD-IM-604-014-N.jpg","1","1","1","0","0","0","0.417102000210434","0.47944000014104","0.541778499959037","1","1","1","1","1","1","1","1","1"
"250039","img/neutralC/CFD-IM-604-014-N.jpg","img/neutralC/CFD-IM-709-103-N.jpg","img/neutralC/CFD-IM-685-004-N.jpg","1","1","1","0","0","1","0.541778499959037","0.417102000210434","0.388343899976462","1","1","1","1","1","1","1","1","1"
"250039","img/neutralC/CFD-IM-685-004-N.jpg","img/neutralC/CFD-IM-604-014-N.jpg","img/neutralC/CFD-IM-637-007-N.jpg","1","1","1","1","0","0","0.388343899976462","0.541778499959037","0.55456279986538","1","1","1","1","1","1","1","1","1"
"250039","img/neutralC/CFD-IM-637-007-N.jpg","img/neutralC/CFD-IM-685-004-N.jpg","img/neutralC/CFD-IF-608-390-N.jpg","1","1","1","0","1","1","0.55456279986538","0.388343899976462","0.435249400092289","1","1","1","1","1","1","1","1","1"
"250039","img/neutralC/CFD-IF-608-390-N.jpg","img/neutralC/CFD-IM-637-007-N.jpg","img/neutralC/CFD-MF-329-001-N.jpg","1","1","1","1","0","0","0.435249400092289","0.55456279986538","0.638614499941468","1","1","1","1","1","1","1","1","1"
"250039","img/neutralC/CFD-MF-329-001-N.jpg","img/neutralC/CFD-IF-608-390-N.jpg","img/neutralC/CFD-WM-024-015-N.jpg","1","1","1","0","1","1","0.638614499941468","0.435249400092289","0.505380899878219","1","1","1","1","1","1","1","1","1"
"250039","img/neutralC/CFD-WM-024-015-N.jpg","img/neutralC/CFD-MF-329-001-N.jpg","img/neutralC/CFD-LF-226-174-N.jpg","1","1","0","1","0","0","0.505380899878219","0.638614499941468","0.364453200018033","1","1","1","1","1","1","1","1","1"
"250039","img/neutralC/CFD-LF-226-174-N.jpg","img/neutralC/CFD-WM-024-015-N.jpg","img/neutralC/CFD-AF-215-70-N.jpg","0","1","1","0","1","0","0.364453200018033","0.505380899878219","0.60417820001021","1","1","1","1","1","1","1","1","1"
"250039","img/neutralC/CFD-AF-215-70-N.jpg","img/neutralC/CFD-LF-226-174-N.jpg","img/neutralC/CFD-MF-327-002-N.jpg","1","0","1","0","0","0","0.60417820001021","0.364453200018033","0.549233699915931","1","1","1","1","1","1","1","1","1"
"250039","img/neutralC/CFD-MF-327-002-N.jpg","img/neutralC/CFD-AF-215-70-N.jpg","img/neutralC/CFD-IF-619-197-N.jpg","1","1","1","0","0","0","0.549233699915931","0.60417820001021","0.435003299964592","1","1","1","1","1","1","1","1","1"
"250039","img/neutralC/CFD-IF-619-197-N.jpg","img/neutralC/CFD-MF-327-002-N.jpg","img/neutralC/CFD-BM-243-218-N.jpg","1","1","1","0","0","1","0.435003299964592","0.549233699915931","0.530521899927408","1","1","1","1","1","1","1","1","1"
"250039","img/neutralC/CFD-BM-243-218-N.jpg","img/neutralC/CFD-IF-619-197-N.jpg","img/neutralC/CFD-AM-236-090-N.jpg","1","1","1","1","0","1","0.530521899927408","0.435003299964592","0.36366769997403","1","1","1","1","1","1","1","1","1"
"250039","img/neutralC/CFD-AM-236-090-N.jpg","img/neutralC/CFD-BM-243-218-N.jpg","img/neutralC/CFD-BF-051-035-N.jpg","1","1","1","1","1","0","0.36366769997403","0.530521899927408","0.403680300107226","1","1","1","1","1","1","1","1","1"
"250039","img/neutralC/CFD-BF-051-035-N.jpg","img/neutralC/CFD-AM-236-090-N.jpg","img/neutralC/CFD-BF-043-003-N.jpg","1","1","1","0","1","0","0.403680300107226","0.36366769997403","0.489696499891579","1","1","1","1","1","1","1","1","1"
"250039","img/neutralC/CFD-BF-043-003-N.jpg","img/neutralC/CFD-BF-051-035-N.jpg","img/neutralC/CFD-WF-217-085-N.jpg","1","1","1","0","0","1","0.489696499891579","0.403680300107226","0.437060599913821","1","1","1","1","1","1","1","1","1"
"250039","img/neutralC/CFD-WF-217-085-N.jpg","img/neutralC/CFD-BF-043-003-N.jpg","img/neutralC/CFD-IM-675-015-N.jpg","1","1","1","1","0","1","0.437060599913821","0.489696499891579","0.53633760008961","1","1","1","1","1","1","1","1","1"
"250039","img/neutralC/CFD-IM-675-015-N.jpg","img/neutralC/CFD-WF-217-085-N.jpg","img/neutralC/CFD-LM-217-162-N.jpg","1","1","1","1","1","0","0.53633760008961","0.437060599913821","0.552367300027981","1","1","1","1","1","1","1","1","1"
"250039","img/neutralC/CFD-LM-217-162-N.jpg","img/neutralC/CFD-IM-675-015-N.jpg","img/neutralC/CFD-LF-201-035-N.jpg","1","1","1","0","1","1","0.552367300027981","0.53633760008961","0.380285599967465","1","1","1","1","1","1","1","1","1"
"250039","img/neutralC/CFD-LF-201-035-N.jpg","img/neutralC/CFD-LM-217-162-N.jpg","img/neutralC/CFD-WM-213-076-N.jpg","1","1","1","1","0","1","0.380285599967465","0.552367300027981","0.385243099881336","1","1","1","1","1","1","1","1","1"
"250039","img/neutralC/CFD-WM-213-076-N.jpg","img/neutralC/CFD-LF-201-035-N.jpg","img/neutralC/CFD-MF-340-026-N.jpg","1","1","1","1","1","1","0.385243099881336","0.380285599967465","0.393011899897829","1","1","1","1","1","1","1","1","1"
"250039","img/neutralC/CFD-MF-340-026-N.jpg","img/neutralC/CFD-WM-213-076-N.jpg","img/neutralC/CFD-AF-229-160-N.jpg","1","1","1","1","1","0","0.393011899897829","0.385243099881336","0.703291599871591","1","1","1","1","1","1","1","1","1"
"250039","img/neutralC/CFD-AF-229-160-N.jpg","img/neutralC/CFD-MF-340-026-N.jpg","img/neutralC/CFD-AF-254-167-N.jpg","1","1","1","0","1","1","0.703291599871591","0.393011899897829","0.467298900010064","1","1","1","1","1","1","1","1","1"
"250039","img/neutralC/CFD-AF-254-167-N.jpg","img/neutralC/CFD-AF-229-160-N.jpg","img/neutralC/CFD-WM-232-070-N.jpg","1","1","1","1","0","0","0.467298900010064","0.703291599871591","0.529169699875638","1","1","1","1","1","1","1","1","1"
"250039","img/neutralC/CFD-WM-232-070-N.jpg","img/neutralC/CFD-AF-254-167-N.jpg","img/neutralC/CFD-MM-304-002-N.jpg","1","1","1","0","1","1","0.529169699875638","0.467298900010064","0.440183700062335","1","1","1","1","1","1","1","1","1"
"250039","img/neutralC/CFD-MM-304-002-N.jpg","img/neutralC/CFD-WM-232-070-N.jpg",NA,"1","1",NA,"1","0",NA,"0.440183700062335","0.529169699875638",NA,"1","1",NA,"1","1",NA,"1","1",NA
"250039","img/neutralC/CFD-MF-321-003-N.jpg",NA,"img/neutralC/CFD-IF-629-234-N.jpg","1",NA,"1","0",NA,"0","1.19463209994137",NA,"0.619974300032482","1",NA,"1","1",NA,"1","1",NA,"1"
"250039","img/neutralC/CFD-IF-629-234-N.jpg","img/neutralC/CFD-MF-321-003-N.jpg","img/neutralC/CFD-WF-023-003-N.jpg","1","1","1","0","0","1","0.619974300032482","1.19463209994137","0.37334750010632","1","1","1","1","1","1","1","1","1"
"250039","img/neutralC/CFD-WF-023-003-N.jpg","img/neutralC/CFD-IF-629-234-N.jpg","img/neutralC/CFD-AF-232-078-N.jpg","1","1","1","1","0","1","0.37334750010632","0.619974300032482","0.397572999820113","1","1","1","1","1","1","1","1","1"
"250039","img/neutralC/CFD-AF-232-078-N.jpg","img/neutralC/CFD-WF-023-003-N.jpg","img/neutralC/CFD-AF-221-147-N.jpg","1","1","0","1","1","0","0.397572999820113","0.37334750010632","0.411514400038868","1","1","1","1","1","1","1","1","1"
"250039","img/neutralC/CFD-AF-221-147-N.jpg","img/neutralC/CFD-AF-232-078-N.jpg","img/neutralC/CFD-BF-254-201-N.jpg","0","1","1","0","1","0","0.411514400038868","0.397572999820113","0.528811299940571","1","1","1","1","1","1","1","1","1"
"250039","img/neutralC/CFD-BF-254-201-N.jpg","img/neutralC/CFD-AF-221-147-N.jpg","img/neutralC/CFD-LF-215-157-N.jpg","1","0","1","0","0","0","0.528811299940571","0.411514400038868","0.4778626000043","1","1","1","1","1","1","1","1","1"
"250039","img/neutralC/CFD-LF-215-157-N.jpg","img/neutralC/CFD-BF-254-201-N.jpg","img/neutralC/CFD-MF-342-022-N.jpg","1","1","1","0","0","1","0.4778626000043","0.528811299940571","0.459157699951902","1","1","1","1","1","1","1","1","1"
"250039","img/neutralC/CFD-MF-342-022-N.jpg","img/neutralC/CFD-LF-215-157-N.jpg","img/neutralC/CFD-IM-627-178-N.jpg","1","1","1","1","0","1","0.459157699951902","0.4778626000043","0.45438120001927","1","1","1","1","1","1","1","1","1"
"250039","img/neutralC/CFD-IM-627-178-N.jpg","img/neutralC/CFD-MF-342-022-N.jpg","img/neutralC/CFD-BM-200-046-N.jpg","1","1","1","1","1","0","0.45438120001927","0.459157699951902","0.550533399917185","1","1","1","1","1","1","1","1","1"
"250039","img/neutralC/CFD-BM-200-046-N.jpg","img/neutralC/CFD-IM-627-178-N.jpg","img/neutralC/CFD-BM-023-029-N.jpg","1","1","1","0","1","1","0.550533399917185","0.45438120001927","0.487198500195518","1","1","1","1","1","1","1","1","1"
"250039","img/neutralC/CFD-BM-023-029-N.jpg","img/neutralC/CFD-BM-200-046-N.jpg","img/neutralC/CFD-WM-009-002-N.jpg","1","1","1","1","0","0","0.487198500195518","0.550533399917185","0.591353200143203","1","1","1","1","1","1","1","1","1"
"250039","img/neutralC/CFD-WM-009-002-N.jpg","img/neutralC/CFD-BM-023-029-N.jpg","img/neutralC/CFD-WM-221-091-N.jpg","1","1","1","0","1","0","0.591353200143203","0.487198500195518","0.500945500098169","1","1","1","1","1","1","1","1","1"
"250039","img/neutralC/CFD-WM-221-091-N.jpg","img/neutralC/CFD-WM-009-002-N.jpg","img/neutralC/CFD-WF-245-084-N.jpg","1","1","1","0","0","1","0.500945500098169","0.591353200143203","0.381791299907491","1","1","1","1","1","1","1","1","1"
"250039","img/neutralC/CFD-WF-245-084-N.jpg","img/neutralC/CFD-WM-221-091-N.jpg","img/neutralC/CFD-MM-321-021-N.jpg","1","1","1","1","0","0","0.381791299907491","0.500945500098169","0.479668299900368","1","1","1","1","1","1","1","1","1"
"250039","img/neutralC/CFD-MM-321-021-N.jpg","img/neutralC/CFD-WF-245-084-N.jpg","img/neutralC/CFD-WM-237-052-N.jpg","1","1","1","0","1","1","0.479668299900368","0.381791299907491","0.409451300045475","1","1","1","1","1","1","1","1","1"
"250039","img/neutralC/CFD-WM-237-052-N.jpg","img/neutralC/CFD-MM-321-021-N.jpg","img/neutralC/CFD-WF-226-095-N.jpg","1","1","1","1","0","1","0.409451300045475","0.479668299900368","0.550534500041977","1","1","1","1","1","1","1","1","1"
"250039","img/neutralC/CFD-WF-226-095-N.jpg","img/neutralC/CFD-WM-237-052-N.jpg","img/neutralC/CFD-BF-018-039-N.jpg","1","1","1","1","1","1","0.550534500041977","0.409451300045475","0.45249309996143","1","1","1","1","1","1","1","1","1"
"250039","img/neutralC/CFD-BF-018-039-N.jpg","img/neutralC/CFD-WF-226-095-N.jpg","img/neutralC/CFD-MF-318-022-N.jpg","1","1","1","1","1","1","0.45249309996143","0.550534500041977","0.443354799877852","1","1","1","1","1","1","1","1","1"
"250039","img/neutralC/CFD-MF-318-022-N.jpg","img/neutralC/CFD-BF-018-039-N.jpg","img/neutralC/CFD-LM-253-075-N.jpg","1","1","1","1","1","0","0.443354799877852","0.45249309996143","0.606805500108749","1","1","1","1","1","1","1","1","1"
"250039","img/neutralC/CFD-LM-253-075-N.jpg","img/neutralC/CFD-MF-318-022-N.jpg","img/neutralC/CFD-WF-238-023-N.jpg","1","1","1","0","1","0","0.606805500108749","0.443354799877852","0.521040599793196","1","1","1","1","1","1","1","1","1"
"250039","img/neutralC/CFD-WF-238-023-N.jpg","img/neutralC/CFD-LM-253-075-N.jpg","img/neutralC/CFD-WF-027-003-N.jpg","1","1","1","0","0","1","0.521040599793196","0.606805500108749","0.548843800090253","1","1","1","1","1","1","1","1","1"
"250039","img/neutralC/CFD-WF-027-003-N.jpg","img/neutralC/CFD-WF-238-023-N.jpg","img/neutralC/CFD-BF-218-207-N.jpg","1","1","1","1","0","1","0.548843800090253","0.521040599793196","0.441289500100538","1","1","1","1","1","1","1","1","1"
"250039","img/neutralC/CFD-BF-218-207-N.jpg","img/neutralC/CFD-WF-027-003-N.jpg","img/neutralC/CFD-LF-211-003-N.jpg","1","1","1","1","1","0","0.441289500100538","0.548843800090253","0.499758800026029","1","1","1","1","1","1","1","1","1"
"250039","img/neutralC/CFD-LF-211-003-N.jpg","img/neutralC/CFD-BF-218-207-N.jpg","img/neutralC/CFD-IM-700-009-N.jpg","1","1","1","0","1","1","0.499758800026029","0.441289500100538","0.469719200162217","1","1","1","1","1","1","1","1","1"
"250039","img/neutralC/CFD-IM-700-009-N.jpg","img/neutralC/CFD-LF-211-003-N.jpg","img/neutralC/CFD-WM-201-063-N.jpg","1","1","1","1","0","1","0.469719200162217","0.499758800026029","0.420318600023165","1","1","1","1","1","1","1","1","1"
"250039","img/neutralC/CFD-WM-201-063-N.jpg","img/neutralC/CFD-IM-700-009-N.jpg","img/neutralC/CFD-WM-013-001-N.jpg","1","1","1","1","1","1","0.420318600023165","0.469719200162217","0.517691700020805","1","1","1","1","1","1","1","1","1"
"250039","img/neutralC/CFD-WM-013-001-N.jpg","img/neutralC/CFD-WM-201-063-N.jpg","img/neutralC/CFD-WM-255-219-N.jpg","1","1","0","1","1","0","0.517691700020805","0.420318600023165","0.470343499910086","1","1","1","1","1","1","1","1","1"
"250039","img/neutralC/CFD-WM-255-219-N.jpg","img/neutralC/CFD-WM-013-001-N.jpg","img/neutralC/CFD-AM-244-222-N.jpg","0","1","1","0","1","0","0.470343499910086","0.517691700020805","0.575646900106221","1","1","1","1","1","1","1","1","1"
"250039","img/neutralC/CFD-AM-244-222-N.jpg","img/neutralC/CFD-WM-255-219-N.jpg","img/neutralC/CFD-BM-204-003-N.jpg","1","0","1","0","0","0","0.575646900106221","0.470343499910086","0.502999100135639","1","1","1","1","1","1","1","1","1"
"250039","img/neutralC/CFD-BM-204-003-N.jpg","img/neutralC/CFD-AM-244-222-N.jpg","img/neutralC/CFD-IM-719-221-N.jpg","1","1","1","0","0","0","0.502999100135639","0.575646900106221","0.629469300154597","1","1","1","1","1","1","1","1","1"
"250039","img/neutralC/CFD-IM-719-221-N.jpg","img/neutralC/CFD-BM-204-003-N.jpg","img/neutralC/CFD-WF-018-017-N.jpg","1","1","1","0","0","1","0.629469300154597","0.502999100135639","0.517557399813086","1","1","1","1","1","1","1","1","1"
"250039","img/neutralC/CFD-WF-018-017-N.jpg","img/neutralC/CFD-IM-719-221-N.jpg",NA,"1","1",NA,"1","0",NA,"0.517557399813086","0.629469300154597",NA,"1","1",NA,"1","1",NA,"1","1",NA
"250039","img/neutralC/CFD-LF-218-072-N.jpg",NA,"img/neutralC/CFD-AM-242-176-N.jpg","1",NA,"1","0",NA,"1","0.63852379983291",NA,"0.459594700019807","1",NA,"1","1",NA,"1","1",NA,"1"
"250039","img/neutralC/CFD-AM-242-176-N.jpg","img/neutralC/CFD-LF-218-072-N.jpg","img/neutralC/CFD-LM-237-264-N.jpg","1","1","1","1","0","0","0.459594700019807","0.63852379983291","0.52801869995892","1","1","1","1","1","1","1","1","1"
"250039","img/neutralC/CFD-LM-237-264-N.jpg","img/neutralC/CFD-AM-242-176-N.jpg","img/neutralC/CFD-WM-033-025-N.jpg","1","1","1","0","1","1","0.52801869995892","0.459594700019807","0.381083900108934","1","1","1","1","1","1","1","1","1"
"250039","img/neutralC/CFD-WM-033-025-N.jpg","img/neutralC/CFD-LM-237-264-N.jpg","img/neutralC/CFD-IM-703-182-N.jpg","1","1","1","1","0","1","0.381083900108934","0.52801869995892","0.432732000015676","1","1","1","1","1","1","1","1","1"
"250039","img/neutralC/CFD-IM-703-182-N.jpg","img/neutralC/CFD-WM-033-025-N.jpg","img/neutralC/CFD-LF-220-120-N.jpg","1","1","1","1","1","1","0.432732000015676","0.381083900108934","0.393165700137615","1","1","1","1","1","1","1","1","1"
"250039","img/neutralC/CFD-LF-220-120-N.jpg","img/neutralC/CFD-IM-703-182-N.jpg","img/neutralC/CFD-WF-001-003-N.jpg","1","1","1","1","1","1","0.393165700137615","0.432732000015676","0.462322799954563","1","1","1","1","1","1","1","1","1"
"250039","img/neutralC/CFD-WF-001-003-N.jpg","img/neutralC/CFD-LF-220-120-N.jpg","img/neutralC/CFD-BF-232-187-N.jpg","1","1","1","1","1","1","0.462322799954563","0.393165700137615","0.508171699941158","1","1","1","1","1","1","1","1","1"
"250039","img/neutralC/CFD-BF-232-187-N.jpg","img/neutralC/CFD-WF-001-003-N.jpg","img/neutralC/CFD-BF-229-179-N.jpg","1","1","1","1","1","0","0.508171699941158","0.462322799954563","0.575468899914995","1","1","1","1","1","1","1","1","1"
"250039","img/neutralC/CFD-BF-229-179-N.jpg","img/neutralC/CFD-BF-232-187-N.jpg","img/neutralC/CFD-WM-235-147-N.jpg","1","1","1","0","1","0","0.575468899914995","0.508171699941158","0.564846300054342","1","1","1","1","1","1","1","1","1"
"250039","img/neutralC/CFD-WM-235-147-N.jpg","img/neutralC/CFD-BF-229-179-N.jpg","img/neutralC/CFD-WF-200-099-N.jpg","1","1","1","0","0","0","0.564846300054342","0.575468899914995","0.504342200001702","1","1","1","1","1","1","1","1","1"
"250039","img/neutralC/CFD-WF-200-099-N.jpg","img/neutralC/CFD-WM-235-147-N.jpg","img/neutralC/CFD-LM-228-188-N.jpg","1","1","1","0","0","1","0.504342200001702","0.564846300054342","0.407667999854311","1","1","1","1","1","1","1","1","1"
"250039","img/neutralC/CFD-LM-228-188-N.jpg","img/neutralC/CFD-WF-200-099-N.jpg","img/neutralC/CFD-BM-225-154-N.jpg","1","1","1","1","0","1","0.407667999854311","0.504342200001702","0.376673000166193","1","1","1","1","1","1","1","1","1"
"250039","img/neutralC/CFD-BM-225-154-N.jpg","img/neutralC/CFD-LM-228-188-N.jpg","img/neutralC/CFD-AM-251-124-N.jpg","1","1","1","1","1","0","0.376673000166193","0.407667999854311","0.451389199821278","1","1","1","1","1","1","1","1","1"
"250039","img/neutralC/CFD-AM-251-124-N.jpg","img/neutralC/CFD-BM-225-154-N.jpg","img/neutralC/CFD-WF-214-122-N.jpg","1","1","1","0","1","1","0.451389199821278","0.376673000166193","0.422845099819824","1","1","1","1","1","1","1","1","1"
"250039","img/neutralC/CFD-WF-214-122-N.jpg","img/neutralC/CFD-AM-251-124-N.jpg","img/neutralC/CFD-IF-623-129-N.jpg","1","1","0","1","0","1","0.422845099819824","0.451389199821278","0.400228000013158","1","1","1","1","1","1","1","1","1"
"250039","img/neutralC/CFD-IF-623-129-N.jpg","img/neutralC/CFD-WF-214-122-N.jpg","img/neutralC/CFD-BM-253-004-N.jpg","0","1","0","1","1","1","0.400228000013158","0.422845099819824","0.499706099973992","1","1","1","1","1","1","1","1","1"
"250039","img/neutralC/CFD-BM-253-004-N.jpg","img/neutralC/CFD-IF-623-129-N.jpg","img/neutralC/CFD-BF-226-119-N.jpg","0","0","1","1","1","1","0.499706099973992","0.400228000013158","0.507253899937496","1","1","1","1","1","1","1","1","1"
"250039","img/neutralC/CFD-BF-226-119-N.jpg","img/neutralC/CFD-BM-253-004-N.jpg","img/neutralC/CFD-WF-036-023-N.jpg","1","0","1","1","1","0","0.507253899937496","0.499706099973992","0.632255600066856","1","1","1","1","1","1","1","1","1"
"250039","img/neutralC/CFD-WF-036-023-N.jpg","img/neutralC/CFD-BF-226-119-N.jpg","img/neutralC/CFD-IM-616-214-N.jpg","1","1","1","0","1","0","0.632255600066856","0.507253899937496","0.483018799917772","1","1","1","1","1","1","1","1","1"
"250039","img/neutralC/CFD-IM-616-214-N.jpg","img/neutralC/CFD-WF-036-023-N.jpg","img/neutralC/CFD-MF-359-019-N.jpg","1","1","1","0","0","0","0.483018799917772","0.632255600066856","0.522401100024581","1","1","1","1","1","1","1","1","1"
"250039","img/neutralC/CFD-MF-359-019-N.jpg","img/neutralC/CFD-IM-616-214-N.jpg","img/neutralC/CFD-MF-333-012-N.jpg","1","1","1","0","0","0","0.522401100024581","0.483018799917772","0.534487500088289","1","1","1","1","1","1","1","1","1"
"250039","img/neutralC/CFD-MF-333-012-N.jpg","img/neutralC/CFD-MF-359-019-N.jpg","img/neutralC/CFD-IM-671-601-N.jpg","1","1","1","0","0","0","0.534487500088289","0.522401100024581","0.617409100057557","1","1","1","1","1","1","1","1","1"
"250039","img/neutralC/CFD-IM-671-601-N.jpg","img/neutralC/CFD-MF-333-012-N.jpg","img/neutralC/CFD-WM-219-008-N.jpg","1","1","1","0","0","0","0.617409100057557","0.534487500088289","0.568200800102204","1","1","1","1","1","1","1","1","1"
"250039","img/neutralC/CFD-WM-219-008-N.jpg","img/neutralC/CFD-IM-671-601-N.jpg","img/neutralC/CFD-BF-038-037-N.jpg","1","1","1","0","0","1","0.568200800102204","0.617409100057557","0.520481100073084","1","1","1","1","1","1","1","1","1"
"250039","img/neutralC/CFD-BF-038-037-N.jpg","img/neutralC/CFD-WM-219-008-N.jpg","img/neutralC/CFD-AM-211-052-N.jpg","1","1","1","1","0","1","0.520481100073084","0.568200800102204","0.413512799888849","1","1","1","1","1","1","1","1","1"
"250039","img/neutralC/CFD-AM-211-052-N.jpg","img/neutralC/CFD-BF-038-037-N.jpg","img/neutralC/CFD-WM-004-010-N.jpg","1","1","0","1","1","0","0.413512799888849","0.520481100073084","0.301460900111124","1","1","1","1","1","1","1","1","1"
"250039","img/neutralC/CFD-WM-004-010-N.jpg","img/neutralC/CFD-AM-211-052-N.jpg","img/neutralC/CFD-WM-020-001-N.jpg","0","1","1","0","1","1","0.301460900111124","0.413512799888849","0.489155600080267","1","1","1","1","1","1","1","1","1"
"250039","img/neutralC/CFD-WM-020-001-N.jpg","img/neutralC/CFD-WM-004-010-N.jpg","img/neutralC/CFD-IM-743-006-N.jpg","1","0","1","1","0","1","0.489155600080267","0.301460900111124","0.526094499975443","1","1","1","1","1","1","1","1","1"
"250039","img/neutralC/CFD-IM-743-006-N.jpg","img/neutralC/CFD-WM-020-001-N.jpg","img/neutralC/CFD-IF-650-315-N.jpg","1","1","1","1","1","0","0.526094499975443","0.489155600080267","0.580312399892136","1","1","1","1","1","1","1","1","1"
"250039","img/neutralC/CFD-IF-650-315-N.jpg","img/neutralC/CFD-IM-743-006-N.jpg","img/neutralC/CFD-IM-645-001-N.jpg","1","1","0","0","1","0","0.580312399892136","0.526094499975443","0.60176769993268","1","1","1","1","1","1","1","1","2"
"250039","img/neutralC/CFD-IM-645-001-N.jpg","img/neutralC/CFD-IF-650-315-N.jpg","img/neutralC/CFD-MF-352-054-N.jpg","0","1","1","0","0","0","0.60176769993268","0.580312399892136","0.668082900112495","1","1","1","1","1","1","2","1","1"
"250039","img/neutralC/CFD-MF-352-054-N.jpg","img/neutralC/CFD-IM-645-001-N.jpg",NA,"1","0",NA,"0","0",NA,"0.668082900112495","0.60176769993268",NA,"1","1",NA,"1","1",NA,"1","2",NA
"250039","img/neutralC/CFD-LF-255-088-N.jpg",NA,"img/neutralC/CFD-WF-007-001-N.jpg","1",NA,"1","0",NA,"1","0.937822399893776",NA,"0.532253300072625","1",NA,"1","1",NA,"1","1",NA,"1"
"250039","img/neutralC/CFD-WF-007-001-N.jpg","img/neutralC/CFD-LF-255-088-N.jpg","img/neutralC/CFD-LF-206-078-N.jpg","1","1","1","1","0","1","0.532253300072625","0.937822399893776","0.366987300105393","1","1","1","1","1","1","1","1","1"
"250039","img/neutralC/CFD-LF-206-078-N.jpg","img/neutralC/CFD-WF-007-001-N.jpg","img/neutralC/CFD-MF-343-001-N.jpg","1","1","1","1","1","1","0.366987300105393","0.532253300072625","0.423784299986437","1","1","1","1","1","1","1","1","1"
"250039","img/neutralC/CFD-MF-343-001-N.jpg","img/neutralC/CFD-LF-206-078-N.jpg","img/neutralC/CFD-MF-316-001-N.jpg","1","1","1","1","1","0","0.423784299986437","0.366987300105393","0.343070400180295","1","1","1","1","1","1","1","1","1"
"250039","img/neutralC/CFD-MF-316-001-N.jpg","img/neutralC/CFD-MF-343-001-N.jpg","img/neutralC/CFD-IM-664-651-N.jpg","1","1","1","0","1","1","0.343070400180295","0.423784299986437","0.385827499907464","1","1","1","1","1","1","1","1","1"
"250039","img/neutralC/CFD-IM-664-651-N.jpg","img/neutralC/CFD-MF-316-001-N.jpg","img/neutralC/CFD-IM-702-101-N.jpg","1","1","1","1","0","1","0.385827499907464","0.343070400180295","0.396421799901873","1","1","1","1","1","1","1","1","1"
"250039","img/neutralC/CFD-IM-702-101-N.jpg","img/neutralC/CFD-IM-664-651-N.jpg","img/neutralC/CFD-WM-209-038-N.jpg","1","1","1","1","1","0","0.396421799901873","0.385827499907464","0.557731400011107","1","1","1","1","1","1","1","1","1"
"250039","img/neutralC/CFD-WM-209-038-N.jpg","img/neutralC/CFD-IM-702-101-N.jpg","img/neutralC/CFD-WF-222-092-N.jpg","1","1","1","0","1","1","0.557731400011107","0.396421799901873","0.486718000145629","1","1","1","1","1","1","1","1","1"
"250039","img/neutralC/CFD-WF-222-092-N.jpg","img/neutralC/CFD-WM-209-038-N.jpg","img/neutralC/CFD-MF-357-002-N.jpg","1","1","1","1","0","0","0.486718000145629","0.557731400011107","0.454647000180557","1","1","1","1","1","1","1","1","1"
"250039","img/neutralC/CFD-MF-357-002-N.jpg","img/neutralC/CFD-WF-222-092-N.jpg","img/neutralC/CFD-AF-233-190-N.jpg","1","1","1","0","1","0","0.454647000180557","0.486718000145629","0.532961199991405","1","1","1","1","1","1","1","1","1"
"250039","img/neutralC/CFD-AF-233-190-N.jpg","img/neutralC/CFD-MF-357-002-N.jpg","img/neutralC/CFD-MM-324-069-N.jpg","1","1","1","0","0","1","0.532961199991405","0.454647000180557","0.376132600009441","1","1","1","1","1","1","1","1","1"
"250039","img/neutralC/CFD-MM-324-069-N.jpg","img/neutralC/CFD-AF-233-190-N.jpg","img/neutralC/CFD-IM-680-369-N.jpg","1","1","1","1","0","1","0.376132600009441","0.532961199991405","0.36437870003283","1","1","1","1","1","1","1","1","1"
"250039","img/neutralC/CFD-IM-680-369-N.jpg","img/neutralC/CFD-MM-324-069-N.jpg","img/neutralC/CFD-MF-305-014-N.jpg","1","1","1","1","1","1","0.36437870003283","0.376132600009441","0.366358100203797","1","1","1","1","1","1","1","1","1"
"250039","img/neutralC/CFD-MF-305-014-N.jpg","img/neutralC/CFD-IM-680-369-N.jpg","img/neutralC/CFD-BM-250-170-N.jpg","1","1","1","1","1","1","0.366358100203797","0.36437870003283","0.3407238998916","1","1","1","1","1","1","1","1","1"
"250039","img/neutralC/CFD-BM-250-170-N.jpg","img/neutralC/CFD-MF-305-014-N.jpg","img/neutralC/CFD-WM-218-074-N.jpg","1","1","1","1","1","1","0.3407238998916","0.366358100203797","0.347547400044277","1","1","1","1","1","1","1","1","1"
"250039","img/neutralC/CFD-WM-218-074-N.jpg","img/neutralC/CFD-BM-250-170-N.jpg","img/neutralC/CFD-WM-015-002-N.jpg","1","1","1","1","1","0","0.347547400044277","0.3407238998916","0.594132399884984","1","1","1","1","1","1","1","1","1"
"250039","img/neutralC/CFD-WM-015-002-N.jpg","img/neutralC/CFD-WM-218-074-N.jpg","img/neutralC/CFD-WF-030-002-N.jpg","1","1","0","0","1","0","0.594132399884984","0.347547400044277","0.501439999789","1","1","1","1","1","1","1","1","1"
"250039","img/neutralC/CFD-WF-030-002-N.jpg","img/neutralC/CFD-WM-015-002-N.jpg","img/neutralC/CFD-BM-217-082-N.jpg","0","1","1","0","0","0","0.501439999789","0.594132399884984","0.527373499935493","1","1","1","1","1","1","1","1","1"
"250039","img/neutralC/CFD-BM-217-082-N.jpg","img/neutralC/CFD-WF-030-002-N.jpg","img/neutralC/CFD-IM-706-002-N.jpg","1","0","1","0","0","0","0.527373499935493","0.501439999789","0.60507020005025","1","1","1","1","1","1","1","1","1"
"250039","img/neutralC/CFD-IM-706-002-N.jpg","img/neutralC/CFD-BM-217-082-N.jpg","img/neutralC/CFD-IM-667-369-N.jpg","1","1","1","0","0","0","0.60507020005025","0.527373499935493","0.561681600054726","1","1","1","1","1","1","1","1","1"
"250039","img/neutralC/CFD-IM-667-369-N.jpg","img/neutralC/CFD-IM-706-002-N.jpg","img/neutralC/CFD-BF-014-002-N.jpg","1","1","1","0","0","1","0.561681600054726","0.60507020005025","0.398961099795997","1","1","1","1","1","1","1","1","1"
"250039","img/neutralC/CFD-BF-014-002-N.jpg","img/neutralC/CFD-IM-667-369-N.jpg","img/neutralC/CFD-LM-225-130-N.jpg","1","1","1","1","0","0","0.398961099795997","0.561681600054726","0.485825599869713","1","1","1","1","1","1","1","1","1"
"250039","img/neutralC/CFD-LM-225-130-N.jpg","img/neutralC/CFD-BF-014-002-N.jpg","img/neutralC/CFD-LM-200-045-N.jpg","1","1","1","0","1","1","0.485825599869713","0.398961099795997","0.45796800008975","1","1","1","1","1","1","1","1","1"
"250039","img/neutralC/CFD-LM-200-045-N.jpg","img/neutralC/CFD-LM-225-130-N.jpg","img/neutralC/CFD-WF-244-163-N.jpg","1","1","1","1","0","1","0.45796800008975","0.485825599869713","0.461474100127816","1","1","1","1","1","1","1","1","1"
"250039","img/neutralC/CFD-WF-244-163-N.jpg","img/neutralC/CFD-LM-200-045-N.jpg","img/neutralC/CFD-IF-626-375-N.jpg","1","1","1","1","1","0","0.461474100127816","0.45796800008975","0.539748500101268","1","1","1","1","1","1","1","1","1"
"250039","img/neutralC/CFD-IF-626-375-N.jpg","img/neutralC/CFD-WF-244-163-N.jpg","img/neutralC/CFD-AM-220-134-N.jpg","1","1","1","0","1","0","0.539748500101268","0.461474100127816","0.460909199900925","1","1","1","1","1","1","1","1","1"
"250039","img/neutralC/CFD-AM-220-134-N.jpg","img/neutralC/CFD-IF-626-375-N.jpg","img/neutralC/CFD-BF-237-172-N.jpg","1","1","1","0","0","1","0.460909199900925","0.539748500101268","0.324127600062639","1","1","1","1","1","1","1","1","1"
"250039","img/neutralC/CFD-BF-237-172-N.jpg","img/neutralC/CFD-AM-220-134-N.jpg","img/neutralC/CFD-MF-303-013-N.jpg","1","1","1","1","0","0","0.324127600062639","0.460909199900925","0.415004799840972","1","1","1","1","1","1","1","1","1"
"250039","img/neutralC/CFD-MF-303-013-N.jpg","img/neutralC/CFD-BF-237-172-N.jpg","img/neutralC/CFD-BM-001-014-N.jpg","1","1","1","0","1","0","0.415004799840972","0.324127600062639","0.519776200177148","1","1","1","1","1","1","1","1","1"
"250039","img/neutralC/CFD-BM-001-014-N.jpg","img/neutralC/CFD-MF-303-013-N.jpg","img/neutralC/CFD-AF-253-130-N.jpg","1","1","1","0","0","1","0.519776200177148","0.415004799840972","0.449712699977681","1","1","1","1","1","1","1","1","1"
"250039","img/neutralC/CFD-AF-253-130-N.jpg","img/neutralC/CFD-BM-001-014-N.jpg","img/neutralC/CFD-IF-660-464-N.jpg","1","1","0","1","0","0","0.449712699977681","0.519776200177148","0.387165299849585","1","1","1","1","1","1","1","1","1"
"250039","img/neutralC/CFD-IF-660-464-N.jpg","img/neutralC/CFD-AF-253-130-N.jpg",NA,"0","1",NA,"0","1",NA,"0.387165299849585","0.449712699977681",NA,"1","1",NA,"1","1",NA,"1","1",NA
"250039","img/neutralC/CFD-MM-316-156-N.jpg",NA,"img/neutralC/CFD-IM-684-008-N.jpg","1",NA,"1","1",NA,"1","0.823205200023949",NA,"0.458124299999326","1",NA,"1","1",NA,"1","1",NA,"1"
"250039","img/neutralC/CFD-IM-684-008-N.jpg","img/neutralC/CFD-MM-316-156-N.jpg","img/neutralC/CFD-AF-231-357-N.jpg","1","1","1","1","1","1","0.458124299999326","0.823205200023949","0.537612400017679","1","1","1","1","1","1","1","1","1"
"250039","img/neutralC/CFD-AF-231-357-N.jpg","img/neutralC/CFD-IM-684-008-N.jpg","img/neutralC/CFD-LF-214-090-N.jpg","1","1","1","1","1","0","0.537612400017679","0.458124299999326","0.482172899879515","1","1","1","1","1","1","1","1","1"
"250039","img/neutralC/CFD-LF-214-090-N.jpg","img/neutralC/CFD-AF-231-357-N.jpg","img/neutralC/CFD-LF-203-066-N.jpg","1","1","1","0","1","0","0.482172899879515","0.537612400017679","0.543534699827433","1","1","1","1","1","1","1","1","1"
"250039","img/neutralC/CFD-LF-203-066-N.jpg","img/neutralC/CFD-LF-214-090-N.jpg","img/neutralC/CFD-BM-239-136-N.jpg","1","1","1","0","0","1","0.543534699827433","0.482172899879515","0.467898600036278","1","1","1","1","1","1","1","1","1"
"250039","img/neutralC/CFD-BM-239-136-N.jpg","img/neutralC/CFD-LF-203-066-N.jpg","img/neutralC/CFD-LM-215-247-N.jpg","1","1","1","1","0","0","0.467898600036278","0.543534699827433","0.568665799917653","1","1","1","1","1","1","1","1","1"
"250039","img/neutralC/CFD-LM-215-247-N.jpg","img/neutralC/CFD-BM-239-136-N.jpg","img/neutralC/CFD-BF-039-031-N.jpg","1","1","1","0","1","1","0.568665799917653","0.467898600036278","0.396610900061205","1","1","1","1","1","1","1","1","1"
"250039","img/neutralC/CFD-BF-039-031-N.jpg","img/neutralC/CFD-LM-215-247-N.jpg","img/neutralC/CFD-BM-033-003-N.jpg","1","1","1","1","0","0","0.396610900061205","0.568665799917653","0.69567730021663","1","1","1","1","1","1","1","1","1"
"250039","img/neutralC/CFD-BM-033-003-N.jpg","img/neutralC/CFD-BF-039-031-N.jpg","img/neutralC/CFD-AM-201-076-N.jpg","1","1","1","0","1","1","0.69567730021663","0.396610900061205","0.41068709990941","1","1","1","1","1","1","1","1","1"
"250039","img/neutralC/CFD-AM-201-076-N.jpg","img/neutralC/CFD-BM-033-003-N.jpg","img/neutralC/CFD-BF-205-141-N.jpg","1","1","0","1","0","0","0.41068709990941","0.69567730021663","0.351320300018415","1","1","1","1","1","1","1","1","1"
"250039","img/neutralC/CFD-BF-205-141-N.jpg","img/neutralC/CFD-AM-201-076-N.jpg","img/neutralC/CFD-WF-250-167-N.jpg","0","1","1","0","1","1","0.351320300018415","0.41068709990941","0.447038900107145","1","1","1","1","1","1","1","1","1"
"250039","img/neutralC/CFD-WF-250-167-N.jpg","img/neutralC/CFD-BF-205-141-N.jpg","img/neutralC/CFD-LF-224-176-N.jpg","1","0","0","1","0","0","0.447038900107145","0.351320300018415","0.409502300200984","1","1","1","1","1","1","1","1","2"
"250039","img/neutralC/CFD-LF-224-176-N.jpg","img/neutralC/CFD-WF-250-167-N.jpg","img/neutralC/CFD-WM-011-002-N.jpg","0","1","1","0","1","0","0.409502300200984","0.447038900107145","0.529771100031212","1","1","1","1","1","1","2","1","1"
"250039","img/neutralC/CFD-WM-011-002-N.jpg","img/neutralC/CFD-LF-224-176-N.jpg","img/neutralC/CFD-WF-213-031-N.jpg","1","0","1","0","0","1","0.529771100031212","0.409502300200984","0.409707000013441","1","1","1","1","1","1","1","2","1"
"250039","img/neutralC/CFD-WF-213-031-N.jpg","img/neutralC/CFD-WM-011-002-N.jpg","img/neutralC/CFD-IM-651-308-N.jpg","1","1","1","1","0","0","0.409707000013441","0.529771100031212","0.416703100083396","1","1","1","1","1","1","1","1","1"
"250039","img/neutralC/CFD-IM-651-308-N.jpg","img/neutralC/CFD-WF-213-031-N.jpg","img/neutralC/CFD-BM-019-002-N.jpg","1","1","1","0","1","0","0.416703100083396","0.409707000013441","0.439993900014088","1","1","1","1","1","1","1","1","1"
"250039","img/neutralC/CFD-BM-019-002-N.jpg","img/neutralC/CFD-IM-651-308-N.jpg","img/neutralC/CFD-AM-212-050-N.jpg","1","1","1","0","0","1","0.439993900014088","0.416703100083396","0.490502499975264","1","1","1","1","1","1","1","1","1"
"250039","img/neutralC/CFD-AM-212-050-N.jpg","img/neutralC/CFD-BM-019-002-N.jpg","img/neutralC/CFD-IF-710-016-N.jpg","1","1","0","1","0","0","0.490502499975264","0.439993900014088","0.445545600028709","1","1","1","1","1","1","1","1","2"
"250039","img/neutralC/CFD-IF-710-016-N.jpg","img/neutralC/CFD-AM-212-050-N.jpg","img/neutralC/CFD-MF-337-026-N.jpg","0","1","1","0","1","1","0.445545600028709","0.490502499975264","0.597734000068158","1","1","1","1","1","1","2","1","1"
"250039","img/neutralC/CFD-MF-337-026-N.jpg","img/neutralC/CFD-IF-710-016-N.jpg","img/neutralC/CFD-BF-029-031-N.jpg","1","0","1","1","0","1","0.597734000068158","0.445545600028709","0.486281199846417","1","1","1","1","1","1","1","2","1"
"250039","img/neutralC/CFD-BF-029-031-N.jpg","img/neutralC/CFD-MF-337-026-N.jpg","img/neutralC/CFD-WF-224-099-N.jpg","1","1","1","1","1","0","0.486281199846417","0.597734000068158","0.555088000139222","1","1","1","1","1","1","1","1","1"
"250039","img/neutralC/CFD-WF-224-099-N.jpg","img/neutralC/CFD-BF-029-031-N.jpg","img/neutralC/CFD-WM-041-021-N.jpg","1","1","1","0","1","0","0.555088000139222","0.486281199846417","0.479013599921018","1","1","1","1","1","1","1","1","1"
"250039","img/neutralC/CFD-WM-041-021-N.jpg","img/neutralC/CFD-WF-224-099-N.jpg","img/neutralC/CFD-LF-205-100-N.jpg","1","1","1","0","0","1","0.479013599921018","0.555088000139222","0.454107399797067","1","1","1","1","1","1","1","1","1"
"250039","img/neutralC/CFD-LF-205-100-N.jpg","img/neutralC/CFD-WM-041-021-N.jpg","img/neutralC/CFD-BF-213-188-N.jpg","1","1","1","1","0","1","0.454107399797067","0.479013599921018","0.398892099969089","1","1","1","1","1","1","1","1","1"
"250039","img/neutralC/CFD-BF-213-188-N.jpg","img/neutralC/CFD-LF-205-100-N.jpg","img/neutralC/CFD-LM-218-183-N.jpg","1","1","1","1","1","1","0.398892099969089","0.454107399797067","0.58451720001176","1","1","1","1","1","1","1","1","1"
"250039","img/neutralC/CFD-LM-218-183-N.jpg","img/neutralC/CFD-BF-213-188-N.jpg","img/neutralC/CFD-BF-253-202-N.jpg","1","1","1","1","1","0","0.58451720001176","0.398892099969089","0.499041799921542","1","1","1","1","1","1","1","1","1"
"250039","img/neutralC/CFD-BF-253-202-N.jpg","img/neutralC/CFD-LM-218-183-N.jpg","img/neutralC/CFD-IF-634-382-N.jpg","1","1","1","0","1","1","0.499041799921542","0.58451720001176","0.407078800024465","1","1","1","1","1","1","1","1","1"
"250039","img/neutralC/CFD-IF-634-382-N.jpg","img/neutralC/CFD-BF-253-202-N.jpg","img/neutralC/CFD-IF-693-172-N.jpg","1","1","1","1","0","0","0.407078800024465","0.499041799921542","0.525812499923632","1","1","1","1","1","1","1","1","1"
"250039","img/neutralC/CFD-IF-693-172-N.jpg","img/neutralC/CFD-IF-634-382-N.jpg","img/neutralC/CFD-BM-041-035-N.jpg","1","1","1","0","1","0","0.525812499923632","0.407078800024465","0.615356300026178","1","1","1","1","1","1","1","1","1"
"250039","img/neutralC/CFD-BM-041-035-N.jpg","img/neutralC/CFD-IF-693-172-N.jpg","img/neutralC/CFD-LF-230-203-N.jpg","1","1","1","0","0","0","0.615356300026178","0.525812499923632","0.606364600127563","1","1","1","1","1","1","1","1","1"
"250039","img/neutralC/CFD-LF-230-203-N.jpg","img/neutralC/CFD-BM-041-035-N.jpg","img/neutralC/CFD-WM-021-001-N.jpg","1","1","1","0","0","1","0.606364600127563","0.615356300026178","0.435209299903363","1","1","1","1","1","1","1","1","1"
"250039","img/neutralC/CFD-WM-021-001-N.jpg","img/neutralC/CFD-LF-230-203-N.jpg",NA,"1","1",NA,"1","0",NA,"0.435209299903363","0.606364600127563",NA,"1","1",NA,"1","1",NA,"1","1",NA
"250039","img/neutralC/CFD-WM-258-125-N.jpg",NA,"img/neutralC/CFD-IM-638-250-1-N.jpg","1",NA,"1","0",NA,"1","1.9800601999741",NA,"0.577879599994048","1",NA,"1","1",NA,"1","1",NA,"1"
"250039","img/neutralC/CFD-IM-638-250-1-N.jpg","img/neutralC/CFD-WM-258-125-N.jpg","img/neutralC/CFD-IM-617-174-N.jpg","1","1","1","1","0","0","0.577879599994048","1.9800601999741","0.534228600095958","1","1","1","1","1","1","1","1","1"
"250039","img/neutralC/CFD-IM-617-174-N.jpg","img/neutralC/CFD-IM-638-250-1-N.jpg","img/neutralC/CFD-AF-241-141-N.jpg","1","1","1","0","1","1","0.534228600095958","0.577879599994048","0.388982199830934","1","1","1","1","1","1","1","1","1"
"250039","img/neutralC/CFD-AF-241-141-N.jpg","img/neutralC/CFD-IM-617-174-N.jpg","img/neutralC/CFD-IM-686-097-N.jpg","1","1","1","1","0","0","0.388982199830934","0.534228600095958","0.532455200096592","1","1","1","1","1","1","1","1","1"
"250039","img/neutralC/CFD-IM-686-097-N.jpg","img/neutralC/CFD-AF-241-141-N.jpg","img/neutralC/CFD-AF-202-122-N.jpg","1","1","1","0","1","1","0.532455200096592","0.388982199830934","0.393445500172675","1","1","1","1","1","1","1","1","1"
"250039","img/neutralC/CFD-AF-202-122-N.jpg","img/neutralC/CFD-IM-686-097-N.jpg","img/neutralC/CFD-LM-226-175-N.jpg","1","1","1","1","0","0","0.393445500172675","0.532455200096592","0.585809499956667","1","1","1","1","1","1","1","1","1"
"250039","img/neutralC/CFD-LM-226-175-N.jpg","img/neutralC/CFD-AF-202-122-N.jpg","img/neutralC/CFD-WM-242-011-N.jpg","1","1","0","0","1","0","0.585809499956667","0.393445500172675","0.460587400011718","1","1","1","1","1","1","1","1","2"
"250039","img/neutralC/CFD-WM-242-011-N.jpg","img/neutralC/CFD-LM-226-175-N.jpg","img/neutralC/CFD-IM-653-008-N.jpg","0","1","1","0","0","0","0.460587400011718","0.585809499956667","0.452042600139976","1","1","1","1","1","1","2","1","1"
"250039","img/neutralC/CFD-IM-653-008-N.jpg","img/neutralC/CFD-WM-242-011-N.jpg","img/neutralC/CFD-WM-227-099-N.jpg","1","0","1","0","0","1","0.452042600139976","0.460587400011718","0.433110899990425","1","1","1","1","1","1","1","2","1"
"250039","img/neutralC/CFD-WM-227-099-N.jpg","img/neutralC/CFD-IM-653-008-N.jpg","img/neutralC/CFD-WF-209-052-N.jpg","1","1","1","1","0","1","0.433110899990425","0.452042600139976","0.370670199859887","1","1","1","1","1","1","1","1","1"
"250039","img/neutralC/CFD-WF-209-052-N.jpg","img/neutralC/CFD-WM-227-099-N.jpg","img/neutralC/CFD-LM-233-171-N.jpg","1","1","1","1","1","0","0.370670199859887","0.433110899990425","0.601622499991208","1","1","1","1","1","1","1","1","1"
"250039","img/neutralC/CFD-LM-233-171-N.jpg","img/neutralC/CFD-WF-209-052-N.jpg","img/neutralC/CFD-BM-212-117-N.jpg","1","1","1","0","1","0","0.601622499991208","0.370670199859887","0.485824499977753","1","1","1","1","1","1","1","1","1"
"250039","img/neutralC/CFD-BM-212-117-N.jpg","img/neutralC/CFD-LM-233-171-N.jpg","img/neutralC/CFD-WM-017-002-N.jpg","1","1","1","0","0","0","0.485824499977753","0.601622499991208","0.535258099902421","1","1","1","1","1","1","1","1","1"
"250039","img/neutralC/CFD-WM-017-002-N.jpg","img/neutralC/CFD-BM-212-117-N.jpg","img/neutralC/CFD-AF-206-079-N.jpg","1","1","1","0","0","1","0.535258099902421","0.485824499977753","0.420388899976388","1","1","1","1","1","1","1","1","1"
"250039","img/neutralC/CFD-AF-206-079-N.jpg","img/neutralC/CFD-WM-017-002-N.jpg","img/neutralC/CFD-MF-313-002-N.jpg","1","1","1","1","0","0","0.420388899976388","0.535258099902421","0.537345900200307","1","1","1","1","1","1","1","1","1"
"250039","img/neutralC/CFD-MF-313-002-N.jpg","img/neutralC/CFD-AF-206-079-N.jpg","img/neutralC/CFD-LF-242-121-N.jpg","1","1","1","0","1","0","0.537345900200307","0.420388899976388","0.532112899934873","1","1","1","1","1","1","1","1","1"
"250039","img/neutralC/CFD-LF-242-121-N.jpg","img/neutralC/CFD-MF-313-002-N.jpg","img/neutralC/CFD-LF-245-166-N.jpg","1","1","1","0","0","1","0.532112899934873","0.537345900200307","0.506271000020206","1","1","1","1","1","1","1","1","1"
"250039","img/neutralC/CFD-LF-245-166-N.jpg","img/neutralC/CFD-LF-242-121-N.jpg","img/neutralC/CFD-LF-250-169-N.jpg","1","1","1","1","0","1","0.506271000020206","0.532112899934873","0.3401254999917","1","1","1","1","1","1","1","1","1"
"250039","img/neutralC/CFD-LF-250-169-N.jpg","img/neutralC/CFD-LF-245-166-N.jpg","img/neutralC/CFD-IM-657-308-N.jpg","1","1","1","1","1","0","0.3401254999917","0.506271000020206","0.484527500113472","1","1","1","1","1","1","1","1","1"
"250039","img/neutralC/CFD-IM-657-308-N.jpg","img/neutralC/CFD-LF-250-169-N.jpg","img/neutralC/CFD-IF-620-218-N.jpg","1","1","1","0","1","0","0.484527500113472","0.3401254999917","0.393158099846914","1","1","1","1","1","1","1","1","1"
"250039","img/neutralC/CFD-IF-620-218-N.jpg","img/neutralC/CFD-IM-657-308-N.jpg","img/neutralC/CFD-IM-727-195-N.jpg","1","1","1","0","0","1","0.393158099846914","0.484527500113472","0.424463300034404","1","1","1","1","1","1","1","1","1"
"250039","img/neutralC/CFD-IM-727-195-N.jpg","img/neutralC/CFD-IF-620-218-N.jpg","img/neutralC/CFD-BM-018-001-N.jpg","1","1","1","1","0","1","0.424463300034404","0.393158099846914","0.444388400064781","1","1","1","1","1","1","1","1","1"
"250039","img/neutralC/CFD-BM-018-001-N.jpg","img/neutralC/CFD-IM-727-195-N.jpg","img/neutralC/CFD-BF-033-028-N.jpg","1","1","0","1","1","0","0.444388400064781","0.424463300034404","0.414705800125375","1","1","1","1","1","1","1","1","1"
"250039","img/neutralC/CFD-BF-033-028-N.jpg","img/neutralC/CFD-BM-018-001-N.jpg","img/neutralC/CFD-BM-005-003-N.jpg","0","1","1","0","1","1","0.414705800125375","0.444388400064781","0.496025400003418","1","1","1","1","1","1","1","1","1"
"250039","img/neutralC/CFD-BM-005-003-N.jpg","img/neutralC/CFD-BF-033-028-N.jpg","img/neutralC/CFD-BF-010-001-N.jpg","1","0","1","1","0","1","0.496025400003418","0.414705800125375","0.425231399945915","1","1","1","1","1","1","1","1","1"
"250039","img/neutralC/CFD-BF-010-001-N.jpg","img/neutralC/CFD-BM-005-003-N.jpg","img/neutralC/CFD-LM-219-295-N.jpg","1","1","1","1","1","1","0.425231399945915","0.496025400003418","0.382663399912417","1","1","1","1","1","1","1","1","1"
"250039","img/neutralC/CFD-LM-219-295-N.jpg","img/neutralC/CFD-BF-010-001-N.jpg","img/neutralC/CFD-BF-238-190-N.jpg","1","1","1","1","1","1","0.382663399912417","0.425231399945915","0.366325600072742","1","1","1","1","1","1","1","1","1"
"250039","img/neutralC/CFD-BF-238-190-N.jpg","img/neutralC/CFD-LM-219-295-N.jpg","img/neutralC/CFD-BM-231-155-N.jpg","1","1","1","1","1","1","0.366325600072742","0.382663399912417","0.397104399977252","1","1","1","1","1","1","1","1","1"
"250039","img/neutralC/CFD-BM-231-155-N.jpg","img/neutralC/CFD-BF-238-190-N.jpg","img/neutralC/CFD-LF-247-051-N.jpg","1","1","1","1","1","1","0.397104399977252","0.366325600072742","0.456575100077316","1","1","1","1","1","1","1","1","1"
"250039","img/neutralC/CFD-LF-247-051-N.jpg","img/neutralC/CFD-BM-231-155-N.jpg","img/neutralC/CFD-IF-665-015-N.jpg","1","1","0","1","1","0","0.456575100077316","0.397104399977252","0.467849799897522","1","1","1","1","1","1","1","1","1"
"250039","img/neutralC/CFD-IF-665-015-N.jpg","img/neutralC/CFD-LF-247-051-N.jpg","img/neutralC/CFD-BM-026-002-N.jpg","0","1","1","0","1","0","0.467849799897522","0.456575100077316","0.599493599962443","1","1","1","1","1","1","1","1","1"
"250039","img/neutralC/CFD-BM-026-002-N.jpg","img/neutralC/CFD-IF-665-015-N.jpg",NA,"1","0",NA,"0","0",NA,"0.599493599962443","0.467849799897522",NA,"1","1",NA,"1","1",NA,"1","1",NA
"250039","img/neutralC/CFD-BM-015-015-N.jpg",NA,"img/neutralC/CFD-AM-215-120-N.jpg","1",NA,"1","0",NA,"1","1.02287039998919",NA,"0.458399599883705","1",NA,"1","1",NA,"1","1",NA,"1"
"250039","img/neutralC/CFD-AM-215-120-N.jpg","img/neutralC/CFD-BM-015-015-N.jpg","img/neutralC/CFD-IF-672-305-N.jpg","1","1","1","1","0","0","0.458399599883705","1.02287039998919","0.507764899870381","1","1","1","1","1","1","1","1","1"
"250039","img/neutralC/CFD-IF-672-305-N.jpg","img/neutralC/CFD-AM-215-120-N.jpg","img/neutralC/CFD-WM-257-161-N.jpg","1","1","1","0","1","1","0.507764899870381","0.458399599883705","0.394788899924606","1","1","1","1","1","1","1","1","1"
"250039","img/neutralC/CFD-WM-257-161-N.jpg","img/neutralC/CFD-IF-672-305-N.jpg","img/neutralC/CFD-WM-040-022-N.jpg","1","1","1","1","0","0","0.394788899924606","0.507764899870381","0.573816600022838","1","1","1","1","1","1","1","1","1"
"250039","img/neutralC/CFD-WM-040-022-N.jpg","img/neutralC/CFD-WM-257-161-N.jpg","img/neutralC/CFD-AM-235-241-N.jpg","1","1","1","0","1","0","0.573816600022838","0.394788899924606","0.482073999941349","1","1","1","1","1","1","1","1","1"
"250039","img/neutralC/CFD-AM-235-241-N.jpg","img/neutralC/CFD-WM-040-022-N.jpg","img/neutralC/CFD-LM-252-076-N.jpg","1","1","1","0","0","1","0.482073999941349","0.573816600022838","0.454130199970677","1","1","1","1","1","1","1","1","1"
"250039","img/neutralC/CFD-LM-252-076-N.jpg","img/neutralC/CFD-AM-235-241-N.jpg","img/neutralC/CFD-BF-204-189-N.jpg","1","1","1","1","0","1","0.454130199970677","0.482073999941349","0.521085800137371","1","1","1","1","1","1","1","1","1"
"250039","img/neutralC/CFD-BF-204-189-N.jpg","img/neutralC/CFD-LM-252-076-N.jpg","img/neutralC/CFD-AM-217-085-N.jpg","1","1","1","1","1","0","0.521085800137371","0.454130199970677","0.516852099914104","1","1","1","1","1","1","1","1","1"
"250039","img/neutralC/CFD-AM-217-085-N.jpg","img/neutralC/CFD-BF-204-189-N.jpg","img/neutralC/CFD-WM-038-003-N.jpg","1","1","1","0","1","0","0.516852099914104","0.521085800137371","0.658355100080371","1","1","1","1","1","1","1","1","1"
"250039","img/neutralC/CFD-WM-038-003-N.jpg","img/neutralC/CFD-AM-217-085-N.jpg","img/neutralC/CFD-IM-639-263-N.jpg","1","1","1","0","0","1","0.658355100080371","0.516852099914104","0.516756400000304","1","1","1","1","1","1","1","1","1"
"250039","img/neutralC/CFD-IM-639-263-N.jpg","img/neutralC/CFD-WM-038-003-N.jpg","img/neutralC/CFD-BF-201-080-N.jpg","1","1","1","1","0","1","0.516756400000304","0.658355100080371","0.563621099805459","1","1","1","1","1","1","1","1","1"
"250039","img/neutralC/CFD-BF-201-080-N.jpg","img/neutralC/CFD-IM-639-263-N.jpg","img/neutralC/CFD-BM-027-001-N.jpg","1","1","1","1","1","0","0.563621099805459","0.516756400000304","0.547251200070605","1","1","1","1","1","1","1","1","1"
"250039","img/neutralC/CFD-BM-027-001-N.jpg","img/neutralC/CFD-BF-201-080-N.jpg","img/neutralC/CFD-BF-003-003-N.jpg","1","1","1","0","1","0","0.547251200070605","0.563621099805459","0.479062099941075","1","1","1","1","1","1","1","1","1"
"250039","img/neutralC/CFD-BF-003-003-N.jpg","img/neutralC/CFD-BM-027-001-N.jpg","img/neutralC/CFD-BM-211-174-N.jpg","1","1","1","0","0","0","0.479062099941075","0.547251200070605","0.474132800009102","1","1","1","1","1","1","1","1","1"
"250039","img/neutralC/CFD-BM-211-174-N.jpg","img/neutralC/CFD-BF-003-003-N.jpg","img/neutralC/CFD-IF-718-001-N.jpg","1","1","1","0","0","1","0.474132800009102","0.479062099941075","0.478208400076255","1","1","1","1","1","1","1","1","1"
"250039","img/neutralC/CFD-IF-718-001-N.jpg","img/neutralC/CFD-BM-211-174-N.jpg","img/neutralC/CFD-WM-002-009-N.jpg","1","1","1","1","0","0","0.478208400076255","0.474132800009102","0.539225999964401","1","1","1","1","1","1","1","1","1"
"250039","img/neutralC/CFD-WM-002-009-N.jpg","img/neutralC/CFD-IF-718-001-N.jpg","img/neutralC/CFD-LF-216-121-N.jpg","1","1","1","0","1","1","0.539225999964401","0.478208400076255","0.580477500101551","1","1","1","1","1","1","1","1","1"
"250039","img/neutralC/CFD-LF-216-121-N.jpg","img/neutralC/CFD-WM-002-009-N.jpg","img/neutralC/CFD-WM-225-127-N.jpg","1","1","1","1","0","0","0.580477500101551","0.539225999964401","0.557755699846894","1","1","1","1","1","1","1","1","1"
"250039","img/neutralC/CFD-WM-225-127-N.jpg","img/neutralC/CFD-LF-216-121-N.jpg","img/neutralC/CFD-IM-674-281-N.jpg","1","1","1","0","1","1","0.557755699846894","0.580477500101551","0.642824799986556","1","1","1","1","1","1","1","1","1"
"250039","img/neutralC/CFD-IM-674-281-N.jpg","img/neutralC/CFD-WM-225-127-N.jpg","img/neutralC/CFD-BF-208-266-N.jpg","1","1","1","1","0","0","0.642824799986556","0.557755699846894","0.51444790000096","1","1","1","1","1","1","1","1","1"
"250039","img/neutralC/CFD-BF-208-266-N.jpg","img/neutralC/CFD-IM-674-281-N.jpg","img/neutralC/CFD-BF-255-140-N.jpg","1","1","1","0","1","1","0.51444790000096","0.642824799986556","0.390249900054187","1","1","1","1","1","1","1","1","1"
"250039","img/neutralC/CFD-BF-255-140-N.jpg","img/neutralC/CFD-BF-208-266-N.jpg","img/neutralC/CFD-BF-028-001-N.jpg","1","1","1","1","0","1","0.390249900054187","0.51444790000096","0.687900300137699","1","1","1","1","1","1","1","1","1"
"250039","img/neutralC/CFD-BF-028-001-N.jpg","img/neutralC/CFD-BF-255-140-N.jpg","img/neutralC/CFD-WF-026-002-N.jpg","1","1","1","1","1","1","0.687900300137699","0.390249900054187","0.399272599956021","1","1","1","1","1","1","1","1","1"
"250039","img/neutralC/CFD-WF-026-002-N.jpg","img/neutralC/CFD-BF-028-001-N.jpg","img/neutralC/CFD-IM-728-041-N.jpg","1","1","1","1","1","0","0.399272599956021","0.687900300137699","0.611407699994743","1","1","1","1","1","1","1","1","1"
"250039","img/neutralC/CFD-IM-728-041-N.jpg","img/neutralC/CFD-WF-026-002-N.jpg","img/neutralC/CFD-LF-236-221-N.jpg","1","1","1","0","1","1","0.611407699994743","0.399272599956021","0.392859699903056","1","1","1","1","1","1","1","1","1"
"250039","img/neutralC/CFD-LF-236-221-N.jpg","img/neutralC/CFD-IM-728-041-N.jpg","img/neutralC/CFD-WF-022-017-N.jpg","1","1","1","1","0","0","0.392859699903056","0.611407699994743","0.491802599979565","1","1","1","1","1","1","1","1","1"
"250039","img/neutralC/CFD-WF-022-017-N.jpg","img/neutralC/CFD-LF-236-221-N.jpg","img/neutralC/CFD-WF-002-004-N.jpg","1","1","0","0","1","0","0.491802599979565","0.392859699903056","0.543025000020862","1","1","1","1","1","1","1","1","1"
"250039","img/neutralC/CFD-WF-002-004-N.jpg","img/neutralC/CFD-WF-022-017-N.jpg","img/neutralC/CFD-BM-029-024-N.jpg","0","1","1","0","0","1","0.543025000020862","0.491802599979565","0.429172100033611","1","1","1","1","1","1","1","1","1"
"250039","img/neutralC/CFD-BM-029-024-N.jpg","img/neutralC/CFD-WF-002-004-N.jpg","img/neutralC/CFD-BM-247-240-N.jpg","1","0","1","1","0","0","0.429172100033611","0.543025000020862","0.582099299877882","1","1","1","1","1","1","1","1","1"
"250039","img/neutralC/CFD-BM-247-240-N.jpg","img/neutralC/CFD-BM-029-024-N.jpg","img/neutralC/CFD-BF-023-010-N.jpg","1","1","1","0","1","1","0.582099299877882","0.429172100033611","0.49243659991771","1","1","1","1","1","1","1","1","1"
"250039","img/neutralC/CFD-BF-023-010-N.jpg","img/neutralC/CFD-BM-247-240-N.jpg","img/neutralC/CFD-MM-319-052-N.jpg","1","1","1","1","0","1","0.49243659991771","0.582099299877882","0.544619899941608","1","1","1","1","1","1","1","1","1"
"250039","img/neutralC/CFD-MM-319-052-N.jpg","img/neutralC/CFD-BF-023-010-N.jpg",NA,"1","1",NA,"1","1",NA,"0.544619899941608","0.49243659991771",NA,"1","1",NA,"1","1",NA,"1","1",NA
"250039","img/neutralC/CFD-BF-044-034-N.jpg",NA,"img/neutralC/CFD-BF-002-001-N.jpg","0",NA,"1","0",NA,"0","0.463547999970615",NA,"0.463654899969697","1",NA,"1","1",NA,"1","1",NA,"1"
"250039","img/neutralC/CFD-BF-002-001-N.jpg","img/neutralC/CFD-BF-044-034-N.jpg","img/neutralC/CFD-IM-696-001-N.jpg","1","0","1","0","0","0","0.463654899969697","0.463547999970615","0.479661999968812","1","1","1","1","1","1","1","1","1"
"250039","img/neutralC/CFD-IM-696-001-N.jpg","img/neutralC/CFD-BF-002-001-N.jpg","img/neutralC/CFD-LF-204-133-N.jpg","1","1","1","0","0","1","0.479661999968812","0.463654899969697","0.402636099839583","1","1","1","1","1","1","1","1","1"
"250039","img/neutralC/CFD-LF-204-133-N.jpg","img/neutralC/CFD-IM-696-001-N.jpg","img/neutralC/CFD-WF-233-112-N.jpg","1","1","1","1","0","1","0.402636099839583","0.479661999968812","0.383418899960816","1","1","1","1","1","1","1","1","1"
"250039","img/neutralC/CFD-WF-233-112-N.jpg","img/neutralC/CFD-LF-204-133-N.jpg","img/neutralC/CFD-WF-029-002-N.jpg","1","1","1","1","1","0","0.383418899960816","0.402636099839583","0.418349400162697","1","1","1","1","1","1","1","1","1"
"250039","img/neutralC/CFD-WF-029-002-N.jpg","img/neutralC/CFD-WF-233-112-N.jpg","img/neutralC/CFD-BF-027-002-N.jpg","1","1","1","0","1","1","0.418349400162697","0.383418899960816","0.325292499968782","1","1","1","1","1","1","1","1","1"
"250039","img/neutralC/CFD-BF-027-002-N.jpg","img/neutralC/CFD-WF-029-002-N.jpg","img/neutralC/CFD-BM-207-024-N.jpg","1","1","1","1","0","1","0.325292499968782","0.418349400162697","0.421295499894768","1","1","1","1","1","1","1","1","1"
"250039","img/neutralC/CFD-BM-207-024-N.jpg","img/neutralC/CFD-BF-027-002-N.jpg","img/neutralC/CFD-IF-677-452-1-N.jpg","1","1","1","1","1","1","0.421295499894768","0.325292499968782","0.35044139996171","1","1","1","1","1","1","1","1","1"
"250039","img/neutralC/CFD-IF-677-452-1-N.jpg","img/neutralC/CFD-BM-207-024-N.jpg","img/neutralC/CFD-IM-726-248-N.jpg","1","1","1","1","1","0","0.35044139996171","0.421295499894768","0.417577799875289","1","1","1","1","1","1","1","1","1"
"250039","img/neutralC/CFD-IM-726-248-N.jpg","img/neutralC/CFD-IF-677-452-1-N.jpg","img/neutralC/CFD-WF-234-086-N.jpg","1","1","1","0","1","1","0.417577799875289","0.35044139996171","0.381089600035921","1","1","1","1","1","1","1","1","1"
"250039","img/neutralC/CFD-WF-234-086-N.jpg","img/neutralC/CFD-IM-726-248-N.jpg","img/neutralC/CFD-BM-241-235-N.jpg","1","1","1","1","0","0","0.381089600035921","0.417577799875289","0.479065800085664","1","1","1","1","1","1","1","1","1"
"250039","img/neutralC/CFD-BM-241-235-N.jpg","img/neutralC/CFD-WF-234-086-N.jpg","img/neutralC/CFD-MF-301-024-N.jpg","1","1","1","0","1","0","0.479065800085664","0.381089600035921","0.547706899931654","1","1","1","1","1","1","1","1","1"
"250039","img/neutralC/CFD-MF-301-024-N.jpg","img/neutralC/CFD-BM-241-235-N.jpg","img/neutralC/CFD-LM-213-061-N.jpg","1","1","1","0","0","0","0.547706899931654","0.479065800085664","0.467965499963611","1","1","1","1","1","1","1","1","1"
"250039","img/neutralC/CFD-LM-213-061-N.jpg","img/neutralC/CFD-MF-301-024-N.jpg","img/neutralC/CFD-AM-230-150-N.jpg","1","1","1","0","0","0","0.467965499963611","0.547706899931654","0.467002799967304","1","1","1","1","1","1","1","1","1"
"250039","img/neutralC/CFD-AM-230-150-N.jpg","img/neutralC/CFD-LM-213-061-N.jpg","img/neutralC/CFD-IF-742-103-N.jpg","1","1","1","0","0","1","0.467002799967304","0.467965499963611","0.380081200040877","1","1","1","1","1","1","1","1","1"
"250039","img/neutralC/CFD-IF-742-103-N.jpg","img/neutralC/CFD-AM-230-150-N.jpg","img/neutralC/CFD-WM-014-002-N.jpg","1","1","1","1","0","0","0.380081200040877","0.467002799967304","0.400975000113249","1","1","1","1","1","1","1","1","1"
"250039","img/neutralC/CFD-WM-014-002-N.jpg","img/neutralC/CFD-IF-742-103-N.jpg","img/neutralC/CFD-IM-707-105-N.jpg","1","1","1","0","1","1","0.400975000113249","0.380081200040877","0.300063600065187","1","1","1","1","1","1","1","1","1"
"250039","img/neutralC/CFD-IM-707-105-N.jpg","img/neutralC/CFD-WM-014-002-N.jpg","img/neutralC/CFD-BM-238-242-N.jpg","1","1","0","1","0","0","0.300063600065187","0.400975000113249","0.41756090009585","1","1","1","1","1","1","1","1","2"
"250039","img/neutralC/CFD-BM-238-242-N.jpg","img/neutralC/CFD-IM-707-105-N.jpg","img/neutralC/CFD-BF-247-179-N.jpg","0","1","1","0","1","0","0.41756090009585","0.300063600065187","0.52178160008043","1","1","1","1","1","1","2","1","1"
"250039","img/neutralC/CFD-BF-247-179-N.jpg","img/neutralC/CFD-BM-238-242-N.jpg","img/neutralC/CFD-WF-208-068-N.jpg","1","0","1","0","0","1","0.52178160008043","0.41756090009585","0.554985799826682","1","1","1","1","1","1","1","2","1"
"250039","img/neutralC/CFD-WF-208-068-N.jpg","img/neutralC/CFD-BF-247-179-N.jpg","img/neutralC/CFD-WM-034-030-N.jpg","1","1","1","1","0","1","0.554985799826682","0.52178160008043","0.495952700031921","1","1","1","1","1","1","1","1","1"
"250039","img/neutralC/CFD-WM-034-030-N.jpg","img/neutralC/CFD-WF-208-068-N.jpg","img/neutralC/CFD-BM-036-003-N.jpg","1","1","1","1","1","1","0.495952700031921","0.554985799826682","0.40444379998371","1","1","1","1","1","1","1","1","1"
"250039","img/neutralC/CFD-BM-036-003-N.jpg","img/neutralC/CFD-WM-034-030-N.jpg","img/neutralC/CFD-BF-006-017-N.jpg","1","1","1","1","1","0","0.40444379998371","0.495952700031921","0.489383799955249","1","1","1","1","1","1","1","1","1"
"250039","img/neutralC/CFD-BF-006-017-N.jpg","img/neutralC/CFD-BM-036-003-N.jpg","img/neutralC/CFD-BF-207-004-N.jpg","1","1","1","0","1","1","0.489383799955249","0.40444379998371","0.453086700057611","1","1","1","1","1","1","1","1","1"
"250039","img/neutralC/CFD-BF-207-004-N.jpg","img/neutralC/CFD-BF-006-017-N.jpg","img/neutralC/CFD-IF-729-393-N.jpg","1","1","1","1","0","0","0.453086700057611","0.489383799955249","0.472124200081453","1","1","1","1","1","1","1","1","1"
"250039","img/neutralC/CFD-IF-729-393-N.jpg","img/neutralC/CFD-BF-207-004-N.jpg","img/neutralC/CFD-BF-011-002-N.jpg","1","1","1","0","1","1","0.472124200081453","0.453086700057611","0.491983599960804","1","1","1","1","1","1","1","1","1"
"250039","img/neutralC/CFD-BF-011-002-N.jpg","img/neutralC/CFD-IF-729-393-N.jpg","img/neutralC/CFD-IM-721-341-N.jpg","1","1","1","1","0","1","0.491983599960804","0.472124200081453","0.409395100083202","1","1","1","1","1","1","1","1","1"
"250039","img/neutralC/CFD-IM-721-341-N.jpg","img/neutralC/CFD-BF-011-002-N.jpg","img/neutralC/CFD-BF-214-308-N.jpg","1","1","1","1","1","1","0.409395100083202","0.491983599960804","0.439376399852335","1","1","1","1","1","1","1","1","1"
"250039","img/neutralC/CFD-BF-214-308-N.jpg","img/neutralC/CFD-IM-721-341-N.jpg","img/neutralC/CFD-WM-248-036-N.jpg","1","1","1","1","1","1","0.439376399852335","0.409395100083202","0.581383200129494","1","1","1","1","1","1","1","1","1"
"250039","img/neutralC/CFD-WM-248-036-N.jpg","img/neutralC/CFD-BF-214-308-N.jpg","img/neutralC/CFD-BF-236-177-N.jpg","1","1","0","1","1","0","0.581383200129494","0.439376399852335","0.516260999953374","1","1","1","1","1","1","1","1","1"
"250039","img/neutralC/CFD-BF-236-177-N.jpg","img/neutralC/CFD-WM-248-036-N.jpg","img/neutralC/CFD-BF-036-027-N.jpg","0","1","1","0","1","0","0.516260999953374","0.581383200129494","0.523325499845669","1","1","1","1","1","1","1","1","1"
"250039","img/neutralC/CFD-BF-036-027-N.jpg","img/neutralC/CFD-BF-236-177-N.jpg",NA,"1","0",NA,"0","0",NA,"0.523325499845669","0.516260999953374",NA,"1","1",NA,"1","1",NA,"1","1",NA
"250039","img/neutralC/CFD-MF-307-002-N.jpg",NA,"img/neutralC/CFD-AF-246-242-N.jpg","1",NA,"1","1",NA,"0","0.460198300192133",NA,"0.592443300178275","1",NA,"1","1",NA,"1","1",NA,"1"
"250039","img/neutralC/CFD-AF-246-242-N.jpg","img/neutralC/CFD-MF-307-002-N.jpg","img/neutralC/CFD-BF-040-003-N.jpg","1","1","1","0","1","1","0.592443300178275","0.460198300192133","0.429085099836811","1","1","1","1","1","1","1","1","1"
"250039","img/neutralC/CFD-BF-040-003-N.jpg","img/neutralC/CFD-AF-246-242-N.jpg","img/neutralC/CFD-AF-234-208-N.jpg","1","1","1","1","0","1","0.429085099836811","0.592443300178275","0.568955600028858","1","1","1","1","1","1","1","1","1"
"250039","img/neutralC/CFD-AF-234-208-N.jpg","img/neutralC/CFD-BF-040-003-N.jpg","img/neutralC/CFD-WM-253-119-N.jpg","1","1","1","1","1","1","0.568955600028858","0.429085099836811","0.389188400004059","1","1","1","1","1","1","1","1","1"
"250039","img/neutralC/CFD-WM-253-119-N.jpg","img/neutralC/CFD-AF-234-208-N.jpg","img/neutralC/CFD-IF-636-011-N.jpg","1","1","1","1","1","1","0.389188400004059","0.568955600028858","0.344187200069427","1","1","1","1","1","1","1","1","1"
"250039","img/neutralC/CFD-IF-636-011-N.jpg","img/neutralC/CFD-WM-253-119-N.jpg","img/neutralC/CFD-AF-205-155-N.jpg","1","1","1","1","1","0","0.344187200069427","0.389188400004059","0.485968299908563","1","1","1","1","1","1","1","1","1"
"250039","img/neutralC/CFD-AF-205-155-N.jpg","img/neutralC/CFD-IF-636-011-N.jpg","img/neutralC/CFD-BM-004-002-N.jpg","1","1","1","0","1","0","0.485968299908563","0.344187200069427","0.442644700175151","1","1","1","1","1","1","1","1","1"
"250039","img/neutralC/CFD-BM-004-002-N.jpg","img/neutralC/CFD-AF-205-155-N.jpg","img/neutralC/CFD-BM-215-155-N.jpg","1","1","0","0","0","0","0.442644700175151","0.485968299908563","0.415500800125301","1","1","1","1","1","1","1","1","1"
"250039","img/neutralC/CFD-BM-215-155-N.jpg","img/neutralC/CFD-BM-004-002-N.jpg","img/neutralC/CFD-MF-302-027-N.jpg","0","1","1","0","0","0","0.415500800125301","0.442644700175151","0.508783000055701","1","1","1","1","1","1","1","1","1"
"250039","img/neutralC/CFD-MF-302-027-N.jpg","img/neutralC/CFD-BM-215-155-N.jpg","img/neutralC/CFD-AF-250-200-N.jpg","1","0","1","0","0","1","0.508783000055701","0.415500800125301","0.450890299864113","1","1","1","1","1","1","1","1","1"
"250039","img/neutralC/CFD-AF-250-200-N.jpg","img/neutralC/CFD-MF-302-027-N.jpg","img/neutralC/CFD-AF-244-168-N.jpg","1","1","1","1","0","0","0.450890299864113","0.508783000055701","0.507975500077009","1","1","1","1","1","1","1","1","1"
"250039","img/neutralC/CFD-AF-244-168-N.jpg","img/neutralC/CFD-AF-250-200-N.jpg","img/neutralC/CFD-BF-020-002-N.jpg","1","1","1","0","1","1","0.507975500077009","0.450890299864113","0.792604099959135","1","1","1","1","1","1","1","1","1"
"250039","img/neutralC/CFD-BF-020-002-N.jpg","img/neutralC/CFD-AF-244-168-N.jpg","img/neutralC/CFD-IM-669-111-N.jpg","1","1","1","1","0","1","0.792604099959135","0.507975500077009","0.404581800103188","1","1","1","1","1","1","1","1","2"
"250039","img/neutralC/CFD-IM-669-111-N.jpg","img/neutralC/CFD-BF-020-002-N.jpg","img/neutralC/CFD-BF-217-189-N.jpg","1","1","1","1","1","0","0.404581800103188","0.792604099959135","0.57130749989301","1","1","1","1","1","1","2","1","1"
"250039","img/neutralC/CFD-BF-217-189-N.jpg","img/neutralC/CFD-IM-669-111-N.jpg","img/neutralC/CFD-IM-632-097-N.jpg","1","1","1","0","1","0","0.57130749989301","0.404581800103188","0.555241300025955","1","1","1","1","1","1","1","2","1"
"250039","img/neutralC/CFD-IM-632-097-N.jpg","img/neutralC/CFD-BF-217-189-N.jpg","img/neutralC/CFD-AM-233-236-N.jpg","1","1","1","0","0","1","0.555241300025955","0.57130749989301","0.604919100180268","1","1","1","1","1","1","1","1","1"
"250039","img/neutralC/CFD-AM-233-236-N.jpg","img/neutralC/CFD-IM-632-097-N.jpg","img/neutralC/CFD-IM-678-482-N.jpg","1","1","1","1","0","0","0.604919100180268","0.555241300025955","0.610777799971402","1","1","1","1","1","1","1","1","1"
"250039","img/neutralC/CFD-IM-678-482-N.jpg","img/neutralC/CFD-AM-233-236-N.jpg","img/neutralC/CFD-AM-245-111-N.jpg","1","1","1","0","1","1","0.610777799971402","0.604919100180268","0.517953999806195","1","1","1","1","1","1","1","1","1"
"250039","img/neutralC/CFD-AM-245-111-N.jpg","img/neutralC/CFD-IM-678-482-N.jpg","img/neutralC/CFD-AF-213-126-N.jpg","1","1","1","1","0","1","0.517953999806195","0.610777799971402","0.459674299927428","1","1","1","1","1","1","1","1","1"
"250039","img/neutralC/CFD-AF-213-126-N.jpg","img/neutralC/CFD-AM-245-111-N.jpg","img/neutralC/CFD-WF-210-086-N.jpg","1","1","1","1","1","0","0.459674299927428","0.517953999806195","0.582972600124776","1","1","1","1","1","1","1","1","1"
"250039","img/neutralC/CFD-WF-210-086-N.jpg","img/neutralC/CFD-AF-213-126-N.jpg","img/neutralC/CFD-BF-206-143-N.jpg","1","1","1","0","1","1","0.582972600124776","0.459674299927428","0.470361799933016","1","1","1","1","1","1","1","1","1"
"250039","img/neutralC/CFD-BF-206-143-N.jpg","img/neutralC/CFD-WF-210-086-N.jpg","img/neutralC/CFD-AM-225-102-N.jpg","1","1","1","1","0","0","0.470361799933016","0.582972600124776","0.541377899935469","1","1","1","1","1","1","1","1","1"
"250039","img/neutralC/CFD-AM-225-102-N.jpg","img/neutralC/CFD-BF-206-143-N.jpg","img/neutralC/CFD-LM-204-001-N.jpg","1","1","1","0","1","0","0.541377899935469","0.470361799933016","0.514779899967834","1","1","1","1","1","1","1","1","1"
"250039","img/neutralC/CFD-LM-204-001-N.jpg","img/neutralC/CFD-AM-225-102-N.jpg","img/neutralC/CFD-WF-235-121-N.jpg","1","1","1","0","0","0","0.514779899967834","0.541377899935469","0.748095800168812","1","1","1","1","1","1","1","1","1"
"250039","img/neutralC/CFD-WF-235-121-N.jpg","img/neutralC/CFD-LM-204-001-N.jpg","img/neutralC/CFD-BF-235-168-N.jpg","1","1","1","0","0","1","0.748095800168812","0.514779899967834","0.496867600129917","1","1","1","1","1","1","1","1","1"
"250039","img/neutralC/CFD-BF-235-168-N.jpg","img/neutralC/CFD-WF-235-121-N.jpg","img/neutralC/CFD-IM-635-010-N.jpg","1","1","1","1","0","1","0.496867600129917","0.748095800168812","0.363364799879491","1","1","1","1","1","1","1","1","1"
"250039","img/neutralC/CFD-IM-635-010-N.jpg","img/neutralC/CFD-BF-235-168-N.jpg","img/neutralC/CFD-WM-018-002-N.jpg","1","1","1","1","1","0","0.363364799879491","0.496867600129917","0.548987900139764","1","1","1","1","1","1","1","1","1"
"250039","img/neutralC/CFD-WM-018-002-N.jpg","img/neutralC/CFD-IM-635-010-N.jpg","img/neutralC/CFD-LM-241-125-N.jpg","1","1","1","0","1","1","0.548987900139764","0.363364799879491","0.50924800010398","1","1","1","1","1","1","1","1","1"
"250039","img/neutralC/CFD-LM-241-125-N.jpg","img/neutralC/CFD-WM-018-002-N.jpg","img/neutralC/CFD-IF-732-260-N.jpg","1","1","1","1","0","0","0.50924800010398","0.548987900139764","0.547467899974436","1","1","1","1","1","1","1","1","1"
"250039","img/neutralC/CFD-IF-732-260-N.jpg","img/neutralC/CFD-LM-241-125-N.jpg","img/neutralC/CFD-BF-042-026-N.jpg","1","1","1","0","1","1","0.547467899974436","0.50924800010398","0.53791689989157","1","1","1","1","1","1","1","1","1"
"250039","img/neutralC/CFD-BF-042-026-N.jpg","img/neutralC/CFD-IF-732-260-N.jpg","img/neutralC/CFD-LF-239-148-N.jpg","1","1","1","1","0","0","0.53791689989157","0.547467899974436","0.516168999951333","1","1","1","1","1","1","1","1","1"
"250039","img/neutralC/CFD-LF-239-148-N.jpg","img/neutralC/CFD-BF-042-026-N.jpg",NA,"1","1",NA,"0","1",NA,"0.516168999951333","0.53791689989157",NA,"1","1",NA,"1","1",NA,"1","1",NA
"250039","img/neutralC/CFD-LF-238-154-N.jpg",NA,"img/neutralC/CFD-IM-689-263-N.jpg","1",NA,"1","1",NA,"1","0.523790499893948",NA,"0.49704369995743","1",NA,"1","1",NA,"1","1",NA,"1"
"250039","img/neutralC/CFD-IM-689-263-N.jpg","img/neutralC/CFD-LF-238-154-N.jpg","img/neutralC/CFD-AM-249-163-N.jpg","1","1","1","1","1","1","0.49704369995743","0.523790499893948","0.455709199886769","1","1","1","1","1","1","1","1","1"
"250039","img/neutralC/CFD-AM-249-163-N.jpg","img/neutralC/CFD-IM-689-263-N.jpg","img/neutralC/CFD-BM-030-003-N.jpg","1","1","1","1","1","0","0.455709199886769","0.49704369995743","0.55700400006026","1","1","1","1","1","1","1","1","1"
"250039","img/neutralC/CFD-BM-030-003-N.jpg","img/neutralC/CFD-AM-249-163-N.jpg","img/neutralC/CFD-BM-227-191-N.jpg","1","1","1","0","1","1","0.55700400006026","0.455709199886769","0.605963699985296","1","1","1","1","1","1","1","1","1"
"250039","img/neutralC/CFD-BM-227-191-N.jpg","img/neutralC/CFD-BM-030-003-N.jpg","img/neutralC/CFD-LF-222-147-N.jpg","1","1","1","1","0","0","0.605963699985296","0.55700400006026","0.478582300012931","1","1","1","1","1","1","1","1","1"
"250039","img/neutralC/CFD-LF-222-147-N.jpg","img/neutralC/CFD-BM-227-191-N.jpg","img/neutralC/CFD-WM-028-003-N.jpg","1","1","1","0","1","1","0.478582300012931","0.605963699985296","0.49615679983981","1","1","1","1","1","1","1","1","1"
"250039","img/neutralC/CFD-WM-028-003-N.jpg","img/neutralC/CFD-LF-222-147-N.jpg","img/neutralC/CFD-BM-009-002-N.jpg","1","1","1","1","0","1","0.49615679983981","0.478582300012931","0.496109500061721","1","1","1","1","1","1","1","1","1"
"250039","img/neutralC/CFD-BM-009-002-N.jpg","img/neutralC/CFD-WM-028-003-N.jpg","img/neutralC/CFD-WF-221-005-N.jpg","1","1","0","1","1","0","0.496109500061721","0.49615679983981","0.444334900006652","1","1","1","1","1","1","1","1","1"
"250039","img/neutralC/CFD-WF-221-005-N.jpg","img/neutralC/CFD-BM-009-002-N.jpg","img/neutralC/CFD-IM-615-167-N.jpg","0","1","1","0","1","0","0.444334900006652","0.496109500061721","0.449801500188187","1","1","1","1","1","1","1","1","1"
"250039","img/neutralC/CFD-IM-615-167-N.jpg","img/neutralC/CFD-WF-221-005-N.jpg","img/neutralC/CFD-MF-328-020-N.jpg","1","0","1","0","0","0","0.449801500188187","0.444334900006652","0.505335099995136","1","1","1","1","1","1","1","1","1"
"250039","img/neutralC/CFD-MF-328-020-N.jpg","img/neutralC/CFD-IM-615-167-N.jpg","img/neutralC/CFD-WF-241-210-N.jpg","1","1","0","0","0","0","0.505335099995136","0.449801500188187","0.406996699981391","1","1","1","1","1","1","1","1","1"
"250039","img/neutralC/CFD-WF-241-210-N.jpg","img/neutralC/CFD-MF-328-020-N.jpg","img/neutralC/CFD-MM-306-010-N.jpg","0","1","1","0","0","0","0.406996699981391","0.505335099995136","0.556498300051317","1","1","1","1","1","1","1","1","1"
"250039","img/neutralC/CFD-MM-306-010-N.jpg","img/neutralC/CFD-WF-241-210-N.jpg","img/neutralC/CFD-WM-023-001-N.jpg","1","0","1","0","0","0","0.556498300051317","0.406996699981391","0.563028800068423","1","1","1","1","1","1","1","1","1"
"250039","img/neutralC/CFD-WM-023-001-N.jpg","img/neutralC/CFD-MM-306-010-N.jpg","img/neutralC/CFD-BF-244-231-N.jpg","1","1","1","0","0","1","0.563028800068423","0.556498300051317","0.591347600100562","1","1","1","1","1","1","1","1","1"
"250039","img/neutralC/CFD-BF-244-231-N.jpg","img/neutralC/CFD-WM-023-001-N.jpg","img/neutralC/CFD-AF-237-223-N.jpg","1","1","1","1","0","0","0.591347600100562","0.563028800068423","0.541623100172728","1","1","1","1","1","1","1","1","1"
"250039","img/neutralC/CFD-AF-237-223-N.jpg","img/neutralC/CFD-BF-244-231-N.jpg","img/neutralC/CFD-BM-021-021-N.jpg","1","1","1","0","1","1","0.541623100172728","0.591347600100562","0.494037100113928","1","1","1","1","1","1","1","1","1"
"250039","img/neutralC/CFD-BM-021-021-N.jpg","img/neutralC/CFD-AF-237-223-N.jpg","img/neutralC/CFD-IM-697-015-N.jpg","1","1","1","1","0","1","0.494037100113928","0.541623100172728","0.4830304000061","1","1","1","1","1","1","1","1","1"
"250039","img/neutralC/CFD-IM-697-015-N.jpg","img/neutralC/CFD-BM-021-021-N.jpg","img/neutralC/CFD-WF-207-014-N.jpg","1","1","1","1","1","1","0.4830304000061","0.494037100113928","0.503920499933884","1","1","1","1","1","1","1","1","1"
"250039","img/neutralC/CFD-WF-207-014-N.jpg","img/neutralC/CFD-IM-697-015-N.jpg","img/neutralC/CFD-IF-676-017-N.jpg","1","1","1","1","1","1","0.503920499933884","0.4830304000061","0.377202900126576","1","1","1","1","1","1","1","1","1"
"250039","img/neutralC/CFD-IF-676-017-N.jpg","img/neutralC/CFD-WF-207-014-N.jpg","img/neutralC/CFD-WF-243-148-N.jpg","1","1","1","1","1","0","0.377202900126576","0.503920499933884","0.45708019984886","1","1","1","1","1","1","1","1","1"
"250039","img/neutralC/CFD-WF-243-148-N.jpg","img/neutralC/CFD-IF-676-017-N.jpg","img/neutralC/CFD-AM-219-101-N.jpg","1","1","1","0","1","0","0.45708019984886","0.377202900126576","0.515299299964681","1","1","1","1","1","1","1","1","1"
"250039","img/neutralC/CFD-AM-219-101-N.jpg","img/neutralC/CFD-WF-243-148-N.jpg","img/neutralC/CFD-BF-012-001-N.jpg","1","1","1","0","0","0","0.515299299964681","0.45708019984886","0.553017699858174","1","1","1","1","1","1","1","1","1"
"250039","img/neutralC/CFD-BF-012-001-N.jpg","img/neutralC/CFD-AM-219-101-N.jpg","img/neutralC/CFD-WF-009-001-N.jpg","1","1","1","0","0","1","0.553017699858174","0.515299299964681","0.539644400123507","1","1","1","1","1","1","1","1","1"
"250039","img/neutralC/CFD-WF-009-001-N.jpg","img/neutralC/CFD-BF-012-001-N.jpg","img/neutralC/CFD-AM-205-153-N.jpg","1","1","1","1","0","1","0.539644400123507","0.553017699858174","0.586662700166926","1","1","1","1","1","1","1","1","1"
"250039","img/neutralC/CFD-AM-205-153-N.jpg","img/neutralC/CFD-WF-009-001-N.jpg","img/neutralC/CFD-WM-025-002-N.jpg","1","1","0","1","1","0","0.586662700166926","0.539644400123507","0.781070899916813","1","1","1","1","1","1","1","1","1"
"250039","img/neutralC/CFD-WM-025-002-N.jpg","img/neutralC/CFD-AM-205-153-N.jpg","img/neutralC/CFD-AM-243-212-N.jpg","0","1","1","0","1","1","0.781070899916813","0.586662700166926","0.384608800057322","1","1","1","1","1","1","1","1","1"
"250039","img/neutralC/CFD-AM-243-212-N.jpg","img/neutralC/CFD-WM-025-002-N.jpg","img/neutralC/CFD-BM-020-001-N.jpg","1","0","1","1","0","0","0.384608800057322","0.781070899916813","0.479470599908382","1","1","1","1","1","1","1","1","1"
"250039","img/neutralC/CFD-BM-020-001-N.jpg","img/neutralC/CFD-AM-243-212-N.jpg","img/neutralC/CFD-BM-043-071-N.jpg","1","1","1","0","1","0","0.479470599908382","0.384608800057322","0.4366417999845","1","1","1","1","1","1","1","1","1"
"250039","img/neutralC/CFD-BM-043-071-N.jpg","img/neutralC/CFD-BM-020-001-N.jpg","img/neutralC/CFD-LF-212-066-N.jpg","1","1","1","0","0","1","0.4366417999845","0.479470599908382","0.398719399934635","1","1","1","1","1","1","1","1","1"
"250039","img/neutralC/CFD-LF-212-066-N.jpg","img/neutralC/CFD-BM-043-071-N.jpg","img/neutralC/CFD-IM-606-008-N.jpg","1","1","1","1","0","0","0.398719399934635","0.4366417999845","0.459105900023133","1","1","1","1","1","1","1","1","1"
"250039","img/neutralC/CFD-IM-606-008-N.jpg","img/neutralC/CFD-LF-212-066-N.jpg","img/neutralC/CFD-LM-240-013-N.jpg","1","1","1","0","1","1","0.459105900023133","0.398719399934635","0.428657399956137","1","1","1","1","1","1","1","1","1"
"250039","img/neutralC/CFD-LM-240-013-N.jpg","img/neutralC/CFD-IM-606-008-N.jpg",NA,"1","1",NA,"1","0",NA,"0.428657399956137","0.459105900023133",NA,"1","1",NA,"1","1",NA,"1","1",NA
