"participant_id","current_trial_face","pre_trial_face","post_trial_face","current_trial_accuracy","pre_trial_accuracy","post_trial_accuracy","current_trial_congruency","pre_trial_congruency","post_trial_congruency","current_trial_rt","pre_trial_rt","post_trial_rt","current_trial_responded","pre_trial_responded","post_trial_responded","current_trial_legitResponse","pre_trial_legitResponse","post_trial_legitResponse","current_trial_resp_nums","pre_trial_resp_nums","post_trial_resp_nums"
"250031","img/neutralC/CFD-LF-218-072-N.jpg",NA,"img/neutralC/CFD-WM-219-008-N.jpg","1",NA,"1","0",NA,"0","0.829398900037631",NA,"0.712780199944973","1",NA,"1","1",NA,"1","1",NA,"1"
"250031","img/neutralC/CFD-WM-219-008-N.jpg","img/neutralC/CFD-LF-218-072-N.jpg","img/neutralC/CFD-WM-020-001-N.jpg","1","1","1","0","0","1","0.712780199944973","0.829398900037631","0.509378699935041","1","1","1","1","1","1","1","1","1"
"250031","img/neutralC/CFD-WM-020-001-N.jpg","img/neutralC/CFD-WM-219-008-N.jpg","img/neutralC/CFD-LM-237-264-N.jpg","1","1","1","1","0","0","0.509378699935041","0.712780199944973","0.516531600034796","1","1","1","1","1","1","1","1","1"
"250031","img/neutralC/CFD-LM-237-264-N.jpg","img/neutralC/CFD-WM-020-001-N.jpg","img/neutralC/CFD-BF-038-037-N.jpg","1","1","1","0","1","1","0.516531600034796","0.509378699935041","0.589088600012474","1","1","1","1","1","1","1","1","1"
"250031","img/neutralC/CFD-BF-038-037-N.jpg","img/neutralC/CFD-LM-237-264-N.jpg","img/neutralC/CFD-WM-004-010-N.jpg","1","1","1","1","0","0","0.589088600012474","0.516531600034796","0.791431099991314","1","1","1","1","1","1","1","1","1"
"250031","img/neutralC/CFD-WM-004-010-N.jpg","img/neutralC/CFD-BF-038-037-N.jpg","img/neutralC/CFD-IF-650-315-N.jpg","1","1","1","0","1","0","0.791431099991314","0.589088600012474","0.581419300055131","1","1","1","1","1","1","1","1","1"
"250031","img/neutralC/CFD-IF-650-315-N.jpg","img/neutralC/CFD-WM-004-010-N.jpg","img/neutralC/CFD-WF-036-023-N.jpg","1","1","1","0","0","0","0.581419300055131","0.791431099991314","0.780565000022762","1","1","1","1","1","1","1","1","1"
"250031","img/neutralC/CFD-WF-036-023-N.jpg","img/neutralC/CFD-IF-650-315-N.jpg","img/neutralC/CFD-AM-251-124-N.jpg","1","1","1","0","0","0","0.780565000022762","0.581419300055131","0.701601999928243","1","1","1","1","1","1","1","1","1"
"250031","img/neutralC/CFD-AM-251-124-N.jpg","img/neutralC/CFD-WF-036-023-N.jpg","img/neutralC/CFD-LF-220-120-N.jpg","1","1","1","0","0","1","0.701601999928243","0.780565000022762","0.627857699990273","1","1","1","1","1","1","1","1","1"
"250031","img/neutralC/CFD-LF-220-120-N.jpg","img/neutralC/CFD-AM-251-124-N.jpg","img/neutralC/CFD-BM-253-004-N.jpg","1","1","1","1","0","1","0.627857699990273","0.701601999928243","0.783763000043109","1","1","1","1","1","1","1","1","1"
"250031","img/neutralC/CFD-BM-253-004-N.jpg","img/neutralC/CFD-LF-220-120-N.jpg","img/neutralC/CFD-IM-645-001-N.jpg","1","1","1","1","1","0","0.783763000043109","0.627857699990273","0.638750099926256","1","1","1","1","1","1","1","1","1"
"250031","img/neutralC/CFD-IM-645-001-N.jpg","img/neutralC/CFD-BM-253-004-N.jpg","img/neutralC/CFD-BF-229-179-N.jpg","1","1","1","0","1","0","0.638750099926256","0.783763000043109","0.667761099990457","1","1","1","1","1","1","1","1","1"
"250031","img/neutralC/CFD-BF-229-179-N.jpg","img/neutralC/CFD-IM-645-001-N.jpg","img/neutralC/CFD-MF-333-012-N.jpg","1","1","1","0","0","0","0.667761099990457","0.638750099926256","0.742477199994028","1","1","1","1","1","1","1","1","1"
"250031","img/neutralC/CFD-MF-333-012-N.jpg","img/neutralC/CFD-BF-229-179-N.jpg","img/neutralC/CFD-MF-352-054-N.jpg","1","1","1","0","0","0","0.742477199994028","0.667761099990457","0.686429900000803","1","1","1","1","1","1","1","1","1"
"250031","img/neutralC/CFD-MF-352-054-N.jpg","img/neutralC/CFD-MF-333-012-N.jpg","img/neutralC/CFD-AM-242-176-N.jpg","1","1","1","0","0","1","0.686429900000803","0.742477199994028","0.918050999986008","1","1","1","1","1","1","1","1","1"
"250031","img/neutralC/CFD-AM-242-176-N.jpg","img/neutralC/CFD-MF-352-054-N.jpg","img/neutralC/CFD-BF-226-119-N.jpg","1","1","1","1","0","1","0.918050999986008","0.686429900000803","0.579334500012919","1","1","1","1","1","1","1","1","1"
"250031","img/neutralC/CFD-BF-226-119-N.jpg","img/neutralC/CFD-AM-242-176-N.jpg","img/neutralC/CFD-IF-623-129-N.jpg","1","1","1","1","1","1","0.579334500012919","0.918050999986008","0.587056000018492","1","1","1","1","1","1","1","1","1"
"250031","img/neutralC/CFD-IF-623-129-N.jpg","img/neutralC/CFD-BF-226-119-N.jpg","img/neutralC/CFD-IM-671-601-N.jpg","1","1","1","1","1","0","0.587056000018492","0.579334500012919","0.473215700010769","1","1","1","1","1","1","1","1","1"
"250031","img/neutralC/CFD-IM-671-601-N.jpg","img/neutralC/CFD-IF-623-129-N.jpg","img/neutralC/CFD-IM-743-006-N.jpg","1","1","1","0","1","1","0.473215700010769","0.587056000018492","0.661767300101928","1","1","1","1","1","1","1","1","1"
"250031","img/neutralC/CFD-IM-743-006-N.jpg","img/neutralC/CFD-IM-671-601-N.jpg","img/neutralC/CFD-MF-359-019-N.jpg","1","1","1","1","0","0","0.661767300101928","0.473215700010769","0.536254600039683","1","1","1","1","1","1","1","1","1"
"250031","img/neutralC/CFD-MF-359-019-N.jpg","img/neutralC/CFD-IM-743-006-N.jpg","img/neutralC/CFD-WM-033-025-N.jpg","1","1","1","0","1","1","0.536254600039683","0.661767300101928","0.663942200015299","1","1","1","1","1","1","1","1","1"
"250031","img/neutralC/CFD-WM-033-025-N.jpg","img/neutralC/CFD-MF-359-019-N.jpg","img/neutralC/CFD-AM-211-052-N.jpg","1","1","1","1","0","1","0.663942200015299","0.536254600039683","0.610577099956572","1","1","1","1","1","1","1","1","1"
"250031","img/neutralC/CFD-AM-211-052-N.jpg","img/neutralC/CFD-WM-033-025-N.jpg","img/neutralC/CFD-WF-200-099-N.jpg","1","1","1","1","1","0","0.610577099956572","0.663942200015299","0.675038899993524","1","1","1","1","1","1","1","1","1"
"250031","img/neutralC/CFD-WF-200-099-N.jpg","img/neutralC/CFD-AM-211-052-N.jpg","img/neutralC/CFD-LM-228-188-N.jpg","1","1","1","0","1","1","0.675038899993524","0.610577099956572","0.650420299964026","1","1","1","1","1","1","1","1","1"
"250031","img/neutralC/CFD-LM-228-188-N.jpg","img/neutralC/CFD-WF-200-099-N.jpg","img/neutralC/CFD-IM-703-182-N.jpg","1","1","1","1","0","1","0.650420299964026","0.675038899993524","0.615090899984352","1","1","1","1","1","1","1","1","1"
"250031","img/neutralC/CFD-IM-703-182-N.jpg","img/neutralC/CFD-LM-228-188-N.jpg","img/neutralC/CFD-IM-616-214-N.jpg","1","1","1","1","1","0","0.615090899984352","0.650420299964026","0.591272299992852","1","1","1","1","1","1","1","1","1"
"250031","img/neutralC/CFD-IM-616-214-N.jpg","img/neutralC/CFD-IM-703-182-N.jpg","img/neutralC/CFD-BM-225-154-N.jpg","1","1","1","0","1","1","0.591272299992852","0.615090899984352","0.562228900031187","1","1","1","1","1","1","1","1","1"
"250031","img/neutralC/CFD-BM-225-154-N.jpg","img/neutralC/CFD-IM-616-214-N.jpg","img/neutralC/CFD-BF-232-187-N.jpg","1","1","1","1","0","1","0.562228900031187","0.591272299992852","0.703664999920875","1","1","1","1","1","1","1","1","1"
"250031","img/neutralC/CFD-BF-232-187-N.jpg","img/neutralC/CFD-BM-225-154-N.jpg","img/neutralC/CFD-WM-235-147-N.jpg","1","1","1","1","1","0","0.703664999920875","0.562228900031187","0.673932899953797","1","1","1","1","1","1","1","1","1"
"250031","img/neutralC/CFD-WM-235-147-N.jpg","img/neutralC/CFD-BF-232-187-N.jpg","img/neutralC/CFD-WF-214-122-N.jpg","1","1","1","0","1","1","0.673932899953797","0.703664999920875","0.492818799917586","1","1","1","1","1","1","1","1","1"
"250031","img/neutralC/CFD-WF-214-122-N.jpg","img/neutralC/CFD-WM-235-147-N.jpg","img/neutralC/CFD-WF-001-003-N.jpg","1","1","1","1","0","1","0.492818799917586","0.673932899953797","0.557300199987367","1","1","1","1","1","1","1","1","1"
"250031","img/neutralC/CFD-WF-001-003-N.jpg","img/neutralC/CFD-WF-214-122-N.jpg",NA,"1","1",NA,"1","1",NA,"0.557300199987367","0.492818799917586",NA,"1","1",NA,"1","1",NA,"1","1",NA
"250031","img/neutralC/CFD-BM-248-128-N.jpg",NA,"img/neutralC/CFD-IF-642-295-N.jpg","0",NA,"1","0",NA,"1","1.14446530002169",NA,"0.495354899903759","1",NA,"1","1",NA,"1","1",NA,"1"
"250031","img/neutralC/CFD-IF-642-295-N.jpg","img/neutralC/CFD-BM-248-128-N.jpg","img/neutralC/CFD-WM-019-003-N.jpg","1","0","1","1","0","1","0.495354899903759","1.14446530002169","0.444281300064176","1","1","1","1","1","1","1","1","1"
"250031","img/neutralC/CFD-WM-019-003-N.jpg","img/neutralC/CFD-IF-642-295-N.jpg","img/neutralC/CFD-WM-006-002-N.jpg","1","1","1","1","1","0","0.444281300064176","0.495354899903759","0.451940899947658","1","1","1","1","1","1","1","1","1"
"250031","img/neutralC/CFD-WM-006-002-N.jpg","img/neutralC/CFD-WM-019-003-N.jpg","img/neutralC/CFD-LM-243-075-N.jpg","1","1","1","0","1","0","0.451940899947658","0.444281300064176","0.455542499898002","1","1","1","1","1","1","1","1","1"
"250031","img/neutralC/CFD-LM-243-075-N.jpg","img/neutralC/CFD-WM-006-002-N.jpg","img/neutralC/CFD-BF-202-109-N.jpg","1","1","1","0","0","1","0.455542499898002","0.451940899947658","0.518837000010535","1","1","1","1","1","1","1","1","1"
"250031","img/neutralC/CFD-BF-202-109-N.jpg","img/neutralC/CFD-LM-243-075-N.jpg","img/neutralC/CFD-LM-201-057-N.jpg","1","1","1","1","0","1","0.518837000010535","0.455542499898002","0.435191700002179","1","1","1","1","1","1","1","1","1"
"250031","img/neutralC/CFD-LM-201-057-N.jpg","img/neutralC/CFD-BF-202-109-N.jpg","img/neutralC/CFD-BM-205-001-N.jpg","1","1","1","1","1","0","0.435191700002179","0.518837000010535","0.492083599907346","1","1","1","1","1","1","1","1","1"
"250031","img/neutralC/CFD-BM-205-001-N.jpg","img/neutralC/CFD-LM-201-057-N.jpg","img/neutralC/CFD-BF-041-001-N.jpg","1","1","1","0","1","1","0.492083599907346","0.435191700002179","0.487668000045232","1","1","1","1","1","1","1","1","1"
"250031","img/neutralC/CFD-BF-041-001-N.jpg","img/neutralC/CFD-BM-205-001-N.jpg","img/neutralC/CFD-MF-335-002-N.jpg","1","1","1","1","0","0","0.487668000045232","0.492083599907346","0.633515599998645","1","1","1","1","1","1","1","1","1"
"250031","img/neutralC/CFD-MF-335-002-N.jpg","img/neutralC/CFD-BF-041-001-N.jpg","img/neutralC/CFD-WF-017-003-N.jpg","1","1","1","0","1","1","0.633515599998645","0.487668000045232","0.609538799966685","1","1","1","1","1","1","1","1","1"
"250031","img/neutralC/CFD-WF-017-003-N.jpg","img/neutralC/CFD-MF-335-002-N.jpg","img/neutralC/CFD-BF-228-212-N.jpg","1","1","1","1","0","0","0.609538799966685","0.633515599998645","0.561648100032471","1","1","1","1","1","1","1","1","1"
"250031","img/neutralC/CFD-BF-228-212-N.jpg","img/neutralC/CFD-WF-017-003-N.jpg","img/neutralC/CFD-AF-240-206-N.jpg","1","1","1","0","1","0","0.561648100032471","0.609538799966685","0.644496499910019","1","1","1","1","1","1","1","1","1"
"250031","img/neutralC/CFD-AF-240-206-N.jpg","img/neutralC/CFD-BF-228-212-N.jpg","img/neutralC/CFD-IM-648-337-N.jpg","1","1","1","0","0","0","0.644496499910019","0.561648100032471","0.485572600038722","1","1","1","1","1","1","1","1","1"
"250031","img/neutralC/CFD-IM-648-337-N.jpg","img/neutralC/CFD-AF-240-206-N.jpg","img/neutralC/CFD-WM-215-041-N.jpg","1","1","1","0","0","0","0.485572600038722","0.644496499910019","0.491867000004277","1","1","1","1","1","1","1","1","1"
"250031","img/neutralC/CFD-WM-215-041-N.jpg","img/neutralC/CFD-IM-648-337-N.jpg","img/neutralC/CFD-LM-216-082-N.jpg","1","1","1","0","0","0","0.491867000004277","0.485572600038722","0.490161000052467","1","1","1","1","1","1","1","1","1"
"250031","img/neutralC/CFD-LM-216-082-N.jpg","img/neutralC/CFD-WM-215-041-N.jpg","img/neutralC/CFD-WM-026-001-N.jpg","1","1","1","0","0","1","0.490161000052467","0.491867000004277","0.440312899998389","1","1","1","1","1","1","1","1","1"
"250031","img/neutralC/CFD-WM-026-001-N.jpg","img/neutralC/CFD-LM-216-082-N.jpg","img/neutralC/CFD-WM-249-239-N.jpg","1","1","1","1","0","1","0.440312899998389","0.490161000052467","0.402598800021224","1","1","1","1","1","1","1","1","1"
"250031","img/neutralC/CFD-WM-249-239-N.jpg","img/neutralC/CFD-WM-026-001-N.jpg","img/neutralC/CFD-WF-228-196-N.jpg","1","1","1","1","1","0","0.402598800021224","0.440312899998389","0.431931199971586","1","1","1","1","1","1","1","1","1"
"250031","img/neutralC/CFD-WF-228-196-N.jpg","img/neutralC/CFD-WM-249-239-N.jpg","img/neutralC/CFD-AM-247-165-N.jpg","1","1","1","0","1","1","0.431931199971586","0.402598800021224","0.54287840006873","1","1","1","1","1","1","1","1","1"
"250031","img/neutralC/CFD-AM-247-165-N.jpg","img/neutralC/CFD-WF-228-196-N.jpg","img/neutralC/CFD-BF-025-002-N.jpg","1","1","1","1","0","0","0.54287840006873","0.431931199971586","0.747686399961822","1","1","1","1","1","1","1","1","1"
"250031","img/neutralC/CFD-BF-025-002-N.jpg","img/neutralC/CFD-AM-247-165-N.jpg","img/neutralC/CFD-MF-309-002-N.jpg","1","1","1","0","1","0","0.747686399961822","0.54287840006873","0.558546700049192","1","1","1","1","1","1","1","1","1"
"250031","img/neutralC/CFD-MF-309-002-N.jpg","img/neutralC/CFD-BF-025-002-N.jpg","img/neutralC/CFD-WF-005-010-N.jpg","1","1","1","0","0","0","0.558546700049192","0.747686399961822","0.560677700093947","1","1","1","1","1","1","1","1","1"
"250031","img/neutralC/CFD-WF-005-010-N.jpg","img/neutralC/CFD-MF-309-002-N.jpg","img/neutralC/CFD-MM-317-061-N.jpg","1","1","1","0","0","1","0.560677700093947","0.558546700049192","0.567326699965633","1","1","1","1","1","1","1","1","1"
"250031","img/neutralC/CFD-MM-317-061-N.jpg","img/neutralC/CFD-WF-005-010-N.jpg","img/neutralC/CFD-BF-212-315-N.jpg","1","1","1","1","0","1","0.567326699965633","0.560677700093947","0.530854299897328","1","1","1","1","1","1","1","1","1"
"250031","img/neutralC/CFD-BF-212-315-N.jpg","img/neutralC/CFD-MM-317-061-N.jpg","img/neutralC/CFD-WM-212-097-N.jpg","1","1","1","1","1","0","0.530854299897328","0.567326699965633","0.481146699981764","1","1","1","1","1","1","1","1","1"
"250031","img/neutralC/CFD-WM-212-097-N.jpg","img/neutralC/CFD-BF-212-315-N.jpg","img/neutralC/CFD-WM-012-001-N.jpg","1","1","1","0","1","1","0.481146699981764","0.530854299897328","0.573407300049439","1","1","1","1","1","1","1","1","1"
"250031","img/neutralC/CFD-WM-012-001-N.jpg","img/neutralC/CFD-WM-212-097-N.jpg","img/neutralC/CFD-WF-240-083-N.jpg","1","1","1","1","0","0","0.573407300049439","0.481146699981764","0.515110100037418","1","1","1","1","1","1","1","1","1"
"250031","img/neutralC/CFD-WF-240-083-N.jpg","img/neutralC/CFD-WM-012-001-N.jpg","img/neutralC/CFD-IM-646-023-N.jpg","1","1","1","0","1","1","0.515110100037418","0.573407300049439","0.500986300059594","1","1","1","1","1","1","1","1","1"
"250031","img/neutralC/CFD-IM-646-023-N.jpg","img/neutralC/CFD-WF-240-083-N.jpg","img/neutralC/CFD-BM-251-013-N.jpg","1","1","1","1","0","1","0.500986300059594","0.515110100037418","0.46674060006626","1","1","1","1","1","1","1","1","1"
"250031","img/neutralC/CFD-BM-251-013-N.jpg","img/neutralC/CFD-IM-646-023-N.jpg","img/neutralC/CFD-LM-244-068-N.jpg","1","1","1","1","1","1","0.46674060006626","0.500986300059594","0.426219400018454","1","1","1","1","1","1","1","1","1"
"250031","img/neutralC/CFD-LM-244-068-N.jpg","img/neutralC/CFD-BM-251-013-N.jpg","img/neutralC/CFD-LM-214-165-N.jpg","1","1","1","1","1","1","0.426219400018454","0.46674060006626","0.436181399971247","1","1","1","1","1","1","1","1","1"
"250031","img/neutralC/CFD-LM-214-165-N.jpg","img/neutralC/CFD-LM-244-068-N.jpg",NA,"1","1",NA,"1","1",NA,"0.436181399971247","0.426219400018454",NA,"1","1",NA,"1","1",NA,"1","1",NA
"250031","img/neutralC/CFD-BM-036-003-N.jpg",NA,"img/neutralC/CFD-IM-696-001-N.jpg","1",NA,"1","1",NA,"0","0.762578900088556",NA,"0.640998500050046","1",NA,"1","1",NA,"1","1",NA,"1"
"250031","img/neutralC/CFD-IM-696-001-N.jpg","img/neutralC/CFD-BM-036-003-N.jpg","img/neutralC/CFD-IM-721-341-N.jpg","1","1","1","0","1","1","0.640998500050046","0.762578900088556","0.482810099958442","1","1","1","1","1","1","1","1","1"
"250031","img/neutralC/CFD-IM-721-341-N.jpg","img/neutralC/CFD-IM-696-001-N.jpg","img/neutralC/CFD-AM-230-150-N.jpg","1","1","1","1","0","0","0.482810099958442","0.640998500050046","0.539088399964385","1","1","1","1","1","1","1","1","1"
"250031","img/neutralC/CFD-AM-230-150-N.jpg","img/neutralC/CFD-IM-721-341-N.jpg","img/neutralC/CFD-BF-036-027-N.jpg","1","1","1","0","1","0","0.539088399964385","0.482810099958442","0.456785300048068","1","1","1","1","1","1","1","1","1"
"250031","img/neutralC/CFD-BF-036-027-N.jpg","img/neutralC/CFD-AM-230-150-N.jpg","img/neutralC/CFD-BF-044-034-N.jpg","1","1","1","0","0","0","0.456785300048068","0.539088399964385","0.616864799987525","1","1","1","1","1","1","1","1","1"
"250031","img/neutralC/CFD-BF-044-034-N.jpg","img/neutralC/CFD-BF-036-027-N.jpg","img/neutralC/CFD-BF-236-177-N.jpg","1","1","1","0","0","0","0.616864799987525","0.456785300048068","0.495332999969833","1","1","1","1","1","1","1","1","1"
"250031","img/neutralC/CFD-BF-236-177-N.jpg","img/neutralC/CFD-BF-044-034-N.jpg","img/neutralC/CFD-LF-204-133-N.jpg","1","1","1","0","0","1","0.495332999969833","0.616864799987525","0.539342899923213","1","1","1","1","1","1","1","1","1"
"250031","img/neutralC/CFD-LF-204-133-N.jpg","img/neutralC/CFD-BF-236-177-N.jpg","img/neutralC/CFD-BM-238-242-N.jpg","1","1","1","1","0","0","0.539342899923213","0.495332999969833","0.584977900027297","1","1","1","1","1","1","1","1","1"
"250031","img/neutralC/CFD-BM-238-242-N.jpg","img/neutralC/CFD-LF-204-133-N.jpg","img/neutralC/CFD-BM-241-235-N.jpg","1","1","1","0","1","0","0.584977900027297","0.539342899923213","0.470067899907008","1","1","1","1","1","1","1","1","1"
"250031","img/neutralC/CFD-BM-241-235-N.jpg","img/neutralC/CFD-BM-238-242-N.jpg","img/neutralC/CFD-WF-208-068-N.jpg","1","1","1","0","0","1","0.470067899907008","0.584977900027297","0.527100299950689","1","1","1","1","1","1","1","1","1"
"250031","img/neutralC/CFD-WF-208-068-N.jpg","img/neutralC/CFD-BM-241-235-N.jpg","img/neutralC/CFD-WM-248-036-N.jpg","1","1","1","1","0","1","0.527100299950689","0.470067899907008","0.67238769994583","1","1","1","1","1","1","1","1","1"
"250031","img/neutralC/CFD-WM-248-036-N.jpg","img/neutralC/CFD-WF-208-068-N.jpg","img/neutralC/CFD-IM-726-248-N.jpg","1","1","1","1","1","0","0.67238769994583","0.527100299950689","0.597659299965017","1","1","1","1","1","1","1","1","1"
"250031","img/neutralC/CFD-IM-726-248-N.jpg","img/neutralC/CFD-WM-248-036-N.jpg","img/neutralC/CFD-WF-233-112-N.jpg","1","1","1","0","1","1","0.597659299965017","0.67238769994583","0.533854299923405","1","1","1","1","1","1","1","1","1"
"250031","img/neutralC/CFD-WF-233-112-N.jpg","img/neutralC/CFD-IM-726-248-N.jpg","img/neutralC/CFD-BF-011-002-N.jpg","1","1","1","1","0","1","0.533854299923405","0.597659299965017","0.563777700066566","1","1","1","1","1","1","1","1","1"
"250031","img/neutralC/CFD-BF-011-002-N.jpg","img/neutralC/CFD-WF-233-112-N.jpg","img/neutralC/CFD-WF-234-086-N.jpg","1","1","1","1","1","1","0.563777700066566","0.533854299923405","0.484196699922904","1","1","1","1","1","1","1","1","1"
"250031","img/neutralC/CFD-WF-234-086-N.jpg","img/neutralC/CFD-BF-011-002-N.jpg","img/neutralC/CFD-BF-006-017-N.jpg","1","1","1","1","1","0","0.484196699922904","0.563777700066566","0.653155199950561","1","1","1","1","1","1","1","1","1"
"250031","img/neutralC/CFD-BF-006-017-N.jpg","img/neutralC/CFD-WF-234-086-N.jpg","img/neutralC/CFD-WM-014-002-N.jpg","1","1","1","0","1","0","0.653155199950561","0.484196699922904","0.559842600021511","1","1","1","1","1","1","1","1","1"
"250031","img/neutralC/CFD-WM-014-002-N.jpg","img/neutralC/CFD-BF-006-017-N.jpg","img/neutralC/CFD-BF-002-001-N.jpg","1","1","1","0","0","0","0.559842600021511","0.653155199950561","0.650943299988285","1","1","1","1","1","1","1","1","1"
"250031","img/neutralC/CFD-BF-002-001-N.jpg","img/neutralC/CFD-WM-014-002-N.jpg","img/neutralC/CFD-MF-301-024-N.jpg","1","1","1","0","0","0","0.650943299988285","0.559842600021511","0.464758399990387","1","1","1","1","1","1","1","1","1"
"250031","img/neutralC/CFD-MF-301-024-N.jpg","img/neutralC/CFD-BF-002-001-N.jpg","img/neutralC/CFD-BM-207-024-N.jpg","1","1","1","0","0","1","0.464758399990387","0.650943299988285","0.461988300085068","1","1","1","1","1","1","1","1","1"
"250031","img/neutralC/CFD-BM-207-024-N.jpg","img/neutralC/CFD-MF-301-024-N.jpg","img/neutralC/CFD-IM-707-105-N.jpg","1","1","1","1","0","1","0.461988300085068","0.464758399990387","0.470764699974097","1","1","1","1","1","1","1","1","1"
"250031","img/neutralC/CFD-IM-707-105-N.jpg","img/neutralC/CFD-BM-207-024-N.jpg","img/neutralC/CFD-WF-029-002-N.jpg","1","1","1","1","1","0","0.470764699974097","0.461988300085068","0.415075999917462","1","1","1","1","1","1","1","1","1"
"250031","img/neutralC/CFD-WF-029-002-N.jpg","img/neutralC/CFD-IM-707-105-N.jpg","img/neutralC/CFD-BF-207-004-N.jpg","1","1","1","0","1","1","0.415075999917462","0.470764699974097","0.452308099949732","1","1","1","1","1","1","1","1","1"
"250031","img/neutralC/CFD-BF-207-004-N.jpg","img/neutralC/CFD-WF-029-002-N.jpg","img/neutralC/CFD-BF-027-002-N.jpg","1","1","1","1","0","1","0.452308099949732","0.415075999917462","0.560522299958393","1","1","1","1","1","1","1","1","1"
"250031","img/neutralC/CFD-BF-027-002-N.jpg","img/neutralC/CFD-BF-207-004-N.jpg","img/neutralC/CFD-WM-034-030-N.jpg","1","1","1","1","1","1","0.560522299958393","0.452308099949732","0.514049999997951","1","1","1","1","1","1","1","1","1"
"250031","img/neutralC/CFD-WM-034-030-N.jpg","img/neutralC/CFD-BF-027-002-N.jpg","img/neutralC/CFD-IF-742-103-N.jpg","1","1","1","1","1","1","0.514049999997951","0.560522299958393","0.597115100012161","1","1","1","1","1","1","1","1","1"
"250031","img/neutralC/CFD-IF-742-103-N.jpg","img/neutralC/CFD-WM-034-030-N.jpg","img/neutralC/CFD-BF-214-308-N.jpg","1","1","1","1","1","1","0.597115100012161","0.514049999997951","0.560399700072594","1","1","1","1","1","1","1","1","1"
"250031","img/neutralC/CFD-BF-214-308-N.jpg","img/neutralC/CFD-IF-742-103-N.jpg","img/neutralC/CFD-IF-677-452-1-N.jpg","1","1","1","1","1","1","0.560399700072594","0.597115100012161","0.521503600059077","1","1","1","1","1","1","1","1","1"
"250031","img/neutralC/CFD-IF-677-452-1-N.jpg","img/neutralC/CFD-BF-214-308-N.jpg","img/neutralC/CFD-IF-729-393-N.jpg","1","1","1","1","1","0","0.521503600059077","0.560399700072594","0.51841100002639","1","1","1","1","1","1","1","1","1"
"250031","img/neutralC/CFD-IF-729-393-N.jpg","img/neutralC/CFD-IF-677-452-1-N.jpg","img/neutralC/CFD-BF-247-179-N.jpg","1","1","1","0","1","0","0.51841100002639","0.521503600059077","0.631595100043342","1","1","1","1","1","1","1","1","1"
"250031","img/neutralC/CFD-BF-247-179-N.jpg","img/neutralC/CFD-IF-729-393-N.jpg","img/neutralC/CFD-LM-213-061-N.jpg","1","1","1","0","0","0","0.631595100043342","0.51841100002639","0.463994099991396","1","1","1","1","1","1","1","1","1"
"250031","img/neutralC/CFD-LM-213-061-N.jpg","img/neutralC/CFD-BF-247-179-N.jpg",NA,"1","1",NA,"0","0",NA,"0.463994099991396","0.631595100043342",NA,"1","1",NA,"1","1",NA,"1","1",NA
"250031","img/neutralC/CFD-MF-337-026-N.jpg",NA,"img/neutralC/CFD-BF-253-202-N.jpg","1",NA,"1","1",NA,"0","0.635857700021006",NA,"0.622213399969041","1",NA,"1","1",NA,"1","1",NA,"1"
"250031","img/neutralC/CFD-BF-253-202-N.jpg","img/neutralC/CFD-MF-337-026-N.jpg","img/neutralC/CFD-LF-230-203-N.jpg","1","1","1","0","1","0","0.622213399969041","0.635857700021006","0.551542700035498","1","1","1","1","1","1","1","1","1"
"250031","img/neutralC/CFD-LF-230-203-N.jpg","img/neutralC/CFD-BF-253-202-N.jpg","img/neutralC/CFD-BF-205-141-N.jpg","1","1","1","0","0","0","0.551542700035498","0.622213399969041","0.485335999983363","1","1","1","1","1","1","1","1","1"
"250031","img/neutralC/CFD-BF-205-141-N.jpg","img/neutralC/CFD-LF-230-203-N.jpg","img/neutralC/CFD-BM-239-136-N.jpg","1","1","1","0","0","1","0.485335999983363","0.551542700035498","0.47407530003693","1","1","1","1","1","1","1","1","1"
"250031","img/neutralC/CFD-BM-239-136-N.jpg","img/neutralC/CFD-BF-205-141-N.jpg","img/neutralC/CFD-LF-214-090-N.jpg","1","1","1","1","0","0","0.47407530003693","0.485335999983363","0.481322100036778","1","1","1","1","1","1","1","1","1"
"250031","img/neutralC/CFD-LF-214-090-N.jpg","img/neutralC/CFD-BM-239-136-N.jpg","img/neutralC/CFD-IF-693-172-N.jpg","1","1","1","0","1","0","0.481322100036778","0.47407530003693","0.57449569995515","1","1","1","1","1","1","1","1","1"
"250031","img/neutralC/CFD-IF-693-172-N.jpg","img/neutralC/CFD-LF-214-090-N.jpg","img/neutralC/CFD-BF-213-188-N.jpg","1","1","1","0","0","1","0.57449569995515","0.481322100036778","0.584038599976338","1","1","1","1","1","1","1","1","1"
"250031","img/neutralC/CFD-BF-213-188-N.jpg","img/neutralC/CFD-IF-693-172-N.jpg","img/neutralC/CFD-LF-224-176-N.jpg","1","1","1","1","0","0","0.584038599976338","0.57449569995515","0.470326900016517","1","1","1","1","1","1","1","1","1"
"250031","img/neutralC/CFD-LF-224-176-N.jpg","img/neutralC/CFD-BF-213-188-N.jpg","img/neutralC/CFD-WM-011-002-N.jpg","1","1","1","0","1","0","0.470326900016517","0.584038599976338","0.581396299996413","1","1","1","1","1","1","1","1","1"
"250031","img/neutralC/CFD-WM-011-002-N.jpg","img/neutralC/CFD-LF-224-176-N.jpg","img/neutralC/CFD-AF-231-357-N.jpg","1","1","1","0","0","1","0.581396299996413","0.470326900016517","0.474631499964744","1","1","1","1","1","1","1","1","1"
"250031","img/neutralC/CFD-AF-231-357-N.jpg","img/neutralC/CFD-WM-011-002-N.jpg","img/neutralC/CFD-LF-203-066-N.jpg","1","1","1","1","0","0","0.474631499964744","0.581396299996413","0.456332299974747","1","1","1","1","1","1","1","1","1"
"250031","img/neutralC/CFD-LF-203-066-N.jpg","img/neutralC/CFD-AF-231-357-N.jpg","img/neutralC/CFD-BM-019-002-N.jpg","1","1","1","0","1","0","0.456332299974747","0.474631499964744","0.402931199991144","1","1","1","1","1","1","1","1","1"
"250031","img/neutralC/CFD-BM-019-002-N.jpg","img/neutralC/CFD-LF-203-066-N.jpg","img/neutralC/CFD-IF-710-016-N.jpg","1","1","1","0","0","0","0.402931199991144","0.456332299974747","0.486455099890009","1","1","1","1","1","1","1","1","1"
"250031","img/neutralC/CFD-IF-710-016-N.jpg","img/neutralC/CFD-BM-019-002-N.jpg","img/neutralC/CFD-WM-021-001-N.jpg","1","1","1","0","0","1","0.486455099890009","0.402931199991144","0.420601600082591","1","1","1","1","1","1","1","1","1"
"250031","img/neutralC/CFD-WM-021-001-N.jpg","img/neutralC/CFD-IF-710-016-N.jpg","img/neutralC/CFD-IF-634-382-N.jpg","1","1","1","1","0","1","0.420601600082591","0.486455099890009","0.470464800018817","1","1","1","1","1","1","1","1","1"
"250031","img/neutralC/CFD-IF-634-382-N.jpg","img/neutralC/CFD-WM-021-001-N.jpg","img/neutralC/CFD-BF-029-031-N.jpg","1","1","1","1","1","1","0.470464800018817","0.420601600082591","0.476372400065884","1","1","1","1","1","1","1","1","1"
"250031","img/neutralC/CFD-BF-029-031-N.jpg","img/neutralC/CFD-IF-634-382-N.jpg","img/neutralC/CFD-WF-250-167-N.jpg","1","1","1","1","1","1","0.476372400065884","0.470464800018817","0.668756300001405","1","1","1","1","1","1","1","1","1"
"250031","img/neutralC/CFD-WF-250-167-N.jpg","img/neutralC/CFD-BF-029-031-N.jpg","img/neutralC/CFD-MM-316-156-N.jpg","1","1","1","1","1","1","0.668756300001405","0.476372400065884","0.44308270001784","1","1","1","1","1","1","1","1","1"
"250031","img/neutralC/CFD-MM-316-156-N.jpg","img/neutralC/CFD-WF-250-167-N.jpg","img/neutralC/CFD-IM-651-308-N.jpg","1","1","1","1","1","0","0.44308270001784","0.668756300001405","0.727192400023341","1","1","1","1","1","1","1","1","1"
"250031","img/neutralC/CFD-IM-651-308-N.jpg","img/neutralC/CFD-MM-316-156-N.jpg","img/neutralC/CFD-AM-201-076-N.jpg","1","1","1","0","1","1","0.727192400023341","0.44308270001784","0.44828020001296","1","1","1","1","1","1","1","1","1"
"250031","img/neutralC/CFD-AM-201-076-N.jpg","img/neutralC/CFD-IM-651-308-N.jpg","img/neutralC/CFD-LM-215-247-N.jpg","1","1","1","1","0","0","0.44828020001296","0.727192400023341","0.779833800042979","1","1","1","1","1","1","1","1","1"
"250031","img/neutralC/CFD-LM-215-247-N.jpg","img/neutralC/CFD-AM-201-076-N.jpg","img/neutralC/CFD-LF-205-100-N.jpg","1","1","1","0","1","1","0.779833800042979","0.44828020001296","0.542408799985424","1","1","1","1","1","1","1","1","1"
"250031","img/neutralC/CFD-LF-205-100-N.jpg","img/neutralC/CFD-LM-215-247-N.jpg","img/neutralC/CFD-WF-213-031-N.jpg","1","1","1","1","0","1","0.542408799985424","0.779833800042979","0.704294000053778","1","1","1","1","1","1","1","1","1"
"250031","img/neutralC/CFD-WF-213-031-N.jpg","img/neutralC/CFD-LF-205-100-N.jpg","img/neutralC/CFD-BF-039-031-N.jpg","1","1","1","1","1","1","0.704294000053778","0.542408799985424","0.633035300066695","1","1","1","1","1","1","1","1","1"
"250031","img/neutralC/CFD-BF-039-031-N.jpg","img/neutralC/CFD-WF-213-031-N.jpg","img/neutralC/CFD-BM-033-003-N.jpg","1","1","1","1","1","0","0.633035300066695","0.704294000053778","0.645648899953812","1","1","1","1","1","1","1","1","1"
"250031","img/neutralC/CFD-BM-033-003-N.jpg","img/neutralC/CFD-BF-039-031-N.jpg","img/neutralC/CFD-BM-041-035-N.jpg","1","1","1","0","1","0","0.645648899953812","0.633035300066695","0.750876299920492","1","1","1","1","1","1","1","1","1"
"250031","img/neutralC/CFD-BM-041-035-N.jpg","img/neutralC/CFD-BM-033-003-N.jpg","img/neutralC/CFD-AM-212-050-N.jpg","1","1","1","0","0","1","0.750876299920492","0.645648899953812","0.677827499923296","1","1","1","1","1","1","1","1","1"
"250031","img/neutralC/CFD-AM-212-050-N.jpg","img/neutralC/CFD-BM-041-035-N.jpg","img/neutralC/CFD-IM-684-008-N.jpg","1","1","1","1","0","1","0.677827499923296","0.750876299920492","0.537906200042926","1","1","1","1","1","1","1","1","1"
"250031","img/neutralC/CFD-IM-684-008-N.jpg","img/neutralC/CFD-AM-212-050-N.jpg","img/neutralC/CFD-WF-224-099-N.jpg","1","1","1","1","1","0","0.537906200042926","0.677827499923296","0.543249899987131","1","1","1","1","1","1","1","1","1"
"250031","img/neutralC/CFD-WF-224-099-N.jpg","img/neutralC/CFD-IM-684-008-N.jpg","img/neutralC/CFD-WM-041-021-N.jpg","1","1","1","0","1","0","0.543249899987131","0.537906200042926","0.483231000020169","1","1","1","1","1","1","1","1","1"
"250031","img/neutralC/CFD-WM-041-021-N.jpg","img/neutralC/CFD-WF-224-099-N.jpg","img/neutralC/CFD-LM-218-183-N.jpg","1","1","1","0","0","1","0.483231000020169","0.543249899987131","0.664777699974366","1","1","1","1","1","1","1","1","1"
"250031","img/neutralC/CFD-LM-218-183-N.jpg","img/neutralC/CFD-WM-041-021-N.jpg",NA,"1","1",NA,"1","0",NA,"0.664777699974366","0.483231000020169",NA,"1","1",NA,"1","1",NA,"1","1",NA
"250031","img/neutralC/CFD-IF-732-260-N.jpg",NA,"img/neutralC/CFD-LF-239-148-N.jpg","1",NA,"1","0",NA,"0","0.916109899990261",NA,"0.473586000036448","1",NA,"1","1",NA,"1","1",NA,"1"
"250031","img/neutralC/CFD-LF-239-148-N.jpg","img/neutralC/CFD-IF-732-260-N.jpg","img/neutralC/CFD-BF-217-189-N.jpg","1","1","1","0","0","0","0.473586000036448","0.916109899990261","0.494679199997336","1","1","1","1","1","1","1","1","1"
"250031","img/neutralC/CFD-BF-217-189-N.jpg","img/neutralC/CFD-LF-239-148-N.jpg","img/neutralC/CFD-LM-241-125-N.jpg","1","1","1","0","0","1","0.494679199997336","0.473586000036448","0.392010699957609","1","1","1","1","1","1","1","1","1"
"250031","img/neutralC/CFD-LM-241-125-N.jpg","img/neutralC/CFD-BF-217-189-N.jpg","img/neutralC/CFD-IM-678-482-N.jpg","1","1","1","1","0","0","0.392010699957609","0.494679199997336","0.533875099965371","1","1","1","1","1","1","1","1","1"
"250031","img/neutralC/CFD-IM-678-482-N.jpg","img/neutralC/CFD-LM-241-125-N.jpg","img/neutralC/CFD-IM-669-111-N.jpg","1","1","1","0","1","1","0.533875099965371","0.392010699957609","0.575365999946371","1","1","1","1","1","1","1","1","1"
"250031","img/neutralC/CFD-IM-669-111-N.jpg","img/neutralC/CFD-IM-678-482-N.jpg","img/neutralC/CFD-AF-250-200-N.jpg","1","1","1","1","0","1","0.575365999946371","0.533875099965371","0.481714399997145","1","1","1","1","1","1","1","1","1"
"250031","img/neutralC/CFD-AF-250-200-N.jpg","img/neutralC/CFD-IM-669-111-N.jpg","img/neutralC/CFD-AM-245-111-N.jpg","1","1","1","1","1","1","0.481714399997145","0.575365999946371","0.567240400006995","1","1","1","1","1","1","1","1","1"
"250031","img/neutralC/CFD-AM-245-111-N.jpg","img/neutralC/CFD-AF-250-200-N.jpg","img/neutralC/CFD-LM-204-001-N.jpg","1","1","1","1","1","0","0.567240400006995","0.481714399997145","0.52266460005194","1","1","1","1","1","1","1","1","1"
"250031","img/neutralC/CFD-LM-204-001-N.jpg","img/neutralC/CFD-AM-245-111-N.jpg","img/neutralC/CFD-IM-632-097-N.jpg","1","1","1","0","1","0","0.52266460005194","0.567240400006995","0.722578299930319","1","1","1","1","1","1","1","1","1"
"250031","img/neutralC/CFD-IM-632-097-N.jpg","img/neutralC/CFD-LM-204-001-N.jpg","img/neutralC/CFD-AM-225-102-N.jpg","1","1","1","0","0","0","0.722578299930319","0.52266460005194","0.507077699992806","1","1","1","1","1","1","1","1","1"
"250031","img/neutralC/CFD-AM-225-102-N.jpg","img/neutralC/CFD-IM-632-097-N.jpg","img/neutralC/CFD-BF-020-002-N.jpg","1","1","1","0","0","1","0.507077699992806","0.722578299930319","0.829562300001271","1","1","1","1","1","1","1","1","1"
"250031","img/neutralC/CFD-BF-020-002-N.jpg","img/neutralC/CFD-AM-225-102-N.jpg","img/neutralC/CFD-IF-636-011-N.jpg","1","1","1","1","0","1","0.829562300001271","0.507077699992806","0.741938899969682","1","1","1","1","1","1","1","1","1"
"250031","img/neutralC/CFD-IF-636-011-N.jpg","img/neutralC/CFD-BF-020-002-N.jpg","img/neutralC/CFD-BF-040-003-N.jpg","1","1","1","1","1","1","0.741938899969682","0.829562300001271","0.532181899994612","1","1","1","1","1","1","1","1","1"
"250031","img/neutralC/CFD-BF-040-003-N.jpg","img/neutralC/CFD-IF-636-011-N.jpg","img/neutralC/CFD-AF-244-168-N.jpg","1","1","1","1","1","0","0.532181899994612","0.741938899969682","0.506683900021017","1","1","1","1","1","1","1","1","1"
"250031","img/neutralC/CFD-AF-244-168-N.jpg","img/neutralC/CFD-BF-040-003-N.jpg","img/neutralC/CFD-IM-635-010-N.jpg","1","1","1","0","1","1","0.506683900021017","0.532181899994612","0.643304600031115","1","1","1","1","1","1","1","1","2"
"250031","img/neutralC/CFD-IM-635-010-N.jpg","img/neutralC/CFD-AF-244-168-N.jpg","img/neutralC/CFD-BF-042-026-N.jpg","1","1","1","1","0","1","0.643304600031115","0.506683900021017","0.516973900026642","1","1","1","1","1","1","2","1","1"
"250031","img/neutralC/CFD-BF-042-026-N.jpg","img/neutralC/CFD-IM-635-010-N.jpg","img/neutralC/CFD-AF-246-242-N.jpg","1","1","1","1","1","0","0.516973900026642","0.643304600031115","0.598758099949919","1","1","1","1","1","1","1","2","1"
"250031","img/neutralC/CFD-AF-246-242-N.jpg","img/neutralC/CFD-BF-042-026-N.jpg","img/neutralC/CFD-BM-215-155-N.jpg","1","1","0","0","1","0","0.598758099949919","0.516973900026642","0.884667600039393","1","1","1","1","1","1","1","1","1"
"250031","img/neutralC/CFD-BM-215-155-N.jpg","img/neutralC/CFD-AF-246-242-N.jpg","img/neutralC/CFD-BF-206-143-N.jpg","0","1","1","0","0","1","0.884667600039393","0.598758099949919","0.760202100034803","1","1","1","1","1","1","1","1","1"
"250031","img/neutralC/CFD-BF-206-143-N.jpg","img/neutralC/CFD-BM-215-155-N.jpg","img/neutralC/CFD-AF-213-126-N.jpg","1","0","1","1","0","1","0.760202100034803","0.884667600039393","0.575920899980702","1","1","1","1","1","1","1","1","1"
"250031","img/neutralC/CFD-AF-213-126-N.jpg","img/neutralC/CFD-BF-206-143-N.jpg","img/neutralC/CFD-WM-018-002-N.jpg","1","1","1","1","1","0","0.575920899980702","0.760202100034803","0.573695100028999","1","1","1","1","1","1","1","1","1"
"250031","img/neutralC/CFD-WM-018-002-N.jpg","img/neutralC/CFD-AF-213-126-N.jpg","img/neutralC/CFD-MF-307-002-N.jpg","1","1","1","0","1","1","0.573695100028999","0.575920899980702","0.735955199925229","1","1","1","1","1","1","1","1","1"
"250031","img/neutralC/CFD-MF-307-002-N.jpg","img/neutralC/CFD-WM-018-002-N.jpg","img/neutralC/CFD-BM-004-002-N.jpg","1","1","0","1","0","0","0.735955199925229","0.573695100028999",NA,"1","1","0","1","1","0","1","1","0"
"250031","img/neutralC/CFD-BM-004-002-N.jpg","img/neutralC/CFD-MF-307-002-N.jpg","img/neutralC/CFD-WF-235-121-N.jpg","0","1","1","0","1","0",NA,"0.735955199925229","0.629029699950479","0","1","1","0","1","1","0","1","1"
"250031","img/neutralC/CFD-WF-235-121-N.jpg","img/neutralC/CFD-BM-004-002-N.jpg","img/neutralC/CFD-AF-234-208-N.jpg","1","0","1","0","0","1","0.629029699950479",NA,"0.457815099973232","1","0","1","1","0","1","1","0","1"
"250031","img/neutralC/CFD-AF-234-208-N.jpg","img/neutralC/CFD-WF-235-121-N.jpg","img/neutralC/CFD-WF-210-086-N.jpg","1","1","1","1","0","0","0.457815099973232","0.629029699950479","0.629605900030583","1","1","1","1","1","1","1","1","1"
"250031","img/neutralC/CFD-WF-210-086-N.jpg","img/neutralC/CFD-AF-234-208-N.jpg","img/neutralC/CFD-WM-253-119-N.jpg","1","1","1","0","1","1","0.629605900030583","0.457815099973232","0.609868700033985","1","1","1","1","1","1","1","1","1"
"250031","img/neutralC/CFD-WM-253-119-N.jpg","img/neutralC/CFD-WF-210-086-N.jpg","img/neutralC/CFD-MF-302-027-N.jpg","1","1","1","1","0","0","0.609868700033985","0.629605900030583","0.506228599930182","1","1","1","1","1","1","1","1","1"
"250031","img/neutralC/CFD-MF-302-027-N.jpg","img/neutralC/CFD-WM-253-119-N.jpg","img/neutralC/CFD-AM-233-236-N.jpg","1","1","1","0","1","1","0.506228599930182","0.609868700033985","0.689917999901809","1","1","1","1","1","1","1","1","1"
"250031","img/neutralC/CFD-AM-233-236-N.jpg","img/neutralC/CFD-MF-302-027-N.jpg","img/neutralC/CFD-AF-205-155-N.jpg","1","1","1","1","0","0","0.689917999901809","0.506228599930182","0.587659399956465","1","1","1","1","1","1","1","1","1"
"250031","img/neutralC/CFD-AF-205-155-N.jpg","img/neutralC/CFD-AM-233-236-N.jpg","img/neutralC/CFD-BF-235-168-N.jpg","1","1","1","0","1","1","0.587659399956465","0.689917999901809","0.810340099968016","1","1","1","1","1","1","1","1","1"
"250031","img/neutralC/CFD-BF-235-168-N.jpg","img/neutralC/CFD-AF-205-155-N.jpg",NA,"1","1",NA,"1","0",NA,"0.810340099968016","0.587659399956465",NA,"1","1",NA,"1","1",NA,"1","1",NA
"250031","img/neutralC/CFD-BM-015-015-N.jpg",NA,"img/neutralC/CFD-BM-029-024-N.jpg","1",NA,"1","0",NA,"1","1.1389495000476",NA,"0.409827399998903","1",NA,"1","1",NA,"1","1",NA,"1"
"250031","img/neutralC/CFD-BM-029-024-N.jpg","img/neutralC/CFD-BM-015-015-N.jpg","img/neutralC/CFD-WM-225-127-N.jpg","1","1","1","1","0","0","0.409827399998903","1.1389495000476","0.530322900041938","1","1","1","1","1","1","1","1","1"
"250031","img/neutralC/CFD-WM-225-127-N.jpg","img/neutralC/CFD-BM-029-024-N.jpg","img/neutralC/CFD-WF-002-004-N.jpg","1","1","1","0","1","0","0.530322900041938","0.409827399998903","0.777387400041334","1","1","1","1","1","1","1","1","1"
"250031","img/neutralC/CFD-WF-002-004-N.jpg","img/neutralC/CFD-WM-225-127-N.jpg","img/neutralC/CFD-BF-028-001-N.jpg","1","1","1","0","0","1","0.777387400041334","0.530322900041938","0.568545100046322","1","1","1","1","1","1","1","1","1"
"250031","img/neutralC/CFD-BF-028-001-N.jpg","img/neutralC/CFD-WF-002-004-N.jpg","img/neutralC/CFD-LM-252-076-N.jpg","1","1","1","1","0","1","0.568545100046322","0.777387400041334","0.673494299990125","1","1","1","1","1","1","1","1","1"
"250031","img/neutralC/CFD-LM-252-076-N.jpg","img/neutralC/CFD-BF-028-001-N.jpg","img/neutralC/CFD-BM-027-001-N.jpg","1","1","1","1","1","0","0.673494299990125","0.568545100046322","0.742294700001366","1","1","1","1","1","1","1","1","1"
"250031","img/neutralC/CFD-BM-027-001-N.jpg","img/neutralC/CFD-LM-252-076-N.jpg","img/neutralC/CFD-WM-002-009-N.jpg","1","1","1","0","1","0","0.742294700001366","0.673494299990125","0.588503700098954","1","1","1","1","1","1","1","1","1"
"250031","img/neutralC/CFD-WM-002-009-N.jpg","img/neutralC/CFD-BM-027-001-N.jpg","img/neutralC/CFD-WM-257-161-N.jpg","1","1","1","0","0","1","0.588503700098954","0.742294700001366","0.75522379996255","1","1","1","1","1","1","1","1","1"
"250031","img/neutralC/CFD-WM-257-161-N.jpg","img/neutralC/CFD-WM-002-009-N.jpg","img/neutralC/CFD-WM-040-022-N.jpg","1","1","1","1","0","0","0.75522379996255","0.588503700098954","0.753602299955674","1","1","1","1","1","1","1","1","1"
"250031","img/neutralC/CFD-WM-040-022-N.jpg","img/neutralC/CFD-WM-257-161-N.jpg","img/neutralC/CFD-BF-003-003-N.jpg","1","1","1","0","1","0","0.753602299955674","0.75522379996255","0.558406100026332","1","1","1","1","1","1","1","1","1"
"250031","img/neutralC/CFD-BF-003-003-N.jpg","img/neutralC/CFD-WM-040-022-N.jpg","img/neutralC/CFD-IM-674-281-N.jpg","1","1","1","0","0","1","0.558406100026332","0.753602299955674","0.538941200007685","1","1","1","1","1","1","1","1","1"
"250031","img/neutralC/CFD-IM-674-281-N.jpg","img/neutralC/CFD-BF-003-003-N.jpg","img/neutralC/CFD-BM-211-174-N.jpg","1","1","0","1","0","0","0.538941200007685","0.558406100026332","1.32224190002307","1","1","1","1","1","1","1","1","1"
"250031","img/neutralC/CFD-BM-211-174-N.jpg","img/neutralC/CFD-IM-674-281-N.jpg","img/neutralC/CFD-IF-718-001-N.jpg","0","1","1","0","1","1","1.32224190002307","0.538941200007685","0.573312300024554","1","1","1","1","1","1","1","1","1"
"250031","img/neutralC/CFD-IF-718-001-N.jpg","img/neutralC/CFD-BM-211-174-N.jpg","img/neutralC/CFD-AM-217-085-N.jpg","1","0","1","1","0","0","0.573312300024554","1.32224190002307","0.618459000019357","1","1","1","1","1","1","1","1","1"
"250031","img/neutralC/CFD-AM-217-085-N.jpg","img/neutralC/CFD-IF-718-001-N.jpg","img/neutralC/CFD-BF-208-266-N.jpg","1","1","1","0","1","0","0.618459000019357","0.573312300024554","0.601443499908783","1","1","1","1","1","1","1","1","1"
"250031","img/neutralC/CFD-BF-208-266-N.jpg","img/neutralC/CFD-AM-217-085-N.jpg","img/neutralC/CFD-WF-026-002-N.jpg","1","1","1","0","0","1","0.601443499908783","0.618459000019357","0.567645199946128","1","1","1","1","1","1","1","1","1"
"250031","img/neutralC/CFD-WF-026-002-N.jpg","img/neutralC/CFD-BF-208-266-N.jpg","img/neutralC/CFD-BF-201-080-N.jpg","1","1","1","1","0","1","0.567645199946128","0.601443499908783","0.772681500064209","1","1","1","1","1","1","1","1","1"
"250031","img/neutralC/CFD-BF-201-080-N.jpg","img/neutralC/CFD-WF-026-002-N.jpg","img/neutralC/CFD-IM-728-041-N.jpg","1","1","0","1","1","0","0.772681500064209","0.567645199946128","0.885913800098933","1","1","1","1","1","1","1","1","1"
"250031","img/neutralC/CFD-IM-728-041-N.jpg","img/neutralC/CFD-BF-201-080-N.jpg","img/neutralC/CFD-AM-215-120-N.jpg","0","1","1","0","1","1","0.885913800098933","0.772681500064209","0.893272700021043","1","1","1","1","1","1","1","1","1"
"250031","img/neutralC/CFD-AM-215-120-N.jpg","img/neutralC/CFD-IM-728-041-N.jpg","img/neutralC/CFD-IF-672-305-N.jpg","1","0","1","1","0","0","0.893272700021043","0.885913800098933","0.653035700088367","1","1","1","1","1","1","1","1","1"
"250031","img/neutralC/CFD-IF-672-305-N.jpg","img/neutralC/CFD-AM-215-120-N.jpg","img/neutralC/CFD-BF-023-010-N.jpg","1","1","1","0","1","1","0.653035700088367","0.893272700021043","0.660360799985938","1","1","1","1","1","1","1","1","1"
"250031","img/neutralC/CFD-BF-023-010-N.jpg","img/neutralC/CFD-IF-672-305-N.jpg","img/neutralC/CFD-BM-247-240-N.jpg","1","1","1","1","0","0","0.660360799985938","0.653035700088367","1.02769860008266","1","1","1","1","1","1","1","1","1"
"250031","img/neutralC/CFD-BM-247-240-N.jpg","img/neutralC/CFD-BF-023-010-N.jpg","img/neutralC/CFD-WF-022-017-N.jpg","1","1","1","0","1","0","1.02769860008266","0.660360799985938","0.792013500002213","1","1","1","1","1","1","1","1","1"
"250031","img/neutralC/CFD-WF-022-017-N.jpg","img/neutralC/CFD-BM-247-240-N.jpg","img/neutralC/CFD-BF-255-140-N.jpg","1","1","1","0","0","1","0.792013500002213","1.02769860008266","0.563670599949546","1","1","1","1","1","1","1","1","1"
"250031","img/neutralC/CFD-BF-255-140-N.jpg","img/neutralC/CFD-WF-022-017-N.jpg","img/neutralC/CFD-LF-236-221-N.jpg","1","1","1","1","0","1","0.563670599949546","0.792013500002213","0.533373199985363","1","1","1","1","1","1","1","1","1"
"250031","img/neutralC/CFD-LF-236-221-N.jpg","img/neutralC/CFD-BF-255-140-N.jpg","img/neutralC/CFD-IM-639-263-N.jpg","1","1","1","1","1","1","0.533373199985363","0.563670599949546","0.507402900024317","1","1","1","1","1","1","1","1","1"
"250031","img/neutralC/CFD-IM-639-263-N.jpg","img/neutralC/CFD-LF-236-221-N.jpg","img/neutralC/CFD-BF-204-189-N.jpg","1","1","1","1","1","1","0.507402900024317","0.533373199985363","0.609228200046346","1","1","1","1","1","1","1","1","1"
"250031","img/neutralC/CFD-BF-204-189-N.jpg","img/neutralC/CFD-IM-639-263-N.jpg","img/neutralC/CFD-LF-216-121-N.jpg","1","1","1","1","1","1","0.609228200046346","0.507402900024317","0.641568499966525","1","1","1","1","1","1","1","1","1"
"250031","img/neutralC/CFD-LF-216-121-N.jpg","img/neutralC/CFD-BF-204-189-N.jpg","img/neutralC/CFD-WM-038-003-N.jpg","1","1","1","1","1","0","0.641568499966525","0.609228200046346","1.02210800000466","1","1","1","1","1","1","1","1","1"
"250031","img/neutralC/CFD-WM-038-003-N.jpg","img/neutralC/CFD-LF-216-121-N.jpg","img/neutralC/CFD-MM-319-052-N.jpg","1","1","1","0","1","1","1.02210800000466","0.641568499966525","0.570913999923505","1","1","1","1","1","1","1","1","1"
"250031","img/neutralC/CFD-MM-319-052-N.jpg","img/neutralC/CFD-WM-038-003-N.jpg","img/neutralC/CFD-AM-235-241-N.jpg","1","1","1","1","0","0","0.570913999923505","1.02210800000466","0.760567100020126","1","1","1","1","1","1","1","1","1"
"250031","img/neutralC/CFD-AM-235-241-N.jpg","img/neutralC/CFD-MM-319-052-N.jpg",NA,"1","1",NA,"0","1",NA,"0.760567100020126","0.570913999923505",NA,"1","1",NA,"1","1",NA,"1","1",NA
"250031","img/neutralC/CFD-IM-638-250-1-N.jpg",NA,"img/neutralC/CFD-WM-017-002-N.jpg","1",NA,"1","1",NA,"0","0.909390199929476",NA,"0.518110199947841","1",NA,"1","1",NA,"1","1",NA,"1"
"250031","img/neutralC/CFD-WM-017-002-N.jpg","img/neutralC/CFD-IM-638-250-1-N.jpg","img/neutralC/CFD-MF-313-002-N.jpg","1","1","1","0","1","0","0.518110199947841","0.909390199929476","0.64820499997586","1","1","1","1","1","1","1","1","1"
"250031","img/neutralC/CFD-MF-313-002-N.jpg","img/neutralC/CFD-WM-017-002-N.jpg","img/neutralC/CFD-WF-209-052-N.jpg","1","1","1","0","0","1","0.64820499997586","0.518110199947841","0.50067889993079","1","1","1","1","1","1","1","1","1"
"250031","img/neutralC/CFD-WF-209-052-N.jpg","img/neutralC/CFD-MF-313-002-N.jpg","img/neutralC/CFD-WM-258-125-N.jpg","1","1","1","1","0","0","0.50067889993079","0.64820499997586","0.536436900030822","1","1","1","1","1","1","1","1","1"
"250031","img/neutralC/CFD-WM-258-125-N.jpg","img/neutralC/CFD-WF-209-052-N.jpg","img/neutralC/CFD-BF-033-028-N.jpg","1","1","1","0","1","0","0.536436900030822","0.50067889993079","0.854763700044714","1","1","1","1","1","1","1","1","1"
"250031","img/neutralC/CFD-BF-033-028-N.jpg","img/neutralC/CFD-WM-258-125-N.jpg","img/neutralC/CFD-BM-212-117-N.jpg","1","1","1","0","0","0","0.854763700044714","0.536436900030822","0.53242709999904","1","1","1","1","1","1","1","1","1"
"250031","img/neutralC/CFD-BM-212-117-N.jpg","img/neutralC/CFD-BF-033-028-N.jpg","img/neutralC/CFD-LM-226-175-N.jpg","1","1","1","0","0","0","0.53242709999904","0.854763700044714","0.527490300009958","1","1","1","1","1","1","1","1","1"
"250031","img/neutralC/CFD-LM-226-175-N.jpg","img/neutralC/CFD-BM-212-117-N.jpg","img/neutralC/CFD-BM-018-001-N.jpg","1","1","1","0","0","1","0.527490300009958","0.53242709999904","0.592921099974774","1","1","1","1","1","1","1","1","1"
"250031","img/neutralC/CFD-BM-018-001-N.jpg","img/neutralC/CFD-LM-226-175-N.jpg","img/neutralC/CFD-LF-247-051-N.jpg","1","1","1","1","0","1","0.592921099974774","0.527490300009958","0.447232299949974","1","1","1","1","1","1","1","1","1"
"250031","img/neutralC/CFD-LF-247-051-N.jpg","img/neutralC/CFD-BM-018-001-N.jpg","img/neutralC/CFD-LF-245-166-N.jpg","1","1","1","1","1","1","0.447232299949974","0.592921099974774","0.75980769994203","1","1","1","1","1","1","1","1","1"
"250031","img/neutralC/CFD-LF-245-166-N.jpg","img/neutralC/CFD-LF-247-051-N.jpg","img/neutralC/CFD-BF-010-001-N.jpg","1","1","1","1","1","1","0.75980769994203","0.447232299949974","0.59530020004604","1","1","1","1","1","1","1","1","1"
"250031","img/neutralC/CFD-BF-010-001-N.jpg","img/neutralC/CFD-LF-245-166-N.jpg","img/neutralC/CFD-LM-233-171-N.jpg","1","1","1","1","1","0","0.59530020004604","0.75980769994203","0.937928800005466","1","1","1","1","1","1","1","1","1"
"250031","img/neutralC/CFD-LM-233-171-N.jpg","img/neutralC/CFD-BF-010-001-N.jpg","img/neutralC/CFD-BM-026-002-N.jpg","1","1","1","0","1","0","0.937928800005466","0.59530020004604","0.764309799997136","1","1","1","1","1","1","1","1","1"
"250031","img/neutralC/CFD-BM-026-002-N.jpg","img/neutralC/CFD-LM-233-171-N.jpg","img/neutralC/CFD-LF-250-169-N.jpg","1","1","1","0","0","1","0.764309799997136","0.937928800005466","0.659609999973327","1","1","1","1","1","1","1","1","1"
"250031","img/neutralC/CFD-LF-250-169-N.jpg","img/neutralC/CFD-BM-026-002-N.jpg","img/neutralC/CFD-AF-241-141-N.jpg","1","1","1","1","0","1","0.659609999973327","0.764309799997136","0.775584800052457","1","1","1","1","1","1","1","1","1"
"250031","img/neutralC/CFD-AF-241-141-N.jpg","img/neutralC/CFD-LF-250-169-N.jpg","img/neutralC/CFD-IM-653-008-N.jpg","1","1","1","1","1","0","0.775584800052457","0.659609999973327","0.534417900023982","1","1","1","1","1","1","1","1","1"
"250031","img/neutralC/CFD-IM-653-008-N.jpg","img/neutralC/CFD-AF-241-141-N.jpg","img/neutralC/CFD-IF-620-218-N.jpg","1","1","1","0","1","0","0.534417900023982","0.775584800052457","0.526185599970631","1","1","1","1","1","1","1","1","1"
"250031","img/neutralC/CFD-IF-620-218-N.jpg","img/neutralC/CFD-IM-653-008-N.jpg","img/neutralC/CFD-IF-665-015-N.jpg","1","1","1","0","0","0","0.526185599970631","0.534417900023982","0.947641000035219","1","1","1","1","1","1","1","1","1"
"250031","img/neutralC/CFD-IF-665-015-N.jpg","img/neutralC/CFD-IF-620-218-N.jpg","img/neutralC/CFD-AF-206-079-N.jpg","1","1","1","0","0","1","0.947641000035219","0.526185599970631","0.962771799997427","1","1","1","1","1","1","1","1","1"
"250031","img/neutralC/CFD-AF-206-079-N.jpg","img/neutralC/CFD-IF-665-015-N.jpg","img/neutralC/CFD-IM-686-097-N.jpg","1","1","1","1","0","0","0.962771799997427","0.947641000035219","0.553686700062826","1","1","1","1","1","1","1","1","1"
"250031","img/neutralC/CFD-IM-686-097-N.jpg","img/neutralC/CFD-AF-206-079-N.jpg","img/neutralC/CFD-IM-617-174-N.jpg","1","1","1","0","1","0","0.553686700062826","0.962771799997427","0.560796599951573","1","1","1","1","1","1","1","1","1"
"250031","img/neutralC/CFD-IM-617-174-N.jpg","img/neutralC/CFD-IM-686-097-N.jpg","img/neutralC/CFD-BM-005-003-N.jpg","1","1","1","0","0","1","0.560796599951573","0.553686700062826","1.12845439999364","1","1","1","1","1","1","1","1","1"
"250031","img/neutralC/CFD-BM-005-003-N.jpg","img/neutralC/CFD-IM-617-174-N.jpg","img/neutralC/CFD-BM-231-155-N.jpg","1","1","0","1","0","1","1.12845439999364","0.560796599951573",NA,"1","1","0","1","1","0","1","1","0"
"250031","img/neutralC/CFD-BM-231-155-N.jpg","img/neutralC/CFD-BM-005-003-N.jpg","img/neutralC/CFD-IM-727-195-N.jpg","0","1","1","1","1","1",NA,"1.12845439999364","0.957924999995157","0","1","1","0","1","1","0","1","1"
"250031","img/neutralC/CFD-IM-727-195-N.jpg","img/neutralC/CFD-BM-231-155-N.jpg","img/neutralC/CFD-LF-242-121-N.jpg","1","0","1","1","1","0","0.957924999995157",NA,"0.997905499883927","1","0","1","1","0","1","1","0","1"
"250031","img/neutralC/CFD-LF-242-121-N.jpg","img/neutralC/CFD-IM-727-195-N.jpg","img/neutralC/CFD-BF-238-190-N.jpg","1","1","1","0","1","1","0.997905499883927","0.957924999995157","0.628204600070603","1","1","1","1","1","1","1","1","1"
"250031","img/neutralC/CFD-BF-238-190-N.jpg","img/neutralC/CFD-LF-242-121-N.jpg","img/neutralC/CFD-LM-219-295-N.jpg","1","1","1","1","0","1","0.628204600070603","0.997905499883927","1.93414599995594","1","1","1","1","1","1","1","1","1"
"250031","img/neutralC/CFD-LM-219-295-N.jpg","img/neutralC/CFD-BF-238-190-N.jpg","img/neutralC/CFD-WM-242-011-N.jpg","1","1","1","1","1","0","1.93414599995594","0.628204600070603","0.784204899915494","1","1","1","1","1","1","1","1","1"
"250031","img/neutralC/CFD-WM-242-011-N.jpg","img/neutralC/CFD-LM-219-295-N.jpg","img/neutralC/CFD-WM-227-099-N.jpg","1","1","1","0","1","1","0.784204899915494","1.93414599995594","0.713332899962552","1","1","1","1","1","1","1","1","1"
"250031","img/neutralC/CFD-WM-227-099-N.jpg","img/neutralC/CFD-WM-242-011-N.jpg","img/neutralC/CFD-AF-202-122-N.jpg","1","1","1","1","0","1","0.713332899962552","0.784204899915494","0.535134200006723","1","1","1","1","1","1","1","1","1"
"250031","img/neutralC/CFD-AF-202-122-N.jpg","img/neutralC/CFD-WM-227-099-N.jpg","img/neutralC/CFD-IM-657-308-N.jpg","1","1","1","1","1","0","0.535134200006723","0.713332899962552","1.05665190005675","1","1","1","1","1","1","1","1","1"
"250031","img/neutralC/CFD-IM-657-308-N.jpg","img/neutralC/CFD-AF-202-122-N.jpg",NA,"1","1",NA,"0","1",NA,"1.05665190005675","0.535134200006723",NA,"1","1",NA,"1","1",NA,"1","1",NA
"250031","img/neutralC/CFD-WM-023-001-N.jpg",NA,"img/neutralC/CFD-IM-697-015-N.jpg","1",NA,"1","0",NA,"1","0.95843890006654",NA,"0.544930699979886","1",NA,"1","1",NA,"1","1",NA,"1"
"250031","img/neutralC/CFD-IM-697-015-N.jpg","img/neutralC/CFD-WM-023-001-N.jpg","img/neutralC/CFD-WF-241-210-N.jpg","1","1","1","1","0","0","0.544930699979886","0.95843890006654","0.564692899934016","1","1","1","1","1","1","1","1","1"
"250031","img/neutralC/CFD-WF-241-210-N.jpg","img/neutralC/CFD-IM-697-015-N.jpg","img/neutralC/CFD-BM-020-001-N.jpg","1","1","1","0","1","0","0.564692899934016","0.544930699979886","0.479909999994561","1","1","1","1","1","1","1","1","1"
"250031","img/neutralC/CFD-BM-020-001-N.jpg","img/neutralC/CFD-WF-241-210-N.jpg","img/neutralC/CFD-IM-689-263-N.jpg","1","1","1","0","0","1","0.479909999994561","0.564692899934016","0.658065499970689","1","1","1","1","1","1","1","1","1"
"250031","img/neutralC/CFD-IM-689-263-N.jpg","img/neutralC/CFD-BM-020-001-N.jpg","img/neutralC/CFD-IF-676-017-N.jpg","1","1","1","1","0","1","0.658065499970689","0.479909999994561","0.643429600051604","1","1","1","1","1","1","1","1","1"
"250031","img/neutralC/CFD-IF-676-017-N.jpg","img/neutralC/CFD-IM-689-263-N.jpg","img/neutralC/CFD-BF-244-231-N.jpg","1","1","1","1","1","1","0.643429600051604","0.658065499970689","0.694153300020844","1","1","1","1","1","1","1","1","1"
"250031","img/neutralC/CFD-BF-244-231-N.jpg","img/neutralC/CFD-IF-676-017-N.jpg","img/neutralC/CFD-BF-012-001-N.jpg","1","1","0","1","1","0","0.694153300020844","0.643429600051604","0.865989499958232","1","1","1","1","1","1","1","1","1"
"250031","img/neutralC/CFD-BF-012-001-N.jpg","img/neutralC/CFD-BF-244-231-N.jpg","img/neutralC/CFD-AM-205-153-N.jpg","0","1","1","0","1","1","0.865989499958232","0.694153300020844","1.14171209989581","1","1","1","1","1","1","1","1","1"
"250031","img/neutralC/CFD-AM-205-153-N.jpg","img/neutralC/CFD-BF-012-001-N.jpg","img/neutralC/CFD-MM-306-010-N.jpg","1","0","1","1","0","0","1.14171209989581","0.865989499958232","0.582834500004537","1","1","1","1","1","1","1","1","1"
"250031","img/neutralC/CFD-MM-306-010-N.jpg","img/neutralC/CFD-AM-205-153-N.jpg","img/neutralC/CFD-WF-243-148-N.jpg","1","1","1","0","1","0","0.582834500004537","1.14171209989581","0.592537999968044","1","1","1","1","1","1","1","1","1"
"250031","img/neutralC/CFD-WF-243-148-N.jpg","img/neutralC/CFD-MM-306-010-N.jpg","img/neutralC/CFD-WM-028-003-N.jpg","1","1","1","0","0","1","0.592537999968044","0.582834500004537","0.758314699982293","1","1","1","1","1","1","1","1","1"
"250031","img/neutralC/CFD-WM-028-003-N.jpg","img/neutralC/CFD-WF-243-148-N.jpg","img/neutralC/CFD-BM-227-191-N.jpg","1","1","1","1","0","1","0.758314699982293","0.592537999968044","0.654315499938093","1","1","1","1","1","1","1","1","1"
"250031","img/neutralC/CFD-BM-227-191-N.jpg","img/neutralC/CFD-WM-028-003-N.jpg","img/neutralC/CFD-AF-237-223-N.jpg","1","1","1","1","1","0","0.654315499938093","0.758314699982293","1.27610639994964","1","1","1","1","1","1","1","1","1"
"250031","img/neutralC/CFD-AF-237-223-N.jpg","img/neutralC/CFD-BM-227-191-N.jpg","img/neutralC/CFD-LF-212-066-N.jpg","1","1","1","0","1","1","1.27610639994964","0.654315499938093","0.599834299995564","1","1","1","1","1","1","1","1","1"
"250031","img/neutralC/CFD-LF-212-066-N.jpg","img/neutralC/CFD-AF-237-223-N.jpg","img/neutralC/CFD-WF-009-001-N.jpg","1","1","1","1","0","1","0.599834299995564","1.27610639994964","0.682777000009082","1","1","1","1","1","1","1","1","1"
"250031","img/neutralC/CFD-WF-009-001-N.jpg","img/neutralC/CFD-LF-212-066-N.jpg","img/neutralC/CFD-BM-021-021-N.jpg","1","1","1","1","1","1","0.682777000009082","0.599834299995564","0.511266399989836","1","1","1","1","1","1","1","1","1"
"250031","img/neutralC/CFD-BM-021-021-N.jpg","img/neutralC/CFD-WF-009-001-N.jpg","img/neutralC/CFD-BM-043-071-N.jpg","1","1","1","1","1","0","0.511266399989836","0.682777000009082","0.665738400071859","1","1","1","1","1","1","1","1","1"
"250031","img/neutralC/CFD-BM-043-071-N.jpg","img/neutralC/CFD-BM-021-021-N.jpg","img/neutralC/CFD-IM-615-167-N.jpg","1","1","1","0","1","0","0.665738400071859","0.511266399989836","0.607572400011122","1","1","1","1","1","1","1","1","1"
"250031","img/neutralC/CFD-IM-615-167-N.jpg","img/neutralC/CFD-BM-043-071-N.jpg","img/neutralC/CFD-LF-222-147-N.jpg","1","1","1","0","0","0","0.607572400011122","0.665738400071859","0.595545399934053","1","1","1","1","1","1","1","1","1"
"250031","img/neutralC/CFD-LF-222-147-N.jpg","img/neutralC/CFD-IM-615-167-N.jpg","img/neutralC/CFD-WF-207-014-N.jpg","1","1","1","0","0","1","0.595545399934053","0.607572400011122","0.659723899909295","1","1","1","1","1","1","1","1","2"
"250031","img/neutralC/CFD-WF-207-014-N.jpg","img/neutralC/CFD-LF-222-147-N.jpg","img/neutralC/CFD-BM-030-003-N.jpg","1","1","1","1","0","0","0.659723899909295","0.595545399934053","0.670775600010529","1","1","1","1","1","1","2","1","1"
"250031","img/neutralC/CFD-BM-030-003-N.jpg","img/neutralC/CFD-WF-207-014-N.jpg","img/neutralC/CFD-MF-328-020-N.jpg","1","1","0","0","1","0","0.670775600010529","0.659723899909295","0.838995900005102","1","1","1","1","1","1","1","2","1"
"250031","img/neutralC/CFD-MF-328-020-N.jpg","img/neutralC/CFD-BM-030-003-N.jpg","img/neutralC/CFD-WF-221-005-N.jpg","0","1","1","0","0","0","0.838995900005102","0.670775600010529","0.781811499968171","1","1","1","1","1","1","1","1","1"
"250031","img/neutralC/CFD-WF-221-005-N.jpg","img/neutralC/CFD-MF-328-020-N.jpg","img/neutralC/CFD-IM-606-008-N.jpg","1","0","1","0","0","0","0.781811499968171","0.838995900005102","0.780737799941562","1","1","1","1","1","1","1","1","1"
"250031","img/neutralC/CFD-IM-606-008-N.jpg","img/neutralC/CFD-WF-221-005-N.jpg","img/neutralC/CFD-LF-238-154-N.jpg","1","1","1","0","0","1","0.780737799941562","0.781811499968171","0.580279599991627","1","1","1","1","1","1","1","1","1"
"250031","img/neutralC/CFD-LF-238-154-N.jpg","img/neutralC/CFD-IM-606-008-N.jpg","img/neutralC/CFD-AM-243-212-N.jpg","1","1","1","1","0","1","0.580279599991627","0.780737799941562","0.612674500094727","1","1","1","1","1","1","1","1","1"
"250031","img/neutralC/CFD-AM-243-212-N.jpg","img/neutralC/CFD-LF-238-154-N.jpg","img/neutralC/CFD-BM-009-002-N.jpg","1","1","1","1","1","1","0.612674500094727","0.580279599991627","0.58575580001343","1","1","1","1","1","1","1","1","1"
"250031","img/neutralC/CFD-BM-009-002-N.jpg","img/neutralC/CFD-AM-243-212-N.jpg","img/neutralC/CFD-WM-025-002-N.jpg","1","1","1","1","1","0","0.58575580001343","0.612674500094727","0.751885599922389","1","1","1","1","1","1","1","1","1"
"250031","img/neutralC/CFD-WM-025-002-N.jpg","img/neutralC/CFD-BM-009-002-N.jpg","img/neutralC/CFD-AM-219-101-N.jpg","1","1","1","0","1","0","0.751885599922389","0.58575580001343","0.83817249990534","1","1","1","1","1","1","1","1","1"
"250031","img/neutralC/CFD-AM-219-101-N.jpg","img/neutralC/CFD-WM-025-002-N.jpg","img/neutralC/CFD-AM-249-163-N.jpg","1","1","1","0","0","1","0.83817249990534","0.751885599922389","0.489273299928755","1","1","1","1","1","1","1","1","1"
"250031","img/neutralC/CFD-AM-249-163-N.jpg","img/neutralC/CFD-AM-219-101-N.jpg","img/neutralC/CFD-LM-240-013-N.jpg","1","1","1","1","0","1","0.489273299928755","0.83817249990534","0.500002500019036","1","1","1","1","1","1","1","1","1"
"250031","img/neutralC/CFD-LM-240-013-N.jpg","img/neutralC/CFD-AM-249-163-N.jpg",NA,"1","1",NA,"1","1",NA,"0.500002500019036","0.489273299928755",NA,"1","1",NA,"1","1",NA,"1","1",NA
"250031","img/neutralC/CFD-WF-027-003-N.jpg",NA,"img/neutralC/CFD-WM-255-219-N.jpg","1",NA,"1","1",NA,"0","0.595009199925698",NA,"0.689874200033955","1",NA,"1","1",NA,"1","1",NA,"1"
"250031","img/neutralC/CFD-WM-255-219-N.jpg","img/neutralC/CFD-WF-027-003-N.jpg","img/neutralC/CFD-MF-321-003-N.jpg","1","1","1","0","1","0","0.689874200033955","0.595009199925698","0.387552900006995","1","1","1","1","1","1","1","1","1"
"250031","img/neutralC/CFD-MF-321-003-N.jpg","img/neutralC/CFD-WM-255-219-N.jpg","img/neutralC/CFD-WF-245-084-N.jpg","1","1","1","0","0","1","0.387552900006995","0.689874200033955","0.557962500024587","1","1","1","1","1","1","1","1","1"
"250031","img/neutralC/CFD-WF-245-084-N.jpg","img/neutralC/CFD-MF-321-003-N.jpg","img/neutralC/CFD-WF-226-095-N.jpg","1","1","1","1","0","1","0.557962500024587","0.387552900006995","0.517336899996735","1","1","1","1","1","1","1","1","1"
"250031","img/neutralC/CFD-WF-226-095-N.jpg","img/neutralC/CFD-WF-245-084-N.jpg","img/neutralC/CFD-MM-321-021-N.jpg","1","1","1","1","1","0","0.517336899996735","0.557962500024587","0.697347600013018","1","1","1","1","1","1","1","1","1"
"250031","img/neutralC/CFD-MM-321-021-N.jpg","img/neutralC/CFD-WF-226-095-N.jpg","img/neutralC/CFD-MF-342-022-N.jpg","1","1","1","0","1","1","0.697347600013018","0.517336899996735","0.700294999987818","1","1","1","1","1","1","1","1","1"
"250031","img/neutralC/CFD-MF-342-022-N.jpg","img/neutralC/CFD-MM-321-021-N.jpg","img/neutralC/CFD-IM-719-221-N.jpg","1","1","1","1","0","0","0.700294999987818","0.697347600013018","0.51978329999838","1","1","1","1","1","1","1","1","1"
"250031","img/neutralC/CFD-IM-719-221-N.jpg","img/neutralC/CFD-MF-342-022-N.jpg","img/neutralC/CFD-LF-215-157-N.jpg","1","1","1","0","1","0","0.51978329999838","0.700294999987818","0.55647329997737","1","1","1","1","1","1","1","1","1"
"250031","img/neutralC/CFD-LF-215-157-N.jpg","img/neutralC/CFD-IM-719-221-N.jpg","img/neutralC/CFD-IM-700-009-N.jpg","1","1","1","0","0","1","0.55647329997737","0.51978329999838","0.773874999955297","1","1","1","1","1","1","1","1","1"
"250031","img/neutralC/CFD-IM-700-009-N.jpg","img/neutralC/CFD-LF-215-157-N.jpg","img/neutralC/CFD-WM-013-001-N.jpg","1","1","1","1","0","1","0.773874999955297","0.55647329997737","0.538130400003865","1","1","1","1","1","1","1","1","1"
"250031","img/neutralC/CFD-WM-013-001-N.jpg","img/neutralC/CFD-IM-700-009-N.jpg","img/neutralC/CFD-BF-018-039-N.jpg","1","1","1","1","1","1","0.538130400003865","0.773874999955297","0.474083899985999","1","1","1","1","1","1","1","1","1"
"250031","img/neutralC/CFD-BF-018-039-N.jpg","img/neutralC/CFD-WM-013-001-N.jpg","img/neutralC/CFD-WF-238-023-N.jpg","1","1","1","1","1","0","0.474083899985999","0.538130400003865","0.556379899964668","1","1","1","1","1","1","1","1","1"
"250031","img/neutralC/CFD-WF-238-023-N.jpg","img/neutralC/CFD-BF-018-039-N.jpg","img/neutralC/CFD-WF-023-003-N.jpg","1","1","1","0","1","1","0.556379899964668","0.474083899985999","0.686653499957174","1","1","1","1","1","1","1","1","1"
"250031","img/neutralC/CFD-WF-023-003-N.jpg","img/neutralC/CFD-WF-238-023-N.jpg","img/neutralC/CFD-IM-627-178-N.jpg","1","1","1","1","0","1","0.686653499957174","0.556379899964668","0.738189999945462","1","1","1","1","1","1","1","1","1"
"250031","img/neutralC/CFD-IM-627-178-N.jpg","img/neutralC/CFD-WF-023-003-N.jpg","img/neutralC/CFD-WM-009-002-N.jpg","1","1","1","1","1","0","0.738189999945462","0.686653499957174","0.77761579991784","1","1","1","1","1","1","1","1","1"
"250031","img/neutralC/CFD-WM-009-002-N.jpg","img/neutralC/CFD-IM-627-178-N.jpg","img/neutralC/CFD-MF-318-022-N.jpg","1","1","1","0","1","1","0.77761579991784","0.738189999945462","0.896852100035176","1","1","1","1","1","1","1","1","1"
"250031","img/neutralC/CFD-MF-318-022-N.jpg","img/neutralC/CFD-WM-009-002-N.jpg","img/neutralC/CFD-WM-221-091-N.jpg","1","1","1","1","0","0","0.896852100035176","0.77761579991784","0.549467599950731","1","1","1","1","1","1","1","1","1"
"250031","img/neutralC/CFD-WM-221-091-N.jpg","img/neutralC/CFD-MF-318-022-N.jpg","img/neutralC/CFD-BF-218-207-N.jpg","1","1","1","0","1","1","0.549467599950731","0.896852100035176","0.571045399992727","1","1","1","1","1","1","1","1","1"
"250031","img/neutralC/CFD-BF-218-207-N.jpg","img/neutralC/CFD-WM-221-091-N.jpg","img/neutralC/CFD-AF-221-147-N.jpg","1","1","1","1","0","0","0.571045399992727","0.549467599950731","0.630431899917312","1","1","1","1","1","1","1","1","1"
"250031","img/neutralC/CFD-AF-221-147-N.jpg","img/neutralC/CFD-BF-218-207-N.jpg","img/neutralC/CFD-IF-629-234-N.jpg","1","1","1","0","1","0","0.630431899917312","0.571045399992727","0.82175219990313","1","1","1","1","1","1","1","1","1"
"250031","img/neutralC/CFD-IF-629-234-N.jpg","img/neutralC/CFD-AF-221-147-N.jpg","img/neutralC/CFD-AF-232-078-N.jpg","1","1","1","0","0","1","0.82175219990313","0.630431899917312","0.497163299936801","1","1","1","1","1","1","1","1","1"
"250031","img/neutralC/CFD-AF-232-078-N.jpg","img/neutralC/CFD-IF-629-234-N.jpg","img/neutralC/CFD-BF-254-201-N.jpg","1","1","1","1","0","0","0.497163299936801","0.82175219990313","0.649593700072728","1","1","1","1","1","1","1","1","1"
"250031","img/neutralC/CFD-BF-254-201-N.jpg","img/neutralC/CFD-AF-232-078-N.jpg","img/neutralC/CFD-WM-237-052-N.jpg","1","1","1","0","1","1","0.649593700072728","0.497163299936801","0.471685900003649","1","1","1","1","1","1","1","1","1"
"250031","img/neutralC/CFD-WM-237-052-N.jpg","img/neutralC/CFD-BF-254-201-N.jpg","img/neutralC/CFD-LF-211-003-N.jpg","1","1","1","1","0","0","0.471685900003649","0.649593700072728","0.586577800102532","1","1","1","1","1","1","1","1","1"
"250031","img/neutralC/CFD-LF-211-003-N.jpg","img/neutralC/CFD-WM-237-052-N.jpg","img/neutralC/CFD-BM-200-046-N.jpg","1","1","1","0","1","0","0.586577800102532","0.471685900003649","0.626499399892054","1","1","1","1","1","1","1","1","1"
"250031","img/neutralC/CFD-BM-200-046-N.jpg","img/neutralC/CFD-LF-211-003-N.jpg","img/neutralC/CFD-AM-244-222-N.jpg","1","1","1","0","0","0","0.626499399892054","0.586577800102532","0.48521830001846","1","1","1","1","1","1","1","1","1"
"250031","img/neutralC/CFD-AM-244-222-N.jpg","img/neutralC/CFD-BM-200-046-N.jpg","img/neutralC/CFD-WM-201-063-N.jpg","1","1","1","0","0","1","0.48521830001846","0.626499399892054","0.476637699990533","1","1","1","1","1","1","1","1","1"
"250031","img/neutralC/CFD-WM-201-063-N.jpg","img/neutralC/CFD-AM-244-222-N.jpg","img/neutralC/CFD-WF-018-017-N.jpg","1","1","1","1","0","1","0.476637699990533","0.48521830001846","0.441961399978027","1","1","1","1","1","1","1","1","1"
"250031","img/neutralC/CFD-WF-018-017-N.jpg","img/neutralC/CFD-WM-201-063-N.jpg","img/neutralC/CFD-LM-253-075-N.jpg","1","1","1","1","1","0","0.441961399978027","0.476637699990533","0.774375699926168","1","1","1","1","1","1","1","1","1"
"250031","img/neutralC/CFD-LM-253-075-N.jpg","img/neutralC/CFD-WF-018-017-N.jpg","img/neutralC/CFD-BM-023-029-N.jpg","1","1","1","0","1","1","0.774375699926168","0.441961399978027","0.63531589997001","1","1","1","1","1","1","1","1","1"
"250031","img/neutralC/CFD-BM-023-029-N.jpg","img/neutralC/CFD-LM-253-075-N.jpg","img/neutralC/CFD-BM-204-003-N.jpg","1","1","0","1","0","0","0.63531589997001","0.774375699926168",NA,"1","1","0","1","1","0","1","1","0"
"250031","img/neutralC/CFD-BM-204-003-N.jpg","img/neutralC/CFD-BM-023-029-N.jpg",NA,"0","1",NA,"0","1",NA,NA,"0.63531589997001",NA,"0","1",NA,"0","1",NA,"0","1",NA
"250031","img/neutralC/CFD-BF-222-240-N.jpg",NA,"img/neutralC/CFD-BF-004-014-N.jpg","0",NA,"1","0",NA,"1","1.15546030004043",NA,"0.573254700051621","1",NA,"1","1",NA,"1","1",NA,"1"
"250031","img/neutralC/CFD-BF-004-014-N.jpg","img/neutralC/CFD-BF-222-240-N.jpg","img/neutralC/CFD-LF-210-220-N.jpg","1","0","1","1","0","1","0.573254700051621","1.15546030004043","0.532538100029342","1","1","1","1","1","1","1","1","1"
"250031","img/neutralC/CFD-LF-210-220-N.jpg","img/neutralC/CFD-BF-004-014-N.jpg","img/neutralC/CFD-WM-228-065-N.jpg","1","1","1","1","1","0","0.532538100029342","0.573254700051621","0.623881999985315","1","1","1","1","1","1","1","1","1"
"250031","img/neutralC/CFD-WM-228-065-N.jpg","img/neutralC/CFD-LF-210-220-N.jpg","img/neutralC/CFD-LF-225-164-N.jpg","1","1","1","0","1","1","0.623881999985315","0.532538100029342","0.45789269998204","1","1","1","1","1","1","1","1","1"
"250031","img/neutralC/CFD-LF-225-164-N.jpg","img/neutralC/CFD-WM-228-065-N.jpg","img/neutralC/CFD-BF-045-003-N.jpg","1","1","1","1","0","0","0.45789269998204","0.623881999985315","0.548675399972126","1","1","1","1","1","1","1","1","1"
"250031","img/neutralC/CFD-BF-045-003-N.jpg","img/neutralC/CFD-LF-225-164-N.jpg","img/neutralC/CFD-MF-312-002-N.jpg","1","1","1","0","1","1","0.548675399972126","0.45789269998204","0.40001119999215","1","1","1","1","1","1","1","1","1"
"250031","img/neutralC/CFD-MF-312-002-N.jpg","img/neutralC/CFD-BF-045-003-N.jpg","img/neutralC/CFD-IM-659-359-N.jpg","1","1","1","1","0","0","0.40001119999215","0.548675399972126","0.504593200050294","1","1","1","1","1","1","1","1","1"
"250031","img/neutralC/CFD-IM-659-359-N.jpg","img/neutralC/CFD-MF-312-002-N.jpg","img/neutralC/CFD-BM-013-002-N.jpg","1","1","1","0","1","1","0.504593200050294","0.40001119999215","0.469497199985199","1","1","1","1","1","1","1","1","1"
"250031","img/neutralC/CFD-BM-013-002-N.jpg","img/neutralC/CFD-IM-659-359-N.jpg","img/neutralC/CFD-LF-241-188-N.jpg","1","1","1","1","0","0","0.469497199985199","0.504593200050294","0.519078099983744","1","1","1","1","1","1","1","1","1"
"250031","img/neutralC/CFD-LF-241-188-N.jpg","img/neutralC/CFD-BM-013-002-N.jpg","img/neutralC/CFD-BM-028-002-N.jpg","1","1","1","0","1","1","0.519078099983744","0.469497199985199","0.867921600001864","1","1","1","1","1","1","1","1","1"
"250031","img/neutralC/CFD-BM-028-002-N.jpg","img/neutralC/CFD-LF-241-188-N.jpg","img/neutralC/CFD-BM-003-003-N.jpg","1","1","1","1","0","0","0.867921600001864","0.519078099983744","0.773269400000572","1","1","1","1","1","1","1","1","1"
"250031","img/neutralC/CFD-BM-003-003-N.jpg","img/neutralC/CFD-BM-028-002-N.jpg","img/neutralC/CFD-BM-010-003-N.jpg","1","1","1","0","1","0","0.773269400000572","0.867921600001864","0.569181499886326","1","1","1","1","1","1","1","1","1"
"250031","img/neutralC/CFD-BM-010-003-N.jpg","img/neutralC/CFD-BM-003-003-N.jpg","img/neutralC/CFD-IF-744-114-N.jpg","1","1","1","0","0","0","0.569181499886326","0.773269400000572","0.560414399951696","1","1","1","1","1","1","1","1","1"
"250031","img/neutralC/CFD-IF-744-114-N.jpg","img/neutralC/CFD-BM-010-003-N.jpg","img/neutralC/CFD-AM-221-184-N.jpg","1","1","1","0","0","1","0.560414399951696","0.569181499886326","0.670053399982862","1","1","1","1","1","1","1","1","1"
"250031","img/neutralC/CFD-AM-221-184-N.jpg","img/neutralC/CFD-IF-744-114-N.jpg","img/neutralC/CFD-AF-239-171-N.jpg","1","1","1","1","0","1","0.670053399982862","0.560414399951696","0.595521099981852","1","1","1","1","1","1","1","1","1"
"250031","img/neutralC/CFD-AF-239-171-N.jpg","img/neutralC/CFD-AM-221-184-N.jpg","img/neutralC/CFD-WF-006-002-N.jpg","1","1","1","1","1","0","0.595521099981852","0.670053399982862","0.535450899973512","1","1","1","1","1","1","1","1","1"
"250031","img/neutralC/CFD-WF-006-002-N.jpg","img/neutralC/CFD-AF-239-171-N.jpg","img/neutralC/CFD-IF-625-225-N.jpg","1","1","1","0","1","0","0.535450899973512","0.595521099981852","0.567378500010818","1","1","1","1","1","1","1","1","1"
"250031","img/neutralC/CFD-IF-625-225-N.jpg","img/neutralC/CFD-WF-006-002-N.jpg","img/neutralC/CFD-LF-208-127-N.jpg","1","1","1","0","0","0","0.567378500010818","0.535450899973512","0.626163900014944","1","1","1","1","1","1","1","1","1"
"250031","img/neutralC/CFD-LF-208-127-N.jpg","img/neutralC/CFD-IF-625-225-N.jpg","img/neutralC/CFD-AF-227-207-N.jpg","1","1","1","0","0","1","0.626163900014944","0.567378500010818","0.443396699964069","1","1","1","1","1","1","1","1","1"
"250031","img/neutralC/CFD-AF-227-207-N.jpg","img/neutralC/CFD-LF-208-127-N.jpg","img/neutralC/CFD-WM-254-152-N.jpg","1","1","1","1","0","1","0.443396699964069","0.626163900014944","0.489760800031945","1","1","1","1","1","1","1","1","1"
"250031","img/neutralC/CFD-WM-254-152-N.jpg","img/neutralC/CFD-AF-227-207-N.jpg","img/neutralC/CFD-LM-238-129-N.jpg","1","1","1","1","1","1","0.489760800031945","0.443396699964069","0.504569799988531","1","1","1","1","1","1","1","1","1"
"250031","img/neutralC/CFD-LM-238-129-N.jpg","img/neutralC/CFD-WM-254-152-N.jpg","img/neutralC/CFD-BM-213-134-N.jpg","1","1","1","1","1","1","0.504569799988531","0.489760800031945","0.677008800092153","1","1","1","1","1","1","1","1","1"
"250031","img/neutralC/CFD-BM-213-134-N.jpg","img/neutralC/CFD-LM-238-129-N.jpg","img/neutralC/CFD-AF-210-050-N.jpg","1","1","1","1","1","1","0.677008800092153","0.504569799988531","0.666694100014865","1","1","1","1","1","1","1","1","1"
"250031","img/neutralC/CFD-AF-210-050-N.jpg","img/neutralC/CFD-BM-213-134-N.jpg","img/neutralC/CFD-MF-336-016-N.jpg","1","1","1","1","1","1","0.666694100014865","0.677008800092153","0.542253200081177","1","1","1","1","1","1","1","1","1"
"250031","img/neutralC/CFD-MF-336-016-N.jpg","img/neutralC/CFD-AF-210-050-N.jpg","img/neutralC/CFD-IM-701-312-N.jpg","1","1","1","1","1","0","0.542253200081177","0.666694100014865","0.65060649998486","1","1","1","1","1","1","1","1","1"
"250031","img/neutralC/CFD-IM-701-312-N.jpg","img/neutralC/CFD-MF-336-016-N.jpg","img/neutralC/CFD-IM-738-191-N.jpg","1","1","1","0","1","0","0.65060649998486","0.542253200081177","0.696447799913585","1","1","1","1","1","1","1","1","1"
"250031","img/neutralC/CFD-IM-738-191-N.jpg","img/neutralC/CFD-IM-701-312-N.jpg","img/neutralC/CFD-WF-033-002-N.jpg","1","1","1","0","0","1","0.696447799913585","0.65060649998486","0.661630100104958","1","1","1","1","1","1","1","1","1"
"250031","img/neutralC/CFD-WF-033-002-N.jpg","img/neutralC/CFD-IM-738-191-N.jpg","img/neutralC/CFD-WF-223-133-N.jpg","1","1","1","1","0","0","0.661630100104958","0.696447799913585","0.875146999955177","1","1","1","1","1","1","1","1","1"
"250031","img/neutralC/CFD-WF-223-133-N.jpg","img/neutralC/CFD-WF-033-002-N.jpg","img/neutralC/CFD-WM-202-107-N.jpg","1","1","1","0","1","1","0.875146999955177","0.661630100104958","0.553852199926041","1","1","1","1","1","1","1","1","1"
"250031","img/neutralC/CFD-WM-202-107-N.jpg","img/neutralC/CFD-WF-223-133-N.jpg","img/neutralC/CFD-IF-673-389-N.jpg","1","1","1","1","0","0","0.553852199926041","0.875146999955177","0.755874100024812","1","1","1","1","1","1","1","1","1"
"250031","img/neutralC/CFD-IF-673-389-N.jpg","img/neutralC/CFD-WM-202-107-N.jpg","img/neutralC/CFD-LM-247-095-N.jpg","1","1","1","0","1","0","0.755874100024812","0.553852199926041","0.608910499955527","1","1","1","1","1","1","1","1","1"
"250031","img/neutralC/CFD-LM-247-095-N.jpg","img/neutralC/CFD-IF-673-389-N.jpg",NA,"1","1",NA,"0","0",NA,"0.608910499955527","0.755874100024812",NA,"1","1",NA,"1","1",NA,"1","1",NA
"250031","img/neutralC/CFD-WM-209-038-N.jpg",NA,"img/neutralC/CFD-IM-680-369-N.jpg","1",NA,"1","0",NA,"1","0.775006500072777",NA,"0.833273199968971","1",NA,"1","1",NA,"1","1",NA,"1"
"250031","img/neutralC/CFD-IM-680-369-N.jpg","img/neutralC/CFD-WM-209-038-N.jpg","img/neutralC/CFD-BM-217-082-N.jpg","1","1","1","1","0","0","0.833273199968971","0.775006500072777","0.542346600093879","1","1","1","1","1","1","1","1","1"
"250031","img/neutralC/CFD-BM-217-082-N.jpg","img/neutralC/CFD-IM-680-369-N.jpg","img/neutralC/CFD-MF-316-001-N.jpg","1","1","1","0","1","0","0.542346600093879","0.833273199968971","0.58332179998979","1","1","1","1","1","1","1","1","1"
"250031","img/neutralC/CFD-MF-316-001-N.jpg","img/neutralC/CFD-BM-217-082-N.jpg","img/neutralC/CFD-LF-206-078-N.jpg","1","1","1","0","0","1","0.58332179998979","0.542346600093879","0.50996729999315","1","1","1","1","1","1","1","1","1"
"250031","img/neutralC/CFD-LF-206-078-N.jpg","img/neutralC/CFD-MF-316-001-N.jpg","img/neutralC/CFD-BM-001-014-N.jpg","1","1","1","1","0","0","0.50996729999315","0.58332179998979","0.723302199970931","1","1","1","1","1","1","1","1","1"
"250031","img/neutralC/CFD-BM-001-014-N.jpg","img/neutralC/CFD-LF-206-078-N.jpg","img/neutralC/CFD-LF-255-088-N.jpg","1","1","1","0","1","0","0.723302199970931","0.50996729999315","0.625845900038257","1","1","1","1","1","1","1","1","1"
"250031","img/neutralC/CFD-LF-255-088-N.jpg","img/neutralC/CFD-BM-001-014-N.jpg","img/neutralC/CFD-WM-218-074-N.jpg","1","1","1","0","0","1","0.625845900038257","0.723302199970931","0.467890599975362","1","1","1","1","1","1","1","1","1"
"250031","img/neutralC/CFD-WM-218-074-N.jpg","img/neutralC/CFD-LF-255-088-N.jpg","img/neutralC/CFD-MM-324-069-N.jpg","1","1","1","1","0","1","0.467890599975362","0.625845900038257","0.46406970010139","1","1","1","1","1","1","1","1","1"
"250031","img/neutralC/CFD-MM-324-069-N.jpg","img/neutralC/CFD-WM-218-074-N.jpg","img/neutralC/CFD-IM-664-651-N.jpg","1","1","1","1","1","1","0.46406970010139","0.467890599975362","0.945181800052524","1","1","1","1","1","1","1","1","1"
"250031","img/neutralC/CFD-IM-664-651-N.jpg","img/neutralC/CFD-MM-324-069-N.jpg","img/neutralC/CFD-AF-253-130-N.jpg","1","1","1","1","1","1","0.945181800052524","0.46406970010139","0.641407200018875","1","1","1","1","1","1","1","1","1"
"250031","img/neutralC/CFD-AF-253-130-N.jpg","img/neutralC/CFD-IM-664-651-N.jpg","img/neutralC/CFD-MF-357-002-N.jpg","1","1","1","1","1","0","0.641407200018875","0.945181800052524","0.574218100053258","1","1","1","1","1","1","1","1","1"
"250031","img/neutralC/CFD-MF-357-002-N.jpg","img/neutralC/CFD-AF-253-130-N.jpg","img/neutralC/CFD-MF-305-014-N.jpg","1","1","1","0","1","1","0.574218100053258","0.641407200018875","0.426578600076027","1","1","1","1","1","1","1","1","1"
"250031","img/neutralC/CFD-MF-305-014-N.jpg","img/neutralC/CFD-MF-357-002-N.jpg","img/neutralC/CFD-IM-706-002-N.jpg","1","1","1","1","0","0","0.426578600076027","0.574218100053258","0.730732400086708","1","1","1","1","1","1","1","1","1"
"250031","img/neutralC/CFD-IM-706-002-N.jpg","img/neutralC/CFD-MF-305-014-N.jpg","img/neutralC/CFD-LM-225-130-N.jpg","1","1","1","0","1","0","0.730732400086708","0.426578600076027","0.547986799967475","1","1","1","1","1","1","1","1","1"
"250031","img/neutralC/CFD-LM-225-130-N.jpg","img/neutralC/CFD-IM-706-002-N.jpg","img/neutralC/CFD-WF-244-163-N.jpg","1","1","1","0","0","1","0.547986799967475","0.730732400086708","0.811095499899238","1","1","1","1","1","1","1","1","1"
"250031","img/neutralC/CFD-WF-244-163-N.jpg","img/neutralC/CFD-LM-225-130-N.jpg","img/neutralC/CFD-BF-237-172-N.jpg","1","1","1","1","0","1","0.811095499899238","0.547986799967475","0.581731599988416","1","1","1","1","1","1","1","1","1"
"250031","img/neutralC/CFD-BF-237-172-N.jpg","img/neutralC/CFD-WF-244-163-N.jpg","img/neutralC/CFD-IM-702-101-N.jpg","1","1","0","1","1","1","0.581731599988416","0.811095499899238","0.797557500074618","1","1","1","1","1","1","1","1","1"
"250031","img/neutralC/CFD-IM-702-101-N.jpg","img/neutralC/CFD-BF-237-172-N.jpg","img/neutralC/CFD-AM-220-134-N.jpg","0","1","1","1","1","0","0.797557500074618","0.581731599988416","0.826123599894345","1","1","1","1","1","1","1","1","1"
"250031","img/neutralC/CFD-AM-220-134-N.jpg","img/neutralC/CFD-IM-702-101-N.jpg","img/neutralC/CFD-WF-007-001-N.jpg","1","0","1","0","1","1","0.826123599894345","0.797557500074618","0.506316400016658","1","1","1","1","1","1","1","1","1"
"250031","img/neutralC/CFD-WF-007-001-N.jpg","img/neutralC/CFD-AM-220-134-N.jpg","img/neutralC/CFD-MF-343-001-N.jpg","1","1","1","1","0","1","0.506316400016658","0.826123599894345","0.644013800076209","1","1","1","1","1","1","1","1","1"
"250031","img/neutralC/CFD-MF-343-001-N.jpg","img/neutralC/CFD-WF-007-001-N.jpg","img/neutralC/CFD-WF-222-092-N.jpg","1","1","1","1","1","1","0.644013800076209","0.506316400016658","0.846565899904817","1","1","1","1","1","1","1","1","1"
"250031","img/neutralC/CFD-WF-222-092-N.jpg","img/neutralC/CFD-MF-343-001-N.jpg","img/neutralC/CFD-IF-626-375-N.jpg","1","1","1","1","1","0","0.846565899904817","0.644013800076209","0.543324499973096","1","1","1","1","1","1","1","1","1"
"250031","img/neutralC/CFD-IF-626-375-N.jpg","img/neutralC/CFD-WF-222-092-N.jpg","img/neutralC/CFD-IF-660-464-N.jpg","1","1","1","0","1","0","0.543324499973096","0.846565899904817","0.57797889993526","1","1","1","1","1","1","1","1","1"
"250031","img/neutralC/CFD-IF-660-464-N.jpg","img/neutralC/CFD-IF-626-375-N.jpg","img/neutralC/CFD-MF-303-013-N.jpg","1","1","1","0","0","0","0.57797889993526","0.543324499973096","0.785475700045936","1","1","1","1","1","1","1","1","1"
"250031","img/neutralC/CFD-MF-303-013-N.jpg","img/neutralC/CFD-IF-660-464-N.jpg","img/neutralC/CFD-IM-667-369-N.jpg","1","1","1","0","0","0","0.785475700045936","0.57797889993526","0.595382599974982","1","1","1","1","1","1","1","1","1"
"250031","img/neutralC/CFD-IM-667-369-N.jpg","img/neutralC/CFD-MF-303-013-N.jpg","img/neutralC/CFD-AF-233-190-N.jpg","1","1","1","0","0","0","0.595382599974982","0.785475700045936","0.758427299908362","1","1","1","1","1","1","1","1","1"
"250031","img/neutralC/CFD-AF-233-190-N.jpg","img/neutralC/CFD-IM-667-369-N.jpg","img/neutralC/CFD-BF-014-002-N.jpg","1","1","1","0","0","1","0.758427299908362","0.595382599974982","0.901996699976735","1","1","1","1","1","1","1","1","1"
"250031","img/neutralC/CFD-BF-014-002-N.jpg","img/neutralC/CFD-AF-233-190-N.jpg","img/neutralC/CFD-LM-200-045-N.jpg","1","1","1","1","0","1","0.901996699976735","0.758427299908362","0.651308699976653","1","1","1","1","1","1","1","1","1"
"250031","img/neutralC/CFD-LM-200-045-N.jpg","img/neutralC/CFD-BF-014-002-N.jpg","img/neutralC/CFD-WM-015-002-N.jpg","1","1","1","1","1","0","0.651308699976653","0.901996699976735","0.566638299962506","1","1","1","1","1","1","1","1","1"
"250031","img/neutralC/CFD-WM-015-002-N.jpg","img/neutralC/CFD-LM-200-045-N.jpg","img/neutralC/CFD-BM-250-170-N.jpg","1","1","1","0","1","1","0.566638299962506","0.651308699976653","0.612317399936728","1","1","1","1","1","1","1","1","1"
"250031","img/neutralC/CFD-BM-250-170-N.jpg","img/neutralC/CFD-WM-015-002-N.jpg","img/neutralC/CFD-WF-030-002-N.jpg","1","1","1","1","0","0","0.612317399936728","0.566638299962506","0.531796499970369","1","1","1","1","1","1","1","1","1"
"250031","img/neutralC/CFD-WF-030-002-N.jpg","img/neutralC/CFD-BM-250-170-N.jpg",NA,"1","1",NA,"0","1",NA,"0.531796499970369","0.612317399936728",NA,"1","1",NA,"1","1",NA,"1","1",NA
"250031","img/neutralC/CFD-BF-043-003-N.jpg",NA,"img/neutralC/CFD-WF-012-002-N.jpg","1",NA,"1","0",NA,"1","1.11151109996717",NA,"0.713132799952291","1",NA,"1","1",NA,"1","1",NA,"1"
"250031","img/neutralC/CFD-WF-012-002-N.jpg","img/neutralC/CFD-BF-043-003-N.jpg","img/neutralC/CFD-IM-637-007-N.jpg","1","1","1","1","0","0","0.713132799952291","1.11151109996717","0.714644900057465","1","1","1","1","1","1","1","1","1"
"250031","img/neutralC/CFD-IM-637-007-N.jpg","img/neutralC/CFD-WF-012-002-N.jpg","img/neutralC/CFD-MF-329-001-N.jpg","1","1","1","0","1","0","0.714644900057465","0.713132799952291","0.595791999949142","1","1","1","1","1","1","1","1","1"
"250031","img/neutralC/CFD-MF-329-001-N.jpg","img/neutralC/CFD-IM-637-007-N.jpg","img/neutralC/CFD-AF-229-160-N.jpg","1","1","1","0","0","0","0.595791999949142","0.714644900057465","0.491889900062233","1","1","1","1","1","1","1","1","1"
"250031","img/neutralC/CFD-AF-229-160-N.jpg","img/neutralC/CFD-MF-329-001-N.jpg","img/neutralC/CFD-BM-039-029-N.jpg","1","1","1","0","0","1","0.491889900062233","0.595791999949142","0.670351499924436","1","1","1","1","1","1","1","1","1"
"250031","img/neutralC/CFD-BM-039-029-N.jpg","img/neutralC/CFD-AF-229-160-N.jpg","img/neutralC/CFD-IF-608-390-N.jpg","1","1","1","1","0","1","0.670351499924436","0.491889900062233","0.548843599972315","1","1","1","1","1","1","1","1","1"
"250031","img/neutralC/CFD-IF-608-390-N.jpg","img/neutralC/CFD-BM-039-029-N.jpg","img/neutralC/CFD-WF-248-129-N.jpg","1","1","1","1","1","0","0.548843599972315","0.670351499924436","0.541214300086722","1","1","1","1","1","1","1","1","1"
"250031","img/neutralC/CFD-WF-248-129-N.jpg","img/neutralC/CFD-IF-608-390-N.jpg","img/neutralC/CFD-IF-619-197-N.jpg","1","1","1","0","1","0","0.541214300086722","0.548843599972315","0.665629499941133","1","1","1","1","1","1","1","1","1"
"250031","img/neutralC/CFD-IF-619-197-N.jpg","img/neutralC/CFD-WF-248-129-N.jpg","img/neutralC/CFD-AF-215-70-N.jpg","1","1","1","0","0","0","0.665629499941133","0.541214300086722","0.79884740000125","1","1","1","1","1","1","1","1","1"
"250031","img/neutralC/CFD-AF-215-70-N.jpg","img/neutralC/CFD-IF-619-197-N.jpg","img/neutralC/CFD-BF-051-035-N.jpg","1","1","1","0","0","0","0.79884740000125","0.665629499941133","0.624093899969012","1","1","1","1","1","1","1","1","1"
"250031","img/neutralC/CFD-BF-051-035-N.jpg","img/neutralC/CFD-AF-215-70-N.jpg","img/neutralC/CFD-WM-213-076-N.jpg","1","1","1","0","0","1","0.624093899969012","0.79884740000125","0.501725499983877","1","1","1","1","1","1","1","1","1"
"250031","img/neutralC/CFD-WM-213-076-N.jpg","img/neutralC/CFD-BF-051-035-N.jpg","img/neutralC/CFD-MF-300-002-N.jpg","1","1","1","1","0","0","0.501725499983877","0.624093899969012","1.01189800002612","1","1","1","1","1","1","1","1","1"
"250031","img/neutralC/CFD-MF-300-002-N.jpg","img/neutralC/CFD-WM-213-076-N.jpg","img/neutralC/CFD-WM-232-070-N.jpg","1","1","1","0","1","0","1.01189800002612","0.501725499983877","0.806625200086273","1","1","1","1","1","1","1","1","1"
"250031","img/neutralC/CFD-WM-232-070-N.jpg","img/neutralC/CFD-MF-300-002-N.jpg","img/neutralC/CFD-BF-224-002-N.jpg","1","1","1","0","0","1","0.806625200086273","1.01189800002612","0.842997799976729","1","1","1","1","1","1","1","1","1"
"250031","img/neutralC/CFD-BF-224-002-N.jpg","img/neutralC/CFD-WM-232-070-N.jpg","img/neutralC/CFD-IM-685-004-N.jpg","1","1","1","1","0","1","0.842997799976729","0.806625200086273","0.749461999977939","1","1","1","1","1","1","1","1","1"
"250031","img/neutralC/CFD-IM-685-004-N.jpg","img/neutralC/CFD-BF-224-002-N.jpg","img/neutralC/CFD-WF-217-085-N.jpg","1","1","1","1","1","1","0.749461999977939","0.842997799976729","0.624916300061159","1","1","1","1","1","1","1","1","1"
"250031","img/neutralC/CFD-WF-217-085-N.jpg","img/neutralC/CFD-IM-685-004-N.jpg","img/neutralC/CFD-AM-236-090-N.jpg","1","1","1","1","1","1","0.624916300061159","0.749461999977939","0.613261500024237","1","1","1","1","1","1","1","1","1"
"250031","img/neutralC/CFD-AM-236-090-N.jpg","img/neutralC/CFD-WF-217-085-N.jpg","img/neutralC/CFD-IM-675-015-N.jpg","1","1","1","1","1","1","0.613261500024237","0.624916300061159","1.26487680000719","1","1","1","1","1","1","1","1","1"
"250031","img/neutralC/CFD-IM-675-015-N.jpg","img/neutralC/CFD-AM-236-090-N.jpg","img/neutralC/CFD-AF-254-167-N.jpg","1","1","1","1","1","1","1.26487680000719","0.613261500024237","1.02808960003313","1","1","1","1","1","1","1","1","1"
"250031","img/neutralC/CFD-AF-254-167-N.jpg","img/neutralC/CFD-IM-675-015-N.jpg","img/neutralC/CFD-MM-304-002-N.jpg","1","1","1","1","1","1","1.02808960003313","1.26487680000719","0.794285499956459","1","1","1","1","1","1","1","1","1"
"250031","img/neutralC/CFD-MM-304-002-N.jpg","img/neutralC/CFD-AF-254-167-N.jpg","img/neutralC/CFD-IM-709-103-N.jpg","1","1","1","1","1","0","0.794285499956459","1.02808960003313","1.41713650000747","1","1","1","1","1","1","1","1","1"
"250031","img/neutralC/CFD-IM-709-103-N.jpg","img/neutralC/CFD-MM-304-002-N.jpg","img/neutralC/CFD-LM-217-162-N.jpg","1","1","1","0","1","0","1.41713650000747","0.794285499956459","0.953090799972415","1","1","1","1","1","1","1","1","1"
"250031","img/neutralC/CFD-LM-217-162-N.jpg","img/neutralC/CFD-IM-709-103-N.jpg","img/neutralC/CFD-MF-340-026-N.jpg","1","1","1","0","0","1","0.953090799972415","1.41713650000747","0.682503300020471","1","1","1","1","1","1","1","1","1"
"250031","img/neutralC/CFD-MF-340-026-N.jpg","img/neutralC/CFD-LM-217-162-N.jpg","img/neutralC/CFD-BM-243-218-N.jpg","1","1","1","1","0","1","0.682503300020471","0.953090799972415","0.604026699904352","1","1","1","1","1","1","1","1","1"
"250031","img/neutralC/CFD-BM-243-218-N.jpg","img/neutralC/CFD-MF-340-026-N.jpg","img/neutralC/CFD-WM-024-015-N.jpg","1","1","1","1","1","1","0.604026699904352","0.682503300020471","0.574773299973458","1","1","1","1","1","1","1","1","1"
"250031","img/neutralC/CFD-WM-024-015-N.jpg","img/neutralC/CFD-BM-243-218-N.jpg","img/neutralC/CFD-LF-201-035-N.jpg","1","1","1","1","1","1","0.574773299973458","0.604026699904352","0.596400000038557","1","1","1","1","1","1","1","1","1"
"250031","img/neutralC/CFD-LF-201-035-N.jpg","img/neutralC/CFD-WM-024-015-N.jpg","img/neutralC/CFD-WF-008-002-N.jpg","1","1","1","1","1","1","0.596400000038557","0.574773299973458","0.626509699970484","1","1","1","1","1","1","1","1","1"
"250031","img/neutralC/CFD-WF-008-002-N.jpg","img/neutralC/CFD-LF-201-035-N.jpg","img/neutralC/CFD-LF-226-174-N.jpg","1","1","1","1","1","0","0.626509699970484","0.596400000038557","0.713134899968281","1","1","1","1","1","1","1","1","1"
"250031","img/neutralC/CFD-LF-226-174-N.jpg","img/neutralC/CFD-WF-008-002-N.jpg","img/neutralC/CFD-IM-604-014-N.jpg","1","1","1","0","1","0","0.713134899968281","0.626509699970484","0.897045099991374","1","1","1","1","1","1","1","1","1"
"250031","img/neutralC/CFD-IM-604-014-N.jpg","img/neutralC/CFD-LF-226-174-N.jpg","img/neutralC/CFD-MF-327-002-N.jpg","1","1","1","0","0","0","0.897045099991374","0.713134899968281","0.80450650001876","1","1","1","1","1","1","1","1","1"
"250031","img/neutralC/CFD-MF-327-002-N.jpg","img/neutralC/CFD-IM-604-014-N.jpg","img/neutralC/CFD-WF-212-050-N.jpg","1","1","1","0","0","0","0.80450650001876","0.897045099991374","0.605682499939576","1","1","1","1","1","1","1","1","1"
"250031","img/neutralC/CFD-WF-212-050-N.jpg","img/neutralC/CFD-MF-327-002-N.jpg",NA,"1","1",NA,"0","0",NA,"0.605682499939576","0.80450650001876",NA,"1","1",NA,"1","1",NA,"1","1",NA
